id,age,condition,counterbalance,block,trialinblock,trial,tstart,tend,trialstim,trialintensity,response,RT,trialtype,colourfreq
107,19,0,2,Practice,1,NA,5.907611921429634e-06,1.4668541634455323,"[21, 0, 233]",233,a,0.9432224514894187,colour,0.5
107,19,0,2,Practice,2,NA,1.985228038392961,2.9068382205441594,"[89, 0, 165]",165,l,0.39823013730347157,colour,0.5
107,19,0,2,Practice,3,NA,3.4226615524385124,8.370830702828243,"[2, 0, 252]",252,a,4.424841487081721,colour,0.5
107,19,0,2,Practice,4,NA,8.877108008600771,10.234806722262874,"[88, 0, 166]",166,l,0.8343659304082394,colour,0.5
107,19,0,2,Practice,5,NA,10.741559793474153,12.61079916357994,"[44, 0, 210]",210,a,1.3460251344367862,colour,0.5
107,19,0,2,Practice,6,NA,13.129402650753036,15.090805402258411,"[69, 0, 185]",185,l,1.4385445520747453,colour,0.5
107,19,0,2,Practice,7,NA,15.597772725159302,17.146816527470946,"[70, 0, 184]",184,a,1.0258173572365195,colour,0.5
107,19,0,2,Practice,8,NA,17.662367712240666,19.50681332941167,"[14, 0, 240]",240,a,1.3196461533661932,colour,0.5
107,19,0,2,Practice,9,NA,20.020636320346966,22.058801520382985,"[52, 0, 202]",202,a,1.514843444339931,colour,0.5
107,19,0,2,Practice,10,NA,22.566955893533304,23.986782546620816,"[5, 0, 249]",249,a,0.896423765225336,colour,0.5
107,19,0,2,1,1,1,4.7176289558410645,5.8720088915433735,"[92, 0, 162]",162,l,0.6302389814518392,colour,0.5
107,19,0,2,1,2,2,6.390206323936582,7.352006071479991,"[94, 0, 160]",160,l,0.4384492412209511,colour,0.5
107,19,0,2,1,3,3,7.858947794651613,8.76006107754074,"[84, 0, 170]",170,l,0.37812235741876066,colour,0.5
107,19,0,2,1,4,4,9.281233224784955,10.159980024211109,"[25, 0, 229]",229,a,0.3554337085224688,colour,0.5
107,19,0,2,1,5,5,10.67177589260973,11.83201585477218,"[65, 0, 189]",189,a,0.6369930373039097,colour,0.5
107,19,0,2,1,6,6,12.343647883273661,13.312045330181718,"[50, 0, 204]",204,a,0.44506899593397975,colour,0.5
107,19,0,2,1,7,7,13.830423931358382,14.73603768623434,"[96, 0, 158]",158,l,0.3822486763820052,colour,0.5
107,19,0,2,1,8,8,15.252259589964524,16.111998619977385,"[32, 0, 222]",222,a,0.33640152076259255,colour,0.5
107,19,0,2,1,9,9,16.62740329420194,17.6399890196044,"[39, 0, 215]",215,a,0.48933880031108856,colour,0.5
107,19,0,2,1,10,10,18.15996348275803,19.119952722918242,"[6, 0, 248]",248,a,0.43669859832152724,colour,0.5
107,19,0,2,1,11,11,19.62874985183589,20.58397238049656,"[15, 0, 239]",239,a,0.43239150452427566,colour,0.5
107,19,0,2,1,12,12,21.097442485857755,21.887969084782526,"[19, 0, 235]",235,a,0.2678338144905865,colour,0.5
107,19,0,2,1,13,13,22.394348002737388,23.271923505701125,"[78, 0, 176]",176,l,0.3542297228705138,colour,0.5
107,19,0,2,1,14,14,23.78492690436542,24.671957455342636,"[27, 0, 227]",227,a,0.3638234045356512,colour,0.5
107,19,0,2,1,15,15,25.191122565884143,25.999924381729215,"[89, 0, 165]",165,l,0.2841957302298397,colour,0.5
107,19,0,2,1,16,16,26.520499852951616,27.423931310186163,"[83, 0, 171]",171,l,0.38014357234351337,colour,0.5
107,19,0,2,1,17,17,27.94242806523107,28.759998850058764,"[47, 0, 207]",207,a,0.29420491866767406,colour,0.5
107,19,0,2,1,18,18,29.270428468473256,30.087952779605985,"[41, 0, 213]",213,a,0.294112364994362,colour,0.5
107,19,0,2,1,19,19,30.598617129959166,32.039989492157474,"[66, 0, 188]",188,a,0.9180380036123097,colour,0.5
107,19,0,2,1,20,20,32.55337492073886,33.607953236438334,"[29, 0, 225]",225,a,0.5313219383824617,colour,0.5
107,19,0,2,1,21,21,34.115910687018186,35.119942089077085,"[70, 0, 184]",184,l,0.48098258138634264,colour,0.5
107,19,0,2,1,22,22,35.63153040083125,36.559944262960926,"[17, 0, 237]",237,a,0.4054249059408903,colour,0.5
107,19,0,2,1,23,23,37.068918228615075,37.951932343654335,"[22, 0, 232]",232,a,0.359626587247476,colour,0.5
107,19,0,2,1,24,24,38.46101422305219,39.39192624692805,"[71, 0, 183]",183,l,0.4074559670407325,colour,0.5
107,19,0,2,1,25,25,39.89850917691365,40.77597282780334,"[43, 0, 211]",211,a,0.35414465237408876,colour,0.5
107,19,0,2,1,26,26,41.2891172231175,42.12789934268221,"[36, 0, 218]",218,a,0.31548832706175745,colour,0.5
107,19,0,2,1,27,27,42.64855200750753,43.511951831169426,"[0, 0, 254]",254,a,0.3401288741733879,colour,0.5
107,19,0,2,1,28,28,44.02480359910987,45.18388801882975,"[62, 0, 192]",192,a,0.6357539994642138,colour,0.5
107,19,0,2,1,29,29,45.69662911607884,46.647950211772695,"[58, 0, 196]",196,a,0.4280816537793726,colour,0.5
107,19,0,2,1,30,30,47.165465897647664,48.14394696964882,"[4, 0, 250]",250,a,0.4550793659873307,colour,0.5
107,19,0,2,1,31,31,48.66537590394728,49.52791871968657,"[34, 0, 220]",220,a,0.3378020350355655,colour,0.5
107,19,0,2,1,32,32,50.04151406791061,50.87988304370083,"[93, 0, 161]",161,l,0.31508502922952175,colour,0.5
107,19,0,2,1,33,33,51.38593231304549,52.64789310400374,"[79, 0, 175]",175,l,0.7384728325996548,colour,0.5
107,19,0,2,1,34,34,53.16727640503086,54.07188979256898,"[68, 0, 186]",186,l,0.3811640259809792,colour,0.5
107,19,0,2,1,35,35,54.589255817234516,55.44787435699254,"[56, 0, 198]",198,a,0.3353661010041833,colour,0.5
107,19,0,2,1,36,36,55.96416872809641,56.815920966211706,"[10, 0, 244]",244,a,0.3284938915167004,colour,0.5
107,19,0,2,1,37,37,57.32497960864566,58.14391506812535,"[24, 0, 230]",230,a,0.29568183911032975,colour,0.5
107,19,0,2,1,38,38,58.65304735954851,59.4958829365205,"[55, 0, 199]",199,a,0.31975879333913326,colour,0.5
107,19,0,2,1,39,39,60.012115080142394,61.24785442836583,"[61, 0, 193]",193,a,0.7128638196736574,colour,0.5
107,19,0,2,1,40,40,61.76431854697876,62.759873607195914,"[52, 0, 202]",202,a,0.4723108923062682,colour,0.5
107,19,0,2,1,41,41,63.279980008490384,64.09588246396743,"[77, 0, 177]",177,l,0.29321479122154415,colour,0.5
107,19,0,2,1,42,42,64.60806666384451,65.45589856430888,"[95, 0, 159]",159,l,0.324802378192544,colour,0.5
107,19,0,2,1,43,43,65.96736990404315,66.79188654734753,"[7, 0, 247]",247,a,0.3010692510288209,colour,0.5
107,19,0,2,1,44,44,67.31118911015801,68.10386531753466,"[14, 0, 240]",240,a,0.26940959016792476,colour,0.5
107,19,0,2,1,45,45,68.62446757010184,69.39188489317894,"[3, 0, 251]",251,a,0.24342287937179208,colour,0.5
107,19,0,2,1,46,46,69.90547118289396,70.75194904278032,"[44, 0, 210]",210,a,0.32314665196463466,colour,0.5
107,19,0,2,1,47,47,71.26602842705324,72.07187364506535,"[49, 0, 205]",205,a,0.2823367796372622,colour,0.5
107,19,0,2,1,48,48,72.57873187283985,73.39189670863561,"[31, 0, 223]",223,a,0.2900057383812964,colour,0.5
107,19,0,2,1,49,49,73.90660112560727,74.76790805440396,"[72, 0, 182]",182,l,0.3378366935066879,colour,0.5
107,19,0,2,1,50,50,75.28315046429634,76.1118942508474,"[57, 0, 197]",197,a,0.3052770958747715,colour,0.5
107,19,0,2,2,1,51,81.2524474542588,81.9758285228163,"[15, 0, 239]",239,a,0.19926925911568105,colour,0.5
107,19,0,2,2,2,52,82.48761218204163,83.2638437661808,"[72, 0, 182]",182,l,0.25285941641777754,colour,0.5
107,19,0,2,2,3,53,83.78454211726785,84.59186583105475,"[35, 0, 219]",219,a,0.2839377613272518,colour,0.5
107,19,0,2,2,4,54,85.11256260680966,85.89588183374144,"[90, 0, 164]",164,l,0.2600872681941837,colour,0.5
107,19,0,2,2,5,55,86.40946654812433,87.18385966192,"[60, 0, 194]",194,a,0.24900051881559193,colour,0.5
107,19,0,2,2,6,56,87.6928355966229,89.2878391945269,"[11, 0, 243]",243,a,1.0716845991555601,colour,0.5
107,19,0,2,2,7,57,89.80217182147317,90.65583893610165,"[38, 0, 216]",216,a,0.33019097172655165,colour,0.5
107,19,0,2,2,8,58,91.17719815974124,92.04783134907484,"[58, 0, 196]",196,a,0.34736972278915346,colour,0.5
107,19,0,2,2,9,59,92.56787394732237,93.6318383878097,"[70, 0, 184]",184,l,0.5406182664446533,colour,0.5
107,19,0,2,2,10,60,94.14601426431909,95.05579923652112,"[99, 0, 155]",155,l,0.38668298232369125,colour,0.5
107,19,0,2,2,11,61,95.56783023057505,96.58380854083225,"[81, 0, 173]",173,l,0.4926644314546138,colour,0.5
107,19,0,2,2,12,62,97.09907339978963,97.87981451465748,"[55, 0, 199]",199,a,0.2579498691484332,colour,0.5
107,19,0,2,2,13,63,98.3974857693538,99.22386569553055,"[27, 0, 227]",227,a,0.3029648291412741,colour,0.5
107,19,0,2,2,14,64,99.74126165243797,100.51988899870776,"[76, 0, 178]",178,l,0.2552157938480377,colour,0.5
107,19,0,2,2,15,65,101.03819867689162,101.77582277264446,"[29, 0, 225]",225,a,0.2143637801054865,colour,0.5
107,19,0,2,2,16,66,102.28952209604904,103.09581117797643,"[86, 0, 168]",168,l,0.28300434770062566,colour,0.5
107,19,0,2,2,17,67,103.60202034842223,104.39981654682197,"[40, 0, 214]",214,a,0.27443348290398717,colour,0.5
107,19,0,2,2,18,68,104.9145327792503,105.73581280047074,"[77, 0, 177]",177,l,0.2979212442878634,colour,0.5
107,19,0,2,2,19,69,106.24260643776506,107.01581565197557,"[8, 0, 246]",246,a,0.2497594589367509,colour,0.5
107,19,0,2,2,20,70,107.52390543464571,108.70381246344186,"[34, 0, 220]",220,a,0.655243047978729,colour,0.5
107,19,0,2,2,21,71,109.21278209681623,110.00782019551843,"[47, 0, 207]",207,a,0.2721854131668806,colour,0.5
107,19,0,2,2,22,72,110.52528349985369,111.39180966862477,"[3, 0, 251]",251,a,0.34377115685492754,colour,0.5
107,19,0,2,2,23,73,111.90014560474083,112.71977226273157,"[25, 0, 229]",229,a,0.29612767207436264,colour,0.5
107,19,0,2,2,24,74,113.23545105359517,114.00785367237404,"[45, 0, 209]",209,a,0.254185100318864,colour,0.5
107,19,0,2,2,25,75,114.5271440257784,115.37576755555347,"[32, 0, 222]",222,a,0.3252742050681263,colour,0.5
107,19,0,2,2,26,76,115.88552606129088,116.70377583592199,"[50, 0, 204]",204,a,0.2947870222851634,colour,0.5
107,19,0,2,2,27,77,117.22109381132759,117.97575605520979,"[23, 0, 231]",231,a,0.23165438324213028,colour,0.5
107,19,0,2,2,28,78,118.48683197423816,119.30378993554041,"[98, 0, 156]",156,l,0.2982910652644932,colour,0.5
107,19,0,2,2,29,79,119.8102728286758,120.5997966970317,"[18, 0, 236]",236,a,0.26733126770704985,colour,0.5
107,19,0,2,2,30,80,121.1071145425085,121.94377737957984,"[24, 0, 230]",230,a,0.3133749521803111,colour,0.5
107,19,0,2,2,31,81,122.45587060134858,123.27177896443754,"[19, 0, 235]",235,a,0.29261496430262923,colour,0.5
107,19,0,2,2,32,82,123.78392811212689,124.57577842567116,"[97, 0, 157]",157,l,0.2684304902795702,colour,0.5
107,19,0,2,2,33,83,125.09632553998381,125.91977052995935,"[93, 0, 161]",161,l,0.30043279682286084,colour,0.5
107,19,0,2,2,34,84,126.4261683523655,127.31975367339328,"[62, 0, 192]",192,a,0.3703336699400097,colour,0.5
107,19,0,2,2,35,85,127.83236598339863,128.6717900710646,"[88, 0, 166]",166,l,0.3160062339156866,colour,0.5
107,19,0,2,2,36,86,129.19174050935544,129.98379247193225,"[5, 0, 249]",249,a,0.2689869941677898,colour,0.5
107,19,0,2,2,37,87,130.5042371863965,131.3917572873179,"[17, 0, 237]",237,a,0.3627289079595357,colour,0.5
107,19,0,2,2,38,88,131.91190267936327,132.77577236061916,"[63, 0, 191]",191,a,0.3406400855164975,colour,0.5
107,19,0,2,2,39,89,133.28685458097607,134.05601309472695,"[48, 0, 206]",206,a,0.24588835192844272,colour,0.5
107,19,0,2,2,40,90,134.56822328828275,135.40778128337115,"[0, 0, 254]",254,a,0.314784524962306,colour,0.5
107,19,0,2,2,41,91,135.92890183674172,136.70376205118373,"[20, 0, 234]",234,a,0.25151285878382623,colour,0.5
107,19,0,2,2,42,92,137.21018586750142,138.0877905152738,"[74, 0, 180]",180,l,0.35426516900770366,colour,0.5
107,19,0,2,2,43,93,138.6008490519598,139.40774898813106,"[53, 0, 201]",201,a,0.28352816216647625,colour,0.5
107,19,0,2,2,44,94,139.928969578119,140.7517481816467,"[80, 0, 174]",174,l,0.2999251300934702,colour,0.5
107,19,0,2,2,45,95,141.2583303237334,142.07171531906351,"[54, 0, 200]",200,a,0.29002464283257723,colour,0.5
107,19,0,2,2,46,96,142.58649141597562,143.35973135009408,"[96, 0, 158]",158,l,0.2499032123014331,colour,0.5
107,19,0,2,2,47,97,143.86780892359093,144.68773687351495,"[95, 0, 159]",159,l,0.2969295415095985,colour,0.5
107,19,0,2,2,48,98,145.19573528389446,146.00774930324405,"[92, 0, 162]",162,l,0.2887320420704782,colour,0.5
107,19,0,2,2,49,99,146.5240023205988,147.2797641812358,"[12, 0, 242]",242,a,0.2310789751354605,colour,0.5
107,19,0,2,2,50,100,147.79092123219743,148.59975652466528,"[44, 0, 210]",210,a,0.28543476783670485,colour,0.5
107,19,0,2,3,1,101,153.3057792489417,154.055742128985,"[26, 0, 228]",228,a,0.22580538457259536,colour,0.5
107,19,0,2,3,2,102,154.57215701672249,155.11170638678595,"[50, 0, 204]",204,a,0.014781413832679391,colour,0.5
107,19,0,2,3,3,103,155.62047397717834,156.97567413537763,"[21, 0, 233]",233,a,0.8455381444655359,colour,0.5
107,19,0,2,3,4,104,157.49112764652818,159.3281193447765,"[66, 0, 188]",188,l,1.3103462809231132,colour,0.5
107,19,0,2,3,5,105,159.83943275222555,160.40773914195597,"[48, 0, 206]",206,a,0.044995661824941635,colour,0.5
107,19,0,2,3,6,106,160.91537403315306,162.37569430028088,"[37, 0, 217]",217,a,0.937061526812613,colour,0.5
107,19,0,2,3,7,107,162.88544138451107,163.69568703789264,"[44, 0, 210]",210,a,0.2869806115049869,colour,0.5
107,19,0,2,3,8,108,164.21460875193588,165.00769652798772,"[53, 0, 201]",201,a,0.2710357781033963,colour,0.5
107,19,0,2,3,9,109,165.52605701237917,166.31174088758416,"[19, 0, 235]",235,a,0.2623534551821649,colour,0.5
107,19,0,2,3,10,110,166.82286524935625,168.26368386507966,"[14, 0, 240]",240,a,0.9174330572132021,colour,0.5
107,19,0,2,3,11,111,168.77837843587622,169.7677292486187,"[39, 0, 215]",215,a,0.4665186069905758,colour,0.5
107,19,0,2,3,12,112,170.27789577818476,171.16771475505084,"[15, 0, 239]",239,a,0.36651730723679066,colour,0.5
107,19,0,2,3,13,113,171.6841568183154,173.12770281359553,"[0, 0, 254]",254,a,0.920246688881889,colour,0.5
107,19,0,2,3,14,114,173.63862788979895,174.44766443734989,"[6, 0, 248]",248,a,0.28570888424292207,colour,0.5
107,19,0,2,3,15,115,174.96668421919458,176.11968254484236,"[34, 0, 220]",220,a,0.6296052841935307,colour,0.5
107,19,0,2,3,16,116,176.63854951458052,177.7276850119233,"[36, 0, 218]",218,a,0.5658133479300886,colour,0.5
107,19,0,2,3,17,117,178.24790365924127,179.09567923960276,"[70, 0, 184]",184,l,0.324361271224916,colour,0.5
107,19,0,2,3,18,118,179.60860465676524,180.39969918085262,"[22, 0, 232]",232,a,0.2677546516060829,colour,0.5
107,19,0,2,3,19,119,180.9211013338063,181.8076655715704,"[77, 0, 177]",177,l,0.3631526855751872,colour,0.5
107,19,0,2,3,20,120,182.32738442905247,183.19966586166993,"[51, 0, 203]",203,a,0.34907546755857766,colour,0.5
107,19,0,2,3,21,121,183.71802713372745,184.53568062605336,"[32, 0, 222]",222,a,0.29433252452872694,colour,0.5
107,19,0,2,3,22,122,185.04610906285234,185.8716776673682,"[56, 0, 198]",198,a,0.3024740975815803,colour,0.5
107,19,0,2,3,23,123,186.3922641663812,187.3196682089474,"[45, 0, 209]",209,a,0.40398618881590664,colour,0.5
107,19,0,2,3,24,124,187.8298272555694,188.78367171878926,"[8, 0, 246]",246,a,0.4307318397331983,colour,0.5
107,19,0,2,3,25,125,189.2985238279216,190.16764583205804,"[49, 0, 205]",205,a,0.3457285687327385,colour,0.5
107,19,0,2,3,26,126,190.689202766167,191.47967146988958,"[83, 0, 171]",171,l,0.26715758186765015,colour,0.5
107,19,0,2,3,27,127,191.98606259701774,192.9676790726371,"[98, 0, 156]",156,l,0.45818995707668364,colour,0.5
107,19,0,2,3,28,128,193.48603483103216,195.51964205759577,"[92, 0, 162]",162,l,1.5087415969464928,colour,0.5
107,19,0,2,3,29,129,196.0345587572083,196.93561690184288,"[88, 0, 166]",166,l,0.37791361939162016,colour,0.5
107,19,0,2,3,30,130,197.4562683852855,198.29567553754896,"[4, 0, 250]",250,a,0.31609799969010055,colour,0.5
107,19,0,2,3,31,131,198.8155712315347,199.7116940987762,"[86, 0, 168]",168,l,0.38028811383992434,colour,0.5
107,19,0,2,3,32,132,200.22296378947794,201.31962252268568,"[87, 0, 167]",167,l,0.5741321516688913,colour,0.5
107,19,0,2,3,33,133,201.83154048328288,202.63167297281325,"[55, 0, 199]",199,a,0.27680049394257367,colour,0.5
107,19,0,2,3,34,134,203.14402022468857,203.92762183910236,"[90, 0, 164]",164,l,0.2601983326021582,colour,0.5
107,19,0,2,3,35,135,204.43357422249392,205.00767250335775,"[29, 0, 225]",225,a,0.050626076525077224,colour,0.5
107,19,0,2,3,36,136,205.52736772992648,207.23163232789375,"[60, 0, 194]",194,a,1.188184872502461,colour,0.5
107,19,0,2,3,37,137,207.7388816443272,208.5996218295768,"[9, 0, 245]",245,a,0.3374140972737223,colour,0.5
107,19,0,2,3,38,138,209.10588495689444,209.96770309726708,"[17, 0, 237]",237,a,0.3391793128103018,colour,0.5
107,19,0,2,3,39,139,210.4808116524946,211.35965061187744,"[43, 0, 211]",211,a,0.35552389919757843,colour,0.5
107,19,0,2,3,40,140,211.8657554134261,212.85560640972108,"[63, 0, 191]",191,a,0.46726455027237535,colour,0.5
107,19,0,2,3,41,141,213.3658773084171,214.30365327117033,"[64, 0, 190]",190,a,0.41446247790008783,colour,0.5
107,19,0,2,3,42,142,214.81889371178113,215.66359296557494,"[89, 0, 165]",165,l,0.32125028618611395,colour,0.5
107,19,0,2,3,43,143,216.17975736758672,217.04761237092316,"[73, 0, 181]",181,l,0.34478964121080935,colour,0.5
107,19,0,2,3,44,144,217.55467067239806,218.4636640152894,"[3, 0, 251]",251,a,0.38566725491546094,colour,0.5
107,19,0,2,3,45,145,218.9766075492371,219.79959764750674,"[99, 0, 155]",155,l,0.29971599811688066,colour,0.5
107,19,0,2,3,46,146,220.32027985085733,221.50363578437828,"[68, 0, 186]",186,l,0.6600326024927199,colour,0.5
107,19,0,2,3,47,147,222.0247638206929,222.83161452622153,"[47, 0, 207]",207,a,0.28356597130186856,colour,0.5
107,19,0,2,3,48,148,223.35293987905607,224.20758215524256,"[59, 0, 195]",195,a,0.3319778486620635,colour,0.5
107,19,0,2,3,49,149,224.72782994713634,225.895602991106,"[75, 0, 179]",179,l,0.6429936664644629,colour,0.5
107,19,0,2,3,50,150,226.4170591009315,227.31160185998306,"[71, 0, 183]",183,l,0.3716802273411304,colour,0.5
107,19,0,2,4,1,151,237.40329538378865,238.95161608583294,"[62, 0, 192]",192,a,1.0243254706729203,colour,0.5
107,19,0,2,4,2,152,239.46655523474328,240.367557059275,"[99, 0, 155]",155,l,0.37771512125618756,colour,0.5
107,19,0,2,4,3,153,240.88840664713643,241.5195944022853,"[49, 0, 205]",205,a,0.10781755670905113,colour,0.5
107,19,0,2,4,4,154,242.02894567186013,242.67951968195848,"[30, 0, 224]",224,a,0.12734874663874507,colour,0.5
107,19,0,2,4,5,155,243.20086945337243,244.26354798837565,"[66, 0, 188]",188,l,0.5392949457745999,colour,0.5
107,19,0,2,4,6,156,244.7703420193866,245.9355704281479,"[54, 0, 200]",200,a,0.6420031453017145,colour,0.5
107,19,0,2,4,7,157,246.4421057025902,247.28758280118927,"[28, 0, 226]",226,a,0.32200765097513795,colour,0.5
107,19,0,2,4,8,158,247.8015680562239,248.60757356928661,"[34, 0, 220]",220,a,0.282707781996578,colour,0.5
107,19,0,2,4,9,159,249.11404740414582,249.92753322375938,"[86, 0, 168]",168,l,0.2909312751144171,colour,0.5
107,19,0,2,4,10,160,250.44217344396748,251.53555105091073,"[78, 0, 176]",176,l,0.5694178217090666,colour,0.5
107,19,0,2,4,11,161,252.05305413366295,252.8795285827946,"[69, 0, 185]",185,l,0.3030814074445516,colour,0.5
107,19,0,2,4,12,162,253.39692769036628,254.23156655579805,"[96, 0, 158]",158,l,0.3115853185299784,colour,0.5
107,19,0,2,4,13,163,254.74053855217062,255.55153211788274,"[15, 0, 239]",239,a,0.28758201329037547,colour,0.5
107,19,0,2,4,14,164,256.0686803460121,256.9035622139927,"[88, 0, 166]",166,l,0.31145534943789244,colour,0.5
107,19,0,2,4,15,165,257.41387801105157,258.0155809200369,"[10, 0, 244]",244,a,0.07831380562856793,colour,0.5
107,19,0,2,4,16,166,258.5232752817683,259.0715412395075,"[85, 0, 169]",169,l,0.024966257391497493,colour,0.5
107,19,0,2,4,17,167,259.58575374353677,260.24755274294876,"[94, 0, 160]",160,l,0.13841737946495414,colour,0.5
107,19,0,2,4,18,168,260.75758063886315,261.99160045804456,"[5, 0, 249]",249,a,0.7105925129726529,colour,0.5
107,19,0,2,4,19,169,262.5075191005599,263.3275498440489,"[36, 0, 218]",218,a,0.29661328345537186,colour,0.5
107,19,0,2,4,20,170,263.8357369066216,264.65555812441744,"[31, 0, 223]",223,a,0.2947689052671194,colour,0.5
107,19,0,2,4,21,171,265.1656667587813,265.7675086951349,"[95, 0, 159]",159,l,0.07851151609793305,colour,0.5
107,19,0,2,4,22,172,266.27502425108105,266.879584508948,"[32, 0, 222]",222,a,0.08113492093980312,colour,0.5
107,19,0,2,4,23,173,267.4001257154159,268.93551292666234,"[89, 0, 165]",165,l,1.0120103172957897,colour,0.5
107,19,0,2,4,24,174,269.448192978045,269.9995033608284,"[57, 0, 197]",197,a,0.02789567969739437,colour,0.5
107,19,0,2,4,25,175,270.5107387872413,271.0635087613482,"[64, 0, 190]",190,a,0.029735725838690996,colour,0.5
107,19,0,2,4,26,176,271.5732617531903,272.11149371019565,"[42, 0, 212]",212,a,0.015522237168624997,colour,0.5
107,19,0,2,4,27,177,272.61944879754446,273.1435728163924,"[33, 0, 221]",221,a,0.0007762694731354713,colour,0.5
107,19,0,2,4,28,178,273.66632546531036,275.4635080525186,"[0, 0, 254]",254,a,1.2720727731939405,colour,0.5
107,19,0,2,4,29,179,275.98054718528874,276.6234774426557,"[25, 0, 229]",229,a,0.11956714792177081,colour,0.5
107,19,0,2,4,30,180,277.13684199750423,278.4954753064085,"[79, 0, 175]",175,l,0.8353028886485845,colour,0.5
107,19,0,2,4,31,181,279.011789763812,279.83952294290066,"[90, 0, 164]",164,l,0.30444411281496286,colour,0.5
107,19,0,2,4,32,182,280.35562590509653,280.94348672172055,"[76, 0, 178]",178,l,0.06230083736591041,colour,0.5
107,19,0,2,4,33,183,281.4516548796091,282.0394715855364,"[37, 0, 217]",217,a,0.06445556576363742,colour,0.5
107,19,0,2,4,34,184,282.56180045660585,283.75149178807624,"[46, 0, 208]",208,a,0.6671206390019506,colour,0.5
107,19,0,2,4,35,185,284.2628189804964,285.0635044290684,"[73, 0, 181]",181,l,0.28856229479424655,colour,0.5
107,19,0,2,4,36,186,285.57965150196105,286.31955320597626,"[6, 0, 248]",248,a,0.2170045138336718,colour,0.5
107,19,0,2,4,37,187,286.82970988960005,289.4394633935299,"[14, 0, 240]",240,a,2.086685778805986,colour,0.5
107,19,0,2,4,38,188,289.94021268445067,290.5114740966819,"[17, 0, 237]",237,a,0.04798297956585884,colour,0.5
107,19,0,2,4,39,189,291.0183346874546,291.67147578229196,"[20, 0, 234]",234,a,0.12976774550043046,colour,0.5
107,19,0,2,4,40,190,292.19025413668714,293.0874778018333,"[21, 0, 233]",233,a,0.37388339871540666,colour,0.5
107,19,0,2,4,41,191,293.59650414902717,294.3994770520367,"[59, 0, 195]",195,a,0.27843692200258374,colour,0.5
107,19,0,2,4,42,192,294.91020835610107,295.53547346335836,"[51, 0, 203]",203,a,0.102856679353863,colour,0.5
107,19,0,2,4,43,193,296.05102228489704,296.7915218465496,"[26, 0, 228]",228,a,0.21727626724168658,colour,0.5
107,19,0,2,4,44,194,297.30101962643676,297.8474979195744,"[70, 0, 184]",184,l,0.023549595149233937,colour,0.5
107,19,0,2,4,45,195,298.36338032828644,299.3114348696545,"[87, 0, 167]",167,l,0.4248135241214186,colour,0.5
107,19,0,2,4,46,196,299.8321363714058,300.7434439500794,"[45, 0, 209]",209,a,0.388024813728407,colour,0.5
107,19,0,2,4,47,197,301.2540763989091,302.23148739291355,"[61, 0, 193]",193,l,0.451827383833006,colour,0.5
107,19,0,2,4,48,198,302.74056218285114,303.98347975849174,"[22, 0, 232]",232,a,0.7196194506250322,colour,0.5
107,19,0,2,4,49,199,304.49068969045766,305.46345212636515,"[50, 0, 204]",204,a,0.4498546118848026,colour,0.5
107,19,0,2,4,50,200,305.9763929033652,307.1594388806261,"[2, 0, 252]",252,a,0.6597679385449737,colour,0.5
107,19,0,2,5,1,201,311.80592162394896,312.90342476195656,"[54, 0, 200]",200,l,0.5732905040495098,colour,0.5
107,19,0,2,5,2,202,313.41609772411175,314.1994220712222,"[79, 0, 175]",175,l,0.26002740371041,colour,0.5
107,19,0,2,5,3,203,314.7153111754451,315.2394749724772,"[12, 0, 242]",242,a,0.0010070628486573696,colour,0.5
107,19,0,2,5,4,204,315.7621835106984,316.6634992302861,"[89, 0, 165]",165,l,0.3780380745884031,colour,0.5
107,19,0,2,5,5,205,317.1828667775262,317.9754256189335,"[99, 0, 155]",155,l,0.26910790451802313,colour,0.5
107,19,0,2,5,6,206,318.49539811280556,319.31145141110756,"[28, 0, 226]",226,a,0.2928705702070147,colour,0.5
107,19,0,2,5,7,207,319.82518657436594,320.6154130632058,"[41, 0, 213]",213,a,0.26684526237659156,colour,0.5
107,19,0,2,5,8,208,321.12212281138636,322.47139913984574,"[0, 0, 254]",254,a,0.8259262160863727,colour,0.5
107,19,0,2,5,9,209,322.9815585804172,323.93541958532296,"[61, 0, 193]",193,l,0.4306152614299208,colour,0.5
107,19,0,2,5,10,210,324.4515800490044,325.29546719323844,"[71, 0, 183]",183,l,0.3205949270632118,colour,0.5
107,19,0,2,5,11,211,325.810896679759,326.799433413893,"[52, 0, 202]",202,a,0.4652224616147578,colour,0.5
107,19,0,2,5,12,212,327.31091814441606,327.99143701209687,"[19, 0, 235]",235,a,0.15716166608035564,colour,0.5
107,19,0,2,5,13,213,328.49840512289666,329.1194190622773,"[51, 0, 203]",203,a,0.09624677104875445,colour,0.5
107,19,0,2,5,14,214,329.6513392517809,330.18343273340724,"[92, 0, 162]",162,l,0.00404636817984283,colour,0.5
107,19,0,2,5,15,215,330.702923160512,332.4154648145195,"[93, 0, 161]",161,l,1.1890844157896936,colour,0.5
107,19,0,2,5,16,216,332.93053196324036,333.75138269294985,"[94, 0, 160]",160,l,0.297443903516978,colour,0.5
107,19,0,2,5,17,217,334.25869856914505,334.80738791055046,"[58, 0, 196]",196,l,0.025343561079353094,colour,0.5
107,19,0,2,5,18,218,335.3211856954731,335.97539686830714,"[42, 0, 212]",212,a,0.1308520019520074,colour,0.5
107,19,0,2,5,19,219,336.4930531568825,337.07136715971865,"[97, 0, 157]",157,l,0.0549174165353179,colour,0.5
107,19,0,2,5,20,220,337.5869033783674,338.4713940198999,"[87, 0, 167]",167,l,0.35988376825116575,colour,0.5
107,19,0,2,5,21,221,338.97880481299944,340.495396143524,"[21, 0, 233]",233,a,0.9933247133158147,colour,0.5
107,19,0,2,5,22,222,341.0099887084216,341.91942118899897,"[62, 0, 192]",192,a,0.38607330969534814,colour,0.5
107,19,0,2,5,23,223,342.43230131384917,342.96736596548,"[31, 0, 223]",223,a,0.011801972752436996,colour,0.5
107,19,0,2,5,24,224,343.4790913355537,344.07135495054536,"[73, 0, 181]",181,l,0.06837235880084336,colour,0.5
107,19,0,2,5,25,225,344.5892660571262,345.7194276480004,"[32, 0, 222]",222,a,0.6069312072359025,colour,0.5
107,19,0,2,5,26,226,346.22984072496183,347.47139126295224,"[57, 0, 197]",197,a,0.7184493357781321,colour,0.5
107,19,0,2,5,27,227,347.97978706355207,349.44736708397977,"[8, 0, 246]",246,a,0.9444701536558568,colour,0.5
107,19,0,2,5,28,228,349.96543375984766,350.89541512704454,"[74, 0, 180]",180,l,0.40658478112891316,colour,0.5
107,19,0,2,5,29,229,351.40301693510264,352.00739759928547,"[76, 0, 178]",178,l,0.0811447671148926,colour,0.5
107,19,0,2,5,30,230,352.5280037904158,353.10340412450023,"[14, 0, 240]",240,a,0.05103646335192025,colour,0.5
107,19,0,2,5,31,231,353.62299655750394,354.9993820565287,"[70, 0, 184]",184,a,0.853100371081382,colour,0.5
107,19,0,2,5,32,232,355.51367411739193,356.1193532899488,"[4, 0, 250]",250,a,0.0823574170935899,colour,0.5
107,19,0,2,5,33,233,356.6387232004199,357.18341461662203,"[29, 0, 225]",225,a,0.01937168277800083,colour,0.5
107,19,0,2,5,34,234,357.703233116772,358.3273690689821,"[77, 0, 177]",177,l,0.10094810416921973,colour,0.5
107,19,0,2,5,35,235,358.84372803079896,360.15139891928993,"[7, 0, 247]",247,a,0.7843125052750111,colour,0.5
107,19,0,2,5,36,236,360.6718739599455,361.8073457691353,"[50, 0, 204]",204,a,0.612031505908817,colour,0.5
107,19,0,2,5,37,237,362.31386568374,363.18336617341265,"[33, 0, 221]",221,a,0.34611886949278414,colour,0.5
107,19,0,2,5,38,238,363.7045473791659,364.73535200138576,"[49, 0, 205]",205,a,0.5074237899389118,colour,0.5
107,19,0,2,5,39,239,365.25140730827115,365.78337200242095,"[85, 0, 169]",169,l,0.008640969404950738,colour,0.5
107,19,0,2,5,40,240,366.29832178517245,366.9753551206086,"[47, 0, 207]",207,a,0.15372969675809145,colour,0.5
107,19,0,2,5,41,241,367.48575559444726,368.27935773250647,"[3, 0, 251]",251,a,0.2688952279277146,colour,0.5
107,19,0,2,5,42,242,368.79971225652844,369.9913113755174,"[5, 0, 249]",249,a,0.6682356158271432,colour,0.5
107,19,0,2,5,43,243,370.502722062869,371.3433497422375,"[35, 0, 219]",219,a,0.3171617763582617,colour,0.5
107,19,0,2,5,44,244,371.8621686627157,372.6153185402509,"[15, 0, 239]",239,a,0.23026647185906768,colour,0.5
107,19,0,2,5,45,245,373.12780993967317,373.88732790434733,"[45, 0, 209]",209,a,0.23632578435353935,colour,0.5
107,19,0,2,5,46,246,374.3947501189541,375.4155140451621,"[65, 0, 189]",189,l,0.49746737675741315,colour,0.5
107,19,0,2,5,47,247,375.91700849169865,376.5673454068601,"[6, 0, 248]",248,a,0.126930876635015,colour,0.5
107,19,0,2,5,48,248,377.0827016381081,377.87931866315193,"[43, 0, 211]",211,a,0.2733070848044008,colour,0.5
107,19,0,2,5,49,249,378.39663782017305,379.10331511544064,"[1, 0, 253]",253,a,0.18348550866357982,colour,0.5
107,19,0,2,5,50,250,379.61541266925633,380.68735602498055,"[96, 0, 158]",158,l,0.5486093908548355,colour,0.5
107,19,0,2,6,1,251,385.2708506707568,386.29532028897665,"[16, 0, 238]",238,a,0.5003979809116572,colour,0.5
107,19,0,2,6,2,252,386.8028701094445,387.3513562264852,"[73, 0, 181]",181,l,0.025174207519739866,colour,0.5
107,19,0,2,6,3,253,387.8654379739892,388.4312926756684,"[4, 0, 250]",250,a,0.04282242269255221,colour,0.5
107,19,0,2,6,4,254,388.94448551372625,389.5832673970144,"[60, 0, 194]",194,l,0.11541089694947004,colour,0.5
107,19,0,2,6,5,255,390.100673987763,390.8473234460689,"[40, 0, 214]",214,a,0.22317292145453393,colour,0.5
107,19,0,2,6,6,256,391.36637946148403,392.27928408351727,"[57, 0, 197]",197,l,0.38958444190211594,colour,0.5
107,19,0,2,6,7,257,392.78821275685914,393.3197371319402,"[5, 0, 249]",249,a,0.008258545538410544,colour,0.5
107,19,0,2,6,8,258,393.8507400553208,394.5673166560009,"[34, 0, 220]",220,a,0.19205282884649932,colour,0.5
107,19,0,2,6,9,259,395.08640614850447,395.7832967778668,"[19, 0, 235]",235,a,0.17366260895505548,colour,0.5
107,19,0,2,6,10,260,396.289459080901,396.94335754052736,"[21, 0, 233]",233,a,0.13056803937070072,colour,0.5
107,19,0,2,6,11,261,397.4613560808357,398.0632984477561,"[46, 0, 208]",208,a,0.07876121415756643,colour,0.5
107,19,0,2,6,12,262,398.5707285392564,399.2552685691044,"[72, 0, 182]",182,l,0.15989889204502106,colour,0.5
107,19,0,2,6,13,263,399.77514023846015,400.4152320518624,"[99, 0, 155]",155,l,0.11671137483790517,colour,0.5
107,19,0,2,6,14,264,400.9314063000493,401.61525906971656,"[83, 0, 171]",171,l,0.16048060194589198,colour,0.5
107,19,0,2,6,15,265,402.13468333054334,402.69528413400985,"[52, 0, 202]",202,l,0.037408229196444154,colour,0.5
107,19,0,2,6,16,266,403.2126659124624,403.8632773377467,"[87, 0, 167]",167,l,0.12490729871205986,colour,0.5
107,19,0,2,6,17,267,404.37113711447455,405.7672751448117,"[28, 0, 226]",226,a,0.8736854915041476,colour,0.5
107,19,0,2,6,18,268,406.27651180536486,406.8873011227697,"[8, 0, 246]",246,a,0.08673973544500768,colour,0.5
107,19,0,2,6,19,269,407.4022572070826,408.0232238851022,"[45, 0, 209]",209,a,0.0957536764908582,colour,0.5
107,19,0,2,6,20,270,408.54476506542414,409.1992617761716,"[68, 0, 186]",186,l,0.13123127515427768,colour,0.5
107,19,0,2,6,21,271,409.71662346832454,410.2472884724848,"[11, 0, 243]",243,a,0.007285746978595853,colour,0.5
107,19,0,2,6,22,272,410.76348359463736,411.38346368959174,"[64, 0, 190]",190,l,0.0969974403269589,colour,0.5
107,19,0,2,6,23,273,411.90413959138095,412.7513023484498,"[66, 0, 188]",188,l,0.3238421829883009,colour,0.5
107,19,0,2,6,24,274,413.2647630015854,413.8312872406095,"[50, 0, 204]",204,a,0.04300556075759232,colour,0.5
107,19,0,2,6,25,275,414.3428633431904,415.8872428336181,"[75, 0, 179]",179,l,1.020944701274857,colour,0.5
107,19,0,2,6,26,276,416.4054323891178,417.59124670596793,"[48, 0, 206]",206,a,0.6602535496931523,colour,0.5
107,19,0,2,6,27,277,418.11074028373696,418.8072658185847,"[3, 0, 251]",251,a,0.17395956860855222,colour,0.5
107,19,0,2,6,28,278,419.3138255116064,419.91127370810136,"[70, 0, 184]",184,l,0.0729638091288507,colour,0.5
107,19,0,2,6,29,279,420.4243357896339,421.01529656373896,"[15, 0, 239]",239,a,0.06766540626995265,colour,0.5
107,19,0,2,6,30,280,421.533578672912,422.12725619296543,"[25, 0, 229]",229,a,0.07024470018222928,colour,0.5
107,19,0,2,6,31,281,422.6431141833309,423.1912265410647,"[23, 0, 231]",231,a,0.02476421440951526,colour,0.5
107,19,0,2,6,32,282,423.70558713097125,424.231245177798,"[42, 0, 212]",212,a,0.002341017359867692,colour,0.5
107,19,0,2,6,33,283,424.75242244498804,426.3272434324026,"[58, 0, 196]",196,a,1.0514527580235153,colour,0.5
107,19,0,2,6,34,284,426.85062268935144,427.9432622299064,"[91, 0, 163]",163,l,0.5693047880195081,colour,0.5
107,19,0,2,6,35,285,428.45996501878835,429.0152579669375,"[47, 0, 207]",207,a,0.032024361891672015,colour,0.5
107,19,0,2,6,36,286,429.5224324525334,430.11124795046635,"[96, 0, 158]",158,l,0.06547011155635118,colour,0.5
107,19,0,2,6,37,287,430.6317513480317,431.2392536313273,"[94, 0, 160]",160,l,0.08413917385041714,colour,0.5
107,19,0,2,6,38,288,431.7567720741499,432.3672730966937,"[84, 0, 170]",170,l,0.08726394362747669,colour,0.5
107,19,0,2,6,39,289,432.8817955572158,434.3192361604888,"[79, 0, 175]",175,l,0.914003057172522,colour,0.5
107,19,0,2,6,40,290,434.8362437856849,435.3832175361458,"[55, 0, 199]",199,a,0.023600401123985648,colour,0.5
107,19,0,2,6,41,291,435.89859621669166,436.55124185374007,"[56, 0, 198]",198,a,0.1291564970742911,colour,0.5
107,19,0,2,6,42,292,437.07059758575633,437.62318954174407,"[78, 0, 176]",176,l,0.02941434783861041,colour,0.5
107,19,0,2,6,43,293,438.134414334083,438.67921878397465,"[43, 0, 211]",211,a,0.022221154533326626,colour,0.5
107,19,0,2,6,44,294,439.1969156386331,439.935259683989,"[39, 0, 215]",215,a,0.21497384668327868,colour,0.5
107,19,0,2,6,45,295,440.4468653248623,440.9832316359971,"[81, 0, 173]",173,l,0.01291931257583201,colour,0.5
107,19,0,2,6,46,296,441.49374238657765,442.0872682761401,"[76, 0, 178]",178,l,0.07018129108473659,colour,0.5
107,19,0,2,6,47,297,442.6031286295038,443.66326922457665,"[17, 0, 237]",237,a,0.5354013897012919,colour,0.5
107,19,0,2,6,48,298,444.1824839597102,445.3832175361458,"[31, 0, 223]",223,a,0.6776957833208144,colour,0.5
107,19,0,2,6,49,299,445.9012172583025,446.4712136387825,"[32, 0, 222]",222,a,0.04666556650772691,colour,0.5
107,19,0,2,6,50,300,446.9793120860122,447.83918541739695,"[18, 0, 236]",236,a,0.33676385856233537,colour,0.5
107,19,0,2,7,1,301,452.4025265974924,453.8712389236316,"[30, 0, 224]",224,a,0.9445804306305945,colour,0.5
107,19,0,2,7,2,302,454.3877810235135,455.0792023211252,"[18, 0, 236]",236,a,0.1680770928505808,colour,0.5
107,19,0,2,7,3,303,455.5910167002585,456.13522920035757,"[8, 0, 246]",246,a,0.019514648476615548,colour,0.5
107,19,0,2,7,4,304,456.65483581181616,457.3271678141318,"[72, 0, 182]",182,l,0.14899488678202033,colour,0.5
107,19,0,2,7,5,305,457.8424704822246,458.4151717934292,"[24, 0, 230]",230,a,0.04945162916556001,colour,0.5
107,19,0,2,7,6,306,458.93604776868597,459.85517396754585,"[16, 0, 238]",238,a,0.39575442485511303,colour,0.5
107,19,0,2,7,7,307,460.37355847633444,461.89519851189107,"[52, 0, 202]",202,a,0.9983021321240813,colour,0.5
107,19,0,2,7,8,308,462.4062661600765,462.9831343560945,"[44, 0, 210]",210,a,0.05356888961978257,colour,0.5
107,19,0,2,7,9,309,463.49993600021116,464.0471582671162,"[6, 0, 248]",248,a,0.02500564162619412,colour,0.5
107,19,0,2,7,10,310,464.56207102839835,465.72716316673905,"[88, 0, 166]",166,l,0.6417601427529007,colour,0.5
107,19,0,2,7,11,311,466.233908360824,466.8711573975161,"[98, 0, 156]",156,l,0.11375438282266259,colour,0.5
107,19,0,2,7,12,312,467.39021301921457,467.9195625795983,"[40, 0, 214]",214,a,0.00607073400169611,colour,0.5
107,19,0,2,7,13,313,468.4526387054939,468.99913235846907,"[1, 0, 253]",253,a,0.022958433022722602,colour,0.5
107,19,0,2,7,14,314,469.5164916876238,471.00715814111754,"[73, 0, 181]",181,l,0.9674018053337932,colour,0.5
107,19,0,2,7,15,315,471.51645978633314,472.9111531912349,"[3, 0, 251]",251,a,0.871429544640705,colour,0.5
107,19,0,2,7,16,316,473.42402347014286,474.3831718501169,"[58, 0, 196]",196,l,0.43589751655235887,colour,0.5
107,19,0,2,7,17,317,474.89274997473694,475.43917037243955,"[25, 0, 229]",229,a,0.023304623318836093,colour,0.5
107,19,0,2,7,18,318,475.95523473783396,477.1991125086788,"[32, 0, 222]",222,a,0.7205461692065,colour,0.5
107,19,0,2,7,19,319,477.7065843476448,478.87919302633964,"[53, 0, 201]",201,a,0.6493007075041533,colour,0.5
107,19,0,2,7,20,320,479.3940557693131,480.67115637357347,"[10, 0, 244]",244,a,0.7538032671436667,colour,0.5
107,19,0,2,7,21,321,481.1910619137343,481.7751607184764,"[68, 0, 186]",186,l,0.06076287082396448,colour,0.5
107,19,0,2,7,22,322,482.28480934142135,483.82310982747003,"[35, 0, 219]",219,a,1.0149688844103366,colour,0.5
107,19,0,2,7,23,323,484.3316174799111,485.46319494536147,"[60, 0, 194]",194,l,0.6058587662409991,colour,0.5
107,19,0,2,7,24,324,485.9745571897365,487.27113542100415,"[87, 0, 167]",167,l,0.7732828631997108,colour,0.5
107,19,0,2,7,25,325,487.78708596504293,488.38326676702127,"[51, 0, 203]",203,a,0.07287243707105517,colour,0.5
107,19,0,2,7,26,326,488.8964458205737,490.4951488086954,"[81, 0, 173]",173,l,1.0755750045645982,colour,0.5
107,19,0,2,7,27,327,491.0072310026735,491.6151216174476,"[84, 0, 170]",170,l,0.08490284020081162,colour,0.5
107,19,0,2,7,28,328,492.1322970208712,493.5671071303077,"[95, 0, 159]",159,l,0.9122661985456944,colour,0.5
107,19,0,2,7,29,329,494.08536718413234,494.68711144686677,"[38, 0, 216]",216,a,0.07846661773510277,colour,0.5
107,19,0,2,7,30,330,495.19601688347757,495.9272185412701,"[43, 0, 211]",211,a,0.20800553890876472,colour,0.5
107,19,0,2,7,31,331,496.4461028401274,497.0631696602795,"[33, 0, 221]",221,a,0.09399397484958172,colour,0.5
107,19,0,2,7,32,332,497.5711263231933,498.3751409475226,"[12, 0, 242]",242,a,0.2807535210158676,colour,0.5
107,19,0,2,7,33,333,498.88358597876504,499.66313531715423,"[0, 0, 254]",254,a,0.2562228566966951,colour,0.5
107,19,0,2,7,34,334,500.18073410424404,500.75910797156394,"[57, 0, 197]",197,a,0.055174991488456726,colour,0.5
107,19,0,2,7,35,335,501.27452682424337,501.90305927349254,"[42, 0, 212]",212,a,0.10520872450433671,colour,0.5
107,19,0,2,7,36,336,502.4151131105609,503.23909491160884,"[97, 0, 157]",157,l,0.3006336579564959,colour,0.5
107,19,0,2,7,37,337,503.76128121092916,504.287099158857,"[28, 0, 226]",226,a,0.0026300998870283365,colour,0.5
107,19,0,2,7,38,338,504.80804799566977,505.3590968651697,"[91, 0, 163]",163,l,0.02771844924427569,colour,0.5
107,19,0,2,7,39,339,505.8696883539669,506.6231418864336,"[23, 0, 231]",231,a,0.2305145945865661,colour,0.5
107,19,0,2,7,40,340,507.1350413360633,507.6630860862788,"[93, 0, 161]",161,l,0.01687391451559961,colour,0.5
107,19,0,2,7,41,341,508.1736106215976,508.7271426867228,"[67, 0, 187]",187,a,0.03027844475582242,colour,0.5
107,19,0,2,7,42,342,509.23102541221306,510.47911102790385,"[94, 0, 160]",160,l,0.7246898172888905,colour,0.5
107,19,0,2,7,43,343,510.9966743690893,511.5511587525252,"[83, 0, 171]",171,l,0.031330406200140715,colour,0.5
107,19,0,2,7,44,344,512.0658545049373,512.7590874915477,"[41, 0, 213]",213,a,0.16985688032582402,colour,0.5
107,19,0,2,7,45,345,513.2688952281605,513.8230972243473,"[75, 0, 179]",179,l,0.03070576721802354,colour,0.5
107,19,0,2,7,46,346,514.3313933820464,514.9350477950647,"[36, 0, 218]",218,a,0.08033738378435373,colour,0.5
107,19,0,2,7,47,347,515.456507449504,516.4791000001132,"[65, 0, 189]",189,l,0.4991672136820853,colour,0.5
107,19,0,2,7,48,348,516.9877321079839,518.2951143076643,"[7, 0, 247]",247,a,0.7841014040168375,colour,0.5
107,19,0,2,7,49,349,518.801610985538,519.4950590119697,"[71, 0, 183]",183,l,0.1701640801038593,colour,0.5
107,19,0,2,7,50,350,520.0046331980266,520.5670768043492,"[86, 0, 168]",168,l,0.03907025698572397,colour,0.5
107,19,0,2,8,1,351,524.9580034713726,525.7590272333473,"[53, 0, 201]",201,a,0.27686272165738046,colour,0.5
107,19,0,2,8,2,352,526.2714087497443,526.8470725663938,"[70, 0, 184]",184,l,0.05039213225245476,colour,0.5
107,19,0,2,8,3,353,527.3672022046521,528.4950562550221,"[85, 0, 169]",169,l,0.6043928735889494,colour,0.5
107,19,0,2,8,4,354,529.0077969585545,529.7511404780671,"[48, 0, 206]",206,a,0.2199969517532736,colour,0.5
107,19,0,2,8,5,355,530.2577419185545,530.9990465000737,"[58, 0, 196]",196,a,0.21787294303067029,colour,0.5
107,19,0,2,8,6,356,531.5077621031087,532.5270561983343,"[91, 0, 163]",163,l,0.4959325611125678,colour,0.5
107,19,0,2,8,7,357,533.0404396576341,533.6631073539611,"[0, 0, 254]",254,a,0.09941722685471177,colour,0.5
107,19,0,2,8,8,358,534.1810007377062,534.8070834681857,"[83, 0, 171]",171,l,0.10273025487549603,colour,0.5
107,19,0,2,8,9,359,535.3216484638397,536.4710497991182,"[82, 0, 172]",172,l,0.6261878872755915,colour,0.5
107,19,0,2,8,10,360,536.9792266215663,537.5910623862874,"[63, 0, 191]",191,a,0.08871605200693011,colour,0.5
107,19,0,2,8,11,361,538.1042583752424,538.663068363443,"[31, 0, 223]",223,a,0.03559063235297799,colour,0.5
107,19,0,2,8,12,362,539.1824339414015,539.8070539296605,"[56, 0, 198]",198,a,0.10137109411880374,colour,0.5
107,19,0,2,8,13,363,540.3230450397823,541.127066753339,"[64, 0, 190]",190,a,0.28078463464044034,colour,0.5
107,19,0,2,8,14,364,541.6353932369966,542.3830229765736,"[95, 0, 159]",159,l,0.22455925727263093,colour,0.5
107,19,0,2,8,15,365,542.9013389563188,543.4630267731845,"[86, 0, 168]",168,l,0.038543685572221875,colour,0.5
107,19,0,2,8,16,366,543.9792222892866,544.5830523574259,"[27, 0, 227]",227,a,0.07927636406384408,colour,0.5
107,19,0,2,8,17,367,545.0897963701282,546.1829928080551,"[52, 0, 202]",202,a,0.569850263884291,colour,0.5
107,19,0,2,8,18,368,546.6992032900453,547.9910065389704,"[15, 0, 239]",239,a,0.7684814932290465,colour,0.5
107,19,0,2,8,19,369,548.5117572715972,549.0710375111084,"[2, 0, 252]",252,a,0.0352330207824707,colour,0.5
107,19,0,2,8,20,370,549.5918114804663,550.1590320381802,"[7, 0, 247]",247,a,0.044825126649811864,colour,0.5
107,19,0,2,8,21,371,550.6691036510747,551.3349903724156,"[51, 0, 203]",203,a,0.14247162430547178,colour,0.5
107,19,0,2,8,22,372,551.8531149434857,552.4629929026123,"[45, 0, 209]",209,a,0.08654241892509162,colour,0.5
107,19,0,2,8,23,373,552.9781021927483,553.6790230427869,"[16, 0, 238]",238,a,0.1776534451637417,colour,0.5
107,19,0,2,8,24,374,554.1968333250843,555.0470137258526,"[61, 0, 193]",193,a,0.3268720358610153,colour,0.5
107,19,0,2,8,25,375,555.5562346326187,556.1111538214609,"[72, 0, 182]",182,l,0.03172740223817527,colour,0.5
107,19,0,2,8,26,376,556.6186930080876,557.7350129005499,"[11, 0, 243]",243,a,0.5929024324286729,colour,0.5
107,19,0,2,8,27,377,558.2452077870257,558.8470197911374,"[75, 0, 179]",179,l,0.07867378043010831,colour,0.5
107,19,0,2,8,28,378,559.3545377100818,559.990977000678,"[6, 0, 248]",248,a,0.11280757864005864,colour,0.5
107,19,0,2,8,29,379,560.5110148729291,561.0870075505227,"[68, 0, 186]",186,l,0.05355983134359121,colour,0.5
107,19,0,2,8,30,380,561.6037768991664,563.2469761529937,"[36, 0, 218]",218,a,1.1199208211619407,colour,0.5
107,19,0,2,8,31,381,563.762553331675,564.4630039301701,"[3, 0, 251]",251,a,0.1766975822392851,colour,0.5
107,19,0,2,8,32,382,564.9818929552566,566.3749660800677,"[47, 0, 207]",207,a,0.8697722430806607,colour,0.5
107,19,0,2,8,33,383,566.8857592178974,567.614978651749,"[30, 0, 224]",224,a,0.2061375300399959,colour,0.5
107,19,0,2,8,34,384,568.1357589224353,568.8149698295165,"[49, 0, 205]",205,a,0.1561825661920011,colour,0.5
107,19,0,2,8,35,385,569.3263249846641,570.5510008204728,"[1, 0, 253]",253,a,0.7012178096920252,colour,0.5
107,19,0,2,8,36,386,571.0607837445568,571.8949740200769,"[65, 0, 189]",189,l,0.3108370122499764,colour,0.5
107,19,0,2,8,37,387,572.4045371783432,573.254961369792,"[77, 0, 177]",177,l,0.32710873731411994,colour,0.5
107,19,0,2,8,38,388,573.7639050092548,574.6149810147472,"[33, 0, 221]",221,a,0.3277491298504174,colour,0.5
107,19,0,2,8,39,389,575.1236686548218,575.8789452975616,"[9, 0, 245]",245,a,0.23195882560685277,colour,0.5
107,19,0,2,8,40,390,576.3894079991151,577.2869554052595,"[23, 0, 231]",231,a,0.37432805029675364,colour,0.5
107,19,0,2,8,41,391,577.7956024792511,578.5669421090279,"[4, 0, 250]",250,a,0.24819313548505306,colour,0.5
107,19,0,2,8,42,392,579.0782322797459,579.7189948118757,"[46, 0, 208]",208,a,0.11746519478037953,colour,0.5
107,19,0,2,8,43,393,580.2345259105787,580.8069885512814,"[26, 0, 228]",228,a,0.04916175897233188,colour,0.5
107,19,0,2,8,44,394,581.3281922060996,582.0949533826206,"[93, 0, 161]",161,l,0.24346856563352048,colour,0.5
107,19,0,2,8,45,395,582.6094632397871,583.6469837150071,"[71, 0, 183]",183,l,0.5143011193722486,colour,0.5
107,19,0,2,8,46,396,584.1576846928801,584.7269780593924,"[5, 0, 249]",249,a,0.04618349974043667,colour,0.5
107,19,0,2,8,47,397,585.2358248129021,586.3829253029544,"[96, 0, 158]",158,l,0.6237070546485484,colour,0.5
107,19,0,2,8,48,398,586.892120215809,587.7269882992841,"[99, 0, 155]",155,l,0.3115809862501919,colour,0.5
107,19,0,2,8,49,399,588.2373143364675,589.126968291821,"[89, 0, 165]",165,l,0.36624437221325934,colour,0.5
107,19,0,2,8,50,400,589.6435887671541,590.4549777535722,"[21, 0, 233]",233,a,0.28814048622734845,colour,0.5
107,19,0,2,9,1,401,595.0178026023787,597.3110362980515,"[89, 0, 165]",165,l,1.7678525221999735,colour,0.5
107,19,0,2,9,2,402,597.8185211340897,598.6389669906348,"[90, 0, 164]",164,l,0.29711031657643616,colour,0.5
107,19,0,2,9,3,403,599.1465483186767,599.8389179962687,"[63, 0, 191]",191,a,0.169667046982795,colour,0.5
107,19,0,2,9,4,404,600.3497914785985,601.3509458396584,"[70, 0, 184]",184,l,0.4777908578980714,colour,0.5
107,19,0,2,9,5,405,601.8653430570848,602.6869523334317,"[36, 0, 218]",218,a,0.2985470648854971,colour,0.5
107,19,0,2,9,6,406,603.1934604325797,604.1029256023467,"[52, 0, 202]",202,a,0.38614144502207637,colour,0.5
107,19,0,2,9,7,407,604.6166072026826,605.5588765479624,"[3, 0, 251]",251,a,0.41892356518656015,colour,0.5
107,19,0,2,9,8,408,606.0696661411785,607.1989006197546,"[98, 0, 156]",156,l,0.6058682184666395,colour,0.5
107,19,0,2,9,9,409,607.7103077627253,608.6309140326921,"[25, 0, 229]",229,a,0.3972577329259366,colour,0.5
107,19,0,2,9,10,410,609.1478334364947,610.0309286837,"[74, 0, 180]",180,l,0.36031227209605277,colour,0.5
107,19,0,2,9,11,411,610.5384466026444,611.5989058185369,"[59, 0, 195]",195,l,0.5356034322176129,colour,0.5
107,19,0,2,9,12,412,612.1179307203274,613.2709215630312,"[67, 0, 187]",187,l,0.6295584165491164,colour,0.5
107,19,0,2,9,13,413,613.7897420588415,615.2469025040045,"[68, 0, 186]",186,l,0.9337469236925244,colour,0.5
107,19,0,2,9,14,414,615.7585128711071,616.9029190645088,"[35, 0, 219]",219,a,0.6210548994131386,colour,0.5
107,19,0,2,9,15,415,617.4175411676988,618.0389142942149,"[11, 0, 243]",243,a,0.09946803306229413,colour,0.5
107,19,0,2,9,16,416,618.5567076411098,619.0949718933553,"[78, 0, 176]",176,l,0.014931075274944305,colour,0.5
107,19,0,2,9,17,417,619.6036047886591,620.1588792260736,"[12, 0, 242]",242,a,0.03200585092417896,colour,0.5
107,19,0,2,9,18,418,620.6661387823988,621.3189490470104,"[18, 0, 236]",236,a,0.12952434876933694,colour,0.5
107,19,0,2,9,19,419,621.837901087245,622.5348917536903,"[92, 0, 162]",162,l,0.17366024618968368,colour,0.5
107,19,0,2,9,20,420,623.0426302261185,623.6549110363703,"[31, 0, 223]",223,a,0.08891218714416027,colour,0.5
107,19,0,2,9,21,421,624.1564763749484,624.9028800737578,"[6, 0, 248]",248,a,0.2288399636745453,colour,0.5
107,19,0,2,9,22,422,625.4169326764531,626.1988722628448,"[21, 0, 233]",233,a,0.25863082776777446,colour,0.5
107,19,0,2,9,23,423,626.7149838898331,627.3828756783623,"[22, 0, 232]",232,a,0.14450150378979743,colour,0.5
107,19,0,2,9,24,424,627.9025098590646,628.4708835962228,"[77, 0, 177]",177,l,0.045006295666098595,colour,0.5
107,19,0,2,9,25,425,628.9806712465361,630.2788874811959,"[40, 0, 214]",214,a,0.7748606083914638,colour,0.5
107,19,0,2,9,26,426,630.7931125883479,631.6308714973275,"[20, 0, 234]",234,a,0.31438359059393406,colour,0.5
107,19,0,2,9,27,427,632.136894379044,633.0948360166512,"[54, 0, 200]",200,a,0.43468644190579653,colour,0.5
107,19,0,2,9,28,428,633.6056992588565,634.3188990287017,"[41, 0, 213]",213,a,0.19071532972157001,colour,0.5
107,19,0,2,9,29,429,634.8399782283232,635.7028621144127,"[39, 0, 215]",215,a,0.33962553972378373,colour,0.5
107,19,0,2,9,30,430,636.2163688472938,637.2708345230203,"[10, 0, 244]",244,a,0.5311163510195911,colour,0.5
107,19,0,2,9,31,431,637.779897497734,638.8628677383531,"[44, 0, 210]",210,a,0.5599025152623653,colour,0.5
107,19,0,2,9,32,432,639.3736364578363,640.4548792922869,"[82, 0, 172]",172,l,0.5634286138229072,colour,0.5
107,19,0,2,9,33,433,640.9618773353286,641.7428563327994,"[75, 0, 179]",179,l,0.2578321092296392,colour,0.5
107,19,0,2,9,34,434,642.2586973877624,642.7908479769249,"[71, 0, 183]",183,l,0.008694138377904892,colour,0.5
107,19,0,2,9,35,435,643.3055697230157,643.902841870673,"[80, 0, 174]",174,l,0.0739858380984515,colour,0.5
107,19,0,2,9,36,436,644.4149461199995,644.958884897409,"[34, 0, 220]",220,a,0.020617809612303972,colour,0.5
107,19,0,2,9,37,437,645.4774478184991,646.0868964861147,"[0, 0, 254]",254,a,0.08617968740873039,colour,0.5
107,19,0,2,9,38,438,646.6024437323213,647.2068121873308,"[65, 0, 189]",189,l,0.07961940346285701,colour,0.5
107,19,0,2,9,39,439,647.7142985987011,648.7348254299723,"[15, 0, 239]",239,a,0.4971857771743089,colour,0.5
107,19,0,2,9,40,440,649.2455149863381,650.0468518554699,"[42, 0, 212]",212,a,0.27887921035289764,colour,0.5
107,19,0,2,9,41,441,650.5570884896442,651.5508889683988,"[47, 0, 207]",207,a,0.46899274433963,colour,0.5
107,19,0,2,9,42,442,652.0584927455056,652.8548285649158,"[17, 0, 237]",237,a,0.2730286361183971,colour,0.5
107,19,0,2,9,43,443,653.3723194387276,653.9828385780565,"[84, 0, 170]",170,l,0.08714067004621029,colour,0.5
107,19,0,2,9,44,444,654.497383093927,655.1188412909396,"[43, 0, 211]",211,a,0.09810650907456875,colour,0.5
107,19,0,2,9,45,445,655.6379630786832,656.1828407836147,"[29, 0, 225]",225,a,0.02150829415768385,colour,0.5
107,19,0,2,9,46,446,656.7014269414358,657.7428512126207,"[86, 0, 168]",168,l,0.5180977894924581,colour,0.5
107,19,0,2,9,47,447,658.2639485292602,658.9188241192605,"[60, 0, 194]",194,a,0.13153177918866277,colour,0.5
107,19,0,2,9,48,448,659.4357466739602,660.1028310793918,"[91, 0, 163]",163,l,0.14364134543575346,colour,0.5
107,19,0,2,9,49,449,660.6232576770708,661.190826788079,"[79, 0, 175]",175,l,0.044247749261558056,colour,0.5
107,19,0,2,9,50,450,661.7038207342848,662.3748313849792,"[57, 0, 197]",197,a,0.14774403348565102,colour,0.5
107,19,0,2,10,1,451,666.7810510711279,667.566831832286,"[99, 0, 155]",155,l,0.26167131471447647,colour,0.5
107,19,0,2,10,2,452,668.0801526703872,668.7908208016306,"[33, 0, 221]",221,a,0.18738536653108895,colour,0.5
107,19,0,2,10,3,453,669.2988373287953,670.2548377022613,"[97, 0, 157]",157,l,0.4325860640965402,colour,0.5
107,19,0,2,10,4,454,670.7676713534165,671.5428281333297,"[90, 0, 164]",164,l,0.2519023718778044,colour,0.5
107,19,0,2,10,5,455,672.0488584979903,672.7188041906338,"[84, 0, 170]",170,l,0.14665583847090602,colour,0.5
107,19,0,2,10,6,456,673.2362781290431,673.9027887014672,"[26, 0, 228]",228,a,0.1406162183266133,colour,0.5
107,19,0,2,10,7,457,674.4106701398268,675.6067819399759,"[54, 0, 200]",200,a,0.6727585368789732,colour,0.5
107,19,0,2,10,8,458,676.113786284579,676.9349178262055,"[1, 0, 253]",253,a,0.2983891328331083,colour,0.5
107,19,0,2,10,9,459,677.4419032661244,678.2228058574256,"[4, 0, 250]",250,a,0.25619607511907816,colour,0.5
107,19,0,2,10,10,460,678.7401974820532,679.4068080913275,"[51, 0, 203]",203,a,0.1432923984248191,colour,0.5
107,19,0,2,10,11,461,679.9276576789562,680.9347661957145,"[0, 0, 254]",254,a,0.4837662810459733,colour,0.5
107,19,0,2,10,12,462,681.4432718791068,682.4388415114954,"[35, 0, 219]",219,a,0.4720919141545892,colour,0.5
107,19,0,2,10,13,463,682.9608809063211,683.8387706980575,"[92, 0, 162]",162,l,0.3544345225673169,colour,0.5
107,19,0,2,10,14,464,684.350246764021,685.206783042755,"[75, 0, 179]",179,l,0.3331865603104234,colour,0.5
107,19,0,2,10,15,465,685.7252175700851,686.454774923157,"[10, 0, 244]",244,a,0.20618951763026416,colour,0.5
107,19,0,2,10,16,466,686.9752507514786,687.6307328636758,"[16, 0, 238]",238,a,0.1321902887430042,colour,0.5
107,19,0,2,10,17,467,688.1470965517219,688.758870876627,"[55, 0, 199]",199,a,0.08917488204315305,colour,0.5
107,19,0,2,10,18,468,689.2721015240531,689.9107943980489,"[96, 0, 158]",158,l,0.1153344907797873,colour,0.5
107,19,0,2,10,19,469,690.4283849147614,691.4707437811885,"[17, 0, 237]",237,a,0.5191446307580918,colour,0.5
107,19,0,2,10,20,470,691.9769911547191,692.6547881565057,"[94, 0, 160]",160,l,0.15461269835941494,colour,0.5
107,19,0,2,10,21,471,693.1644781331997,694.1507545881905,"[32, 0, 222]",222,a,0.4628633272368461,colour,0.5
107,19,0,2,10,22,472,694.6644247670192,695.358728619758,"[82, 0, 172]",172,l,0.1709746140986681,colour,0.5
107,19,0,2,10,23,473,695.8675769485999,696.4547418402508,"[29, 0, 225]",225,a,0.06421177531592548,colour,0.5
107,19,0,2,10,24,474,696.9612101609819,697.6308049373329,"[18, 0, 236]",236,l,0.14619858376681805,colour,0.5
107,19,0,2,10,25,475,698.1503205704503,698.8068050192669,"[49, 0, 205]",205,a,0.1338310488499701,colour,0.5
107,19,0,2,10,26,476,699.3220879952423,700.0787261619698,"[67, 0, 187]",187,l,0.23333098320290446,colour,0.5
107,19,0,2,10,27,477,700.5877233645879,701.2547179732937,"[50, 0, 204]",204,a,0.14373193006031215,colour,0.5
107,19,0,2,10,28,478,701.7775875942316,703.0307841424365,"[28, 0, 226]",226,a,0.7297708173282444,colour,0.5
107,19,0,2,10,29,479,703.5432483665645,704.1507601020858,"[41, 0, 213]",213,a,0.08526478428393602,colour,0.5
107,19,0,2,10,30,480,704.6544462987222,705.4787817730103,"[9, 0, 245]",245,a,0.3039915843401104,colour,0.5
107,19,0,2,10,31,481,705.995928031858,706.6228161761537,"[59, 0, 195]",195,a,0.10420520603656769,colour,0.5
107,19,0,2,10,32,482,707.1378687527031,707.9187863101251,"[47, 0, 207]",207,a,0.2579731058795005,colour,0.5
107,19,0,2,10,33,483,708.4348447679076,709.1667809474748,"[79, 0, 175]",175,l,0.20859355037100613,colour,0.5
107,19,0,2,10,34,484,709.6836845974904,710.3107428832445,"[23, 0, 231]",231,a,0.10363176721148193,colour,0.5
107,19,0,2,10,35,485,710.8123330341186,711.4628188228235,"[19, 0, 235]",235,a,0.12740112794563174,colour,0.5
107,19,0,2,10,36,486,711.9843084092718,712.7427791389637,"[73, 0, 181]",181,l,0.23521002009510994,colour,0.5
107,19,0,2,10,37,487,713.2498732802924,714.0227177937049,"[70, 0, 184]",184,l,0.2494223271496594,colour,0.5
107,19,0,2,10,38,488,714.5311088680755,715.534757058369,"[68, 0, 186]",186,a,0.4802334872074425,colour,0.5
107,19,0,2,10,39,489,716.0481771454215,716.6867250844371,"[53, 0, 201]",201,a,0.11534670018590987,colour,0.5
107,19,0,2,10,40,490,717.2043049670756,717.8947314112447,"[44, 0, 210]",210,a,0.16716730990447104,colour,0.5
107,19,0,2,10,41,491,718.407612323761,719.2387432076503,"[25, 0, 229]",229,a,0.30794973112642765,colour,0.5
107,19,0,2,10,42,492,719.7512223978993,720.9267207207158,"[36, 0, 218]",218,a,0.652210044208914,colour,0.5
107,19,0,2,10,43,493,721.4387131179683,722.0707492162473,"[74, 0, 180]",180,l,0.10744773573242128,colour,0.5
107,19,0,2,10,44,494,722.5807664783206,723.5587127082981,"[64, 0, 190]",190,l,0.4546516495756805,colour,0.5
107,19,0,2,10,45,495,724.0651235277764,724.8147213130724,"[86, 0, 168]",168,l,0.22626342670992017,colour,0.5
107,19,0,2,10,46,496,725.3307419614866,726.0547193123493,"[12, 0, 242]",242,a,0.2005984876304865,colour,0.5
107,19,0,2,10,47,497,726.5651304200292,727.2707340924535,"[22, 0, 232]",232,a,0.18231460615061224,colour,0.5
107,19,0,2,10,48,498,727.7850801101886,728.934725235682,"[58, 0, 196]",196,a,0.6261898563243449,colour,0.5
107,19,0,2,10,49,499,729.4413463685196,730.2787204906344,"[89, 0, 165]",165,l,0.31390546215698123,colour,0.5
107,19,0,2,10,50,500,730.7850493902806,731.4146850004327,"[42, 0, 212]",212,a,0.10619885171763599,colour,0.5
107,19,0,2,11,1,501,757.0874104544055,758.094686355209,"[81, 0, 173]",173,l,0.4832231681793928,colour,0.5
107,19,0,2,11,2,502,758.6043924796395,760.1826206240803,"[35, 0, 219]",219,a,1.0552773913368583,colour,0.5
107,19,0,2,11,3,503,760.6981166703627,761.5426134876907,"[19, 0, 235]",235,a,0.3214200334623456,colour,0.5
107,19,0,2,11,4,504,762.0589078587946,762.7906746848021,"[21, 0, 233]",233,a,0.208495088852942,colour,0.5
107,19,0,2,11,5,505,763.3087838958018,764.0306199088227,"[94, 0, 160]",160,l,0.19839964830316603,colour,0.5
107,19,0,2,11,6,506,764.5431617205031,765.1026144642383,"[0, 0, 254]",254,a,0.03602268057875335,colour,0.5
107,19,0,2,11,7,507,765.6212864804547,766.6866325307637,"[26, 0, 228]",228,a,0.5420010578818619,colour,0.5
107,19,0,2,11,8,508,767.200782019645,768.0546499954071,"[56, 0, 198]",198,l,0.3305206203367561,colour,0.5
107,19,0,2,11,9,509,768.5757945734076,769.4226678539999,"[66, 0, 188]",188,l,0.3235783064737916,colour,0.5
107,19,0,2,11,10,510,769.9350470073987,770.6866100816987,"[38, 0, 216]",216,a,0.2282940938603133,colour,0.5
107,19,0,2,11,11,511,771.2024444411509,771.9986215408426,"[60, 0, 194]",194,a,0.28438871423713863,colour,0.5
107,19,0,2,11,12,512,772.5178725100122,773.478633687133,"[63, 0, 191]",191,l,0.43739255401305854,colour,0.5
107,19,0,2,11,13,513,773.9866726635955,774.742600726895,"[20, 0, 234]",234,a,0.23279929184354842,colour,0.5
107,19,0,2,11,14,514,775.2522024821956,776.0146660171449,"[40, 0, 214]",214,a,0.23899684404022992,colour,0.5
107,19,0,2,11,15,515,776.5334597316105,777.4066052609123,"[43, 0, 211]",211,a,0.34940196527168155,colour,0.5
107,19,0,2,11,16,516,777.9244230263866,778.86259756051,"[49, 0, 205]",205,a,0.41482481569983065,colour,0.5
107,19,0,2,11,17,517,779.3789403745905,780.2705990034156,"[36, 0, 218]",218,a,0.36853852216154337,colour,0.5
107,19,0,2,11,18,518,780.7851604546886,781.8545902885962,"[58, 0, 196]",196,a,0.5460734199732542,colour,0.5
107,19,0,2,11,19,519,782.3633440944832,783.2145666105207,"[88, 0, 166]",166,l,0.3278645265381783,colour,0.5
107,19,0,2,11,20,520,783.7227178330068,784.7106066914275,"[65, 0, 189]",189,l,0.46463326876983047,colour,0.5
107,19,0,2,11,21,521,785.2241665935144,786.0465982190799,"[37, 0, 217]",217,a,0.29984202864579856,colour,0.5
107,19,0,2,11,22,522,786.5678975782357,787.5985934990458,"[67, 0, 187]",187,l,0.5073773160111159,colour,0.5
107,19,0,2,11,23,523,788.1161158804316,788.870622161543,"[18, 0, 236]",236,a,0.2311998854856938,colour,0.5
107,19,0,2,11,24,524,789.3817351020407,790.2225793963298,"[44, 0, 210]",210,a,0.3174646436236799,colour,0.5
107,19,0,2,11,25,525,790.7410828466527,791.5026216323022,"[59, 0, 195]",195,a,0.23810635949485004,colour,0.5
107,19,0,2,11,26,526,792.0238847576547,793.0465533207171,"[24, 0, 230]",230,a,0.4996563699096441,colour,0.5
107,19,0,2,11,27,527,793.5551232008729,794.3345973147079,"[73, 0, 181]",181,l,0.2561909551732242,colour,0.5
107,19,0,2,11,28,528,794.8519243486226,795.7825866746716,"[98, 0, 156]",156,l,0.4073783797211945,colour,0.5
107,19,0,2,11,29,529,796.2894862561952,797.3428519216832,"[97, 0, 157]",157,l,0.5300187037792057,colour,0.5
107,19,0,2,11,30,530,797.8534619212151,798.6305568148382,"[12, 0, 242]",242,a,0.25391255924478173,colour,0.5
107,19,0,2,11,31,531,799.1501764231361,800.0145415619481,"[72, 0, 182]",182,l,0.3413194688037038,colour,0.5
107,19,0,2,11,32,532,800.5252224537544,801.2785491677932,"[99, 0, 155]",155,l,0.2300451307091862,colour,0.5
107,19,0,2,11,33,533,801.7908593984321,802.8625822004396,"[41, 0, 213]",213,a,0.5484164063818753,colour,0.5
107,19,0,2,11,34,534,803.3712855943013,804.1265882311855,"[46, 0, 208]",208,a,0.2331762022804469,colour,0.5
107,19,0,2,11,35,535,804.635709494818,805.7665977305733,"[42, 0, 212]",212,a,0.6075424554292113,colour,0.5
107,19,0,2,11,36,536,806.2761939719785,806.8305826510768,"[31, 0, 223]",223,a,0.04418237088248134,colour,0.5
107,19,0,2,11,37,537,807.341930716997,807.8785605106968,"[82, 0, 172]",172,l,0.013483693124726415,colour,0.5
107,19,0,2,11,38,538,808.388841255568,809.5825450844131,"[39, 0, 215]",215,a,0.6707058143801987,colour,0.5
107,19,0,2,11,39,539,810.0897951885127,810.7025592471473,"[84, 0, 170]",170,l,0.08954076422378421,colour,0.5
107,19,0,2,11,40,540,811.2147540808655,811.902563421987,"[61, 0, 193]",193,a,0.17607530648820102,colour,0.5
107,19,0,2,11,41,541,812.4220743288752,813.2145996936597,"[4, 0, 250]",250,a,0.26921621221117675,colour,0.5
107,19,0,2,11,42,542,813.7345182306599,814.4145412468351,"[91, 0, 163]",163,l,0.1566362762823701,colour,0.5
107,19,0,2,11,43,543,814.9340387631673,815.5185310195666,"[14, 0, 240]",240,a,0.06109488266520202,colour,0.5
107,19,0,2,11,44,544,816.0424112479668,816.7505150514189,"[55, 0, 199]",199,a,0.1847639309708029,colour,0.5
107,19,0,2,11,45,545,817.2612376909237,818.0625887382776,"[15, 0, 239]",239,a,0.27605297532863915,colour,0.5
107,19,0,2,11,46,546,818.5763534400612,819.374539939221,"[74, 0, 180]",180,l,0.27477967296727,colour,0.5
107,19,0,2,11,47,547,819.8888705968857,820.6305359411053,"[92, 0, 162]",162,l,0.218296327162534,colour,0.5
107,19,0,2,11,48,548,821.1388927507214,822.1825650918763,"[77, 0, 177]",177,l,0.5203635822981596,colour,0.5
107,19,0,2,11,49,549,822.7013729847968,823.438522890443,"[17, 0, 237]",237,a,0.2138470548670739,colour,0.5
107,19,0,2,11,50,550,823.9529846988153,824.5665785898454,"[62, 0, 192]",192,a,0.09035090450197458,colour,0.5
107,19,0,2,12,1,551,828.920721272938,829.9265427025966,"[33, 0, 221]",221,a,0.4795048732776195,colour,0.5
107,19,0,2,12,2,552,830.4392711969558,831.1665647262707,"[6, 0, 248]",248,a,0.20388237084262073,colour,0.5
107,19,0,2,12,3,553,831.6737620551139,832.3104786127806,"[89, 0, 165]",165,l,0.11349011259153485,colour,0.5
107,19,0,2,12,4,554,832.8299572244287,833.3905414864421,"[79, 0, 175]",175,l,0.03735860460437834,colour,0.5
107,19,0,2,12,5,555,833.9080729261041,834.6705392177682,"[2, 0, 252]",252,a,0.23941353266127408,colour,0.5
107,19,0,2,12,6,556,835.1892651908565,836.0225346554071,"[17, 0, 237]",237,a,0.30978977703489363,colour,0.5
107,19,0,2,12,7,557,836.5330296522006,837.3264955198392,"[80, 0, 174]",174,l,0.2686601022724062,colour,0.5
107,19,0,2,12,8,558,837.8470891080797,838.4544787514023,"[91, 0, 163]",163,l,0.08412578306160867,colour,0.5
107,19,0,2,12,9,559,838.9720003451221,839.6144993416965,"[26, 0, 228]",228,a,0.11909335199743509,colour,0.5
107,19,0,2,12,10,560,840.1282786156517,840.846567656612,"[31, 0, 223]",223,a,0.1952603063546121,colour,0.5
107,19,0,2,12,11,561,841.362640686566,841.9985171719454,"[42, 0, 212]",212,a,0.11277567711658776,colour,0.5
107,19,0,2,12,12,562,842.5189000526443,843.2785026940983,"[37, 0, 217]",217,a,0.23614107072353363,colour,0.5
107,19,0,2,12,13,563,843.8001088588499,844.510508781299,"[71, 0, 183]",183,l,0.18555516633205116,colour,0.5
107,19,0,2,12,14,564,845.0203468438704,845.8465377243701,"[62, 0, 192]",192,l,0.3027608173433691,colour,0.5
107,19,0,2,12,15,565,846.3641479332,846.9345306761097,"[3, 0, 251]",251,a,0.04703617515042424,colour,0.5
107,19,0,2,12,16,566,847.4423018377274,848.4625088665634,"[32, 0, 222]",222,a,0.49683958711102605,colour,0.5
107,19,0,2,12,17,567,848.9735643053427,849.5824651338626,"[38, 0, 216]",216,a,0.08561254967935383,colour,0.5
107,19,0,2,12,18,568,850.0985133515205,851.0385310824495,"[14, 0, 240]",240,a,0.41662744618952274,colour,0.5
107,19,0,2,12,19,569,851.5516719331499,852.5584842779208,"[98, 0, 156]",156,l,0.48220665310509503,colour,0.5
107,19,0,2,12,20,570,853.0686295400374,853.974444943713,"[40, 0, 214]",214,a,0.3824266945011914,colour,0.5
107,19,0,2,12,21,571,854.4905581460334,855.310550292721,"[69, 0, 185]",185,l,0.2966550311539322,colour,0.5
107,19,0,2,12,22,572,855.818621170707,856.3425269990694,"[48, 0, 206]",206,a,0.0006411804351955652,colour,0.5
107,19,0,2,12,23,573,856.8655281644315,857.4864956301171,"[52, 0, 202]",202,a,0.09799032472074032,colour,0.5
107,19,0,2,12,24,574,858.0073479746934,858.6385042222682,"[84, 0, 170]",170,l,0.10767065221443772,colour,0.5
107,19,0,2,12,25,575,859.1481252759695,860.1345068877563,"[65, 0, 189]",189,a,0.4631472898181528,colour,0.5
107,19,0,2,12,26,576,860.6504247426055,862.014468700625,"[7, 0, 247]",247,a,0.8406969963107258,colour,0.5
107,19,0,2,12,27,577,862.5255170501769,863.2944829734042,"[93, 0, 161]",161,l,0.24570206296630204,colour,0.5
107,19,0,2,12,28,578,863.8068132901099,864.7024529089686,"[76, 0, 178]",178,l,0.37249588151462376,colour,0.5
107,19,0,2,12,29,579,865.2128998565022,866.054490094306,"[49, 0, 205]",205,a,0.3184697371907532,colour,0.5
107,19,0,2,12,30,580,866.5722802903038,867.5664781590458,"[54, 0, 200]",200,a,0.4684653850272298,colour,0.5
107,19,0,2,12,31,581,868.0746451355517,869.2945058166515,"[29, 0, 225]",225,a,0.6964853627141565,colour,0.5
107,19,0,2,12,32,582,869.8078420143574,870.6385069792159,"[83, 0, 171]",171,l,0.307344390777871,colour,0.5
107,19,0,2,12,33,583,871.1516584635247,872.4464391842484,"[99, 0, 155]",155,l,0.7715802695602179,colour,0.5
107,19,0,2,12,34,584,872.9640852329321,873.7504370699171,"[22, 0, 232]",232,a,0.2629686414729804,colour,0.5
107,19,0,2,12,35,585,874.2610391927883,875.3904725634493,"[81, 0, 173]",173,l,0.606199836358428,colour,0.5
107,19,0,2,12,36,586,875.9016126790084,876.7344819968566,"[55, 0, 199]",199,a,0.30956449755467474,colour,0.5
107,19,0,2,12,37,587,877.245322002098,877.9824411880691,"[88, 0, 166]",166,l,0.21106729353778064,colour,0.5
107,19,0,2,12,38,588,878.4980282126926,879.254498207476,"[19, 0, 235]",235,a,0.23320298362523317,colour,0.5
107,19,0,2,12,39,589,879.762202021433,880.390436329646,"[24, 0, 230]",230,a,0.10506575834006071,colour,0.5
107,19,0,2,12,40,590,880.9028773168102,881.7264483370818,"[36, 0, 218]",218,a,0.3003433938138187,colour,0.5
107,19,0,2,12,41,591,882.233469223138,883.1264594437089,"[70, 0, 184]",184,a,0.36978622479364276,colour,0.5
107,19,0,2,12,42,592,883.639593204949,884.4704684831668,"[60, 0, 194]",194,a,0.3074739659205079,colour,0.5
107,19,0,2,12,43,593,884.983404927887,885.9904480662663,"[28, 0, 226]",226,a,0.48379503190517426,colour,0.5
107,19,0,2,12,44,594,886.4990596941207,887.2224037412088,"[85, 0, 169]",169,l,0.19860444799996912,colour,0.5
107,19,0,2,12,45,595,887.7347761993296,888.5504218675196,"[78, 0, 176]",176,l,0.2922136359848082,colour,0.5
107,19,0,2,12,46,596,889.0628955438733,889.7424104996026,"[0, 0, 254]",254,a,0.15630347677506506,colour,0.5
107,19,0,2,12,47,597,890.2505195806734,891.2544225892052,"[51, 0, 203]",203,a,0.4783776877447963,colour,0.5
107,19,0,2,12,48,598,891.7682896906044,892.7584018066991,"[1, 0, 253]",253,a,0.46672104368917644,colour,0.5
107,19,0,2,12,49,599,893.268263499951,894.1503792535514,"[73, 0, 181]",181,l,0.3594824399333447,colour,0.5
107,19,0,2,12,50,600,894.6589920627885,895.6464701404329,"[18, 0, 236]",236,a,0.4640665252227336,colour,0.5
107,19,0,2,13,1,601,900.0824999893084,901.0704329581931,"[99, 0, 155]",155,l,0.4638227347750217,colour,0.5
107,19,0,2,13,2,602,901.5832780308556,902.3744249364827,"[64, 0, 190]",190,a,0.26657350920140743,colour,0.5
107,19,0,2,13,3,603,902.8814603947103,903.6784137638751,"[77, 0, 177]",177,l,0.2736591827124357,colour,0.5
107,19,0,2,13,4,604,904.185531929601,905.358422995545,"[94, 0, 160]",160,l,0.6576013944577426,colour,0.5
107,19,0,2,13,5,605,905.8669802728109,906.9904386138078,"[58, 0, 196]",196,a,0.6003579266835004,colour,0.5
107,19,0,2,13,6,606,907.5076809709426,909.2223966519814,"[46, 0, 208]",208,a,1.191248202463612,colour,0.5
107,19,0,2,13,7,607,909.7420749433804,911.1103653428145,"[31, 0, 223]",223,a,0.8449473762884736,colour,0.5
107,19,0,2,13,8,608,911.6170542172622,912.3183744265698,"[9, 0, 245]",245,a,0.17663338547572494,colour,0.5
107,19,0,2,13,9,609,912.8372102824505,913.4223708945792,"[16, 0, 238]",238,a,0.061845158226788044,colour,0.5
107,19,0,2,13,10,610,913.9309096608777,914.5263846917078,"[20, 0, 234]",234,a,0.07212491822429001,colour,0.5
107,19,0,2,13,11,611,915.0402529749554,915.6304154242389,"[82, 0, 172]",172,l,0.06670718011446297,colour,0.5
107,19,0,2,13,12,612,916.1496266147587,916.6783653208986,"[2, 0, 252]",252,a,0.00534605816937983,colour,0.5
107,19,0,2,13,13,613,917.1965580270626,917.8383717327379,"[56, 0, 198]",198,a,0.11867666360922158,colour,0.5
107,19,0,2,13,14,614,918.3526374057401,919.5663517348003,"[60, 0, 194]",194,a,0.6906611758749932,colour,0.5
107,19,0,2,13,15,615,920.0736683986615,921.0464024778921,"[10, 0, 244]",244,a,0.44943674211390316,colour,0.5
107,19,0,2,13,16,616,921.5568663608283,922.1823587168474,"[34, 0, 220]",220,a,0.10209025605581701,colour,0.5
107,19,0,2,13,17,617,922.6975357483607,923.6143650403246,"[4, 0, 250]",250,a,0.3935146254952997,colour,0.5
107,19,0,2,13,18,618,924.1350472436752,924.7823700595181,"[13, 0, 241]",241,a,0.12273366539739072,colour,0.5
107,19,0,2,13,19,619,925.2926035430282,926.0383696057834,"[27, 0, 227]",227,a,0.2224313102196902,colour,0.5
107,19,0,2,13,20,620,926.5583338290453,927.0943602512125,"[78, 0, 176]",176,l,0.013015804579481483,colour,0.5
107,19,0,2,13,21,621,927.6048457957804,928.302402417874,"[66, 0, 188]",188,l,0.174222263507545,colour,0.5
107,19,0,2,13,22,622,928.8237447063439,929.446375775151,"[55, 0, 199]",199,a,0.09947157767601311,colour,0.5
107,19,0,2,13,23,623,929.9658921959344,930.5663241655566,"[57, 0, 197]",197,a,0.07709800498560071,colour,0.5
107,19,0,2,13,24,624,931.0752745005302,931.6944027077407,"[19, 0, 235]",235,a,0.09569893195293844,colour,0.5
107,19,0,2,13,25,625,932.2158792973496,932.8462978724856,"[33, 0, 221]",221,a,0.10705782868899405,colour,0.5
107,19,0,2,13,26,626,933.3564781867899,933.9183467784896,"[69, 0, 185]",185,l,0.03838851023465395,colour,0.5
107,19,0,2,13,27,627,934.435064927442,935.0383345535956,"[47, 0, 207]",207,a,0.07987067685462534,colour,0.5
107,19,0,2,13,28,628,935.5599836476613,936.854338621255,"[87, 0, 167]",167,l,0.770867015235126,colour,0.5
107,19,0,2,13,29,629,937.3729267483577,937.9027890954167,"[30, 0, 224]",224,a,0.006433071801438928,colour,0.5
107,19,0,2,13,30,630,938.4353670068085,939.4703483602498,"[83, 0, 171]",171,l,0.511607610154897,colour,0.5
107,19,0,2,13,31,631,939.9822056684643,940.5983170196414,"[41, 0, 213]",213,a,0.09298612433485687,colour,0.5
107,19,0,2,13,32,632,941.1086095799692,942.1023828831967,"[45, 0, 209]",209,a,0.4704224031884223,colour,0.5
107,19,0,2,13,33,633,942.6086085953284,943.1903179397341,"[50, 0, 204]",204,a,0.05835608136840165,colour,0.5
107,19,0,2,13,34,634,943.7025513702538,944.3183307095896,"[89, 0, 165]",165,l,0.09283961378969252,colour,0.5
107,19,0,2,13,35,635,944.8285181131214,945.3822943624109,"[38, 0, 216]",216,a,0.030584462685510516,colour,0.5
107,19,0,2,13,36,636,945.8909548271913,946.4783363337629,"[84, 0, 170]",170,l,0.06431929511018097,colour,0.5
107,19,0,2,13,37,637,946.9847499101888,948.2063285452314,"[12, 0, 242]",242,a,0.6983667623717338,colour,0.5
107,19,0,2,13,38,638,948.7256216555834,949.4542885241099,"[95, 0, 159]",159,l,0.2054995005019009,colour,0.5
107,19,0,2,13,39,639,949.9755583449733,950.6063246855047,"[75, 0, 179]",179,l,0.10740716964937747,colour,0.5
107,19,0,2,13,40,640,951.1161406927276,951.686333996011,"[93, 0, 161]",161,l,0.04684397857636213,colour,0.5
107,19,0,2,13,41,641,952.1942886896431,952.7582749885041,"[80, 0, 174]",174,l,0.04080002615228295,colour,0.5
107,19,0,2,13,42,642,953.272378397407,953.8303325593006,"[21, 0, 233]",233,a,0.03538189432583749,colour,0.5
107,19,0,2,13,43,643,954.350516941864,955.142305421643,"[52, 0, 202]",202,a,0.2684293088968843,colour,0.5
107,19,0,2,13,44,644,955.6630061357282,956.5902711509261,"[44, 0, 210]",210,a,0.40401100111193955,colour,0.5
107,19,0,2,13,45,645,957.1017972349655,957.7262911929283,"[74, 0, 180]",180,l,0.10112336557358503,colour,0.5
107,19,0,2,13,46,646,958.242485527182,958.8063320110086,"[91, 0, 163]",163,l,0.04056017426773906,colour,0.5
107,19,0,2,13,47,647,959.3205000103917,959.8703220514581,"[39, 0, 215]",215,a,0.026459325570613146,colour,0.5
107,19,0,2,13,48,648,960.3831025334075,961.2222804676276,"[7, 0, 247]",247,a,0.31587902177125216,colour,0.5
107,19,0,2,13,49,649,961.7446707787458,962.4702928280458,"[8, 0, 246]",246,a,0.20266656996682286,colour,0.5
107,19,0,2,13,50,650,962.9790505724959,963.5742751176003,"[48, 0, 206]",206,a,0.07238958240486681,colour,0.5
107,19,0,2,14,1,651,968.3678524433635,969.2942958970089,"[56, 0, 198]",198,a,0.4022150656674057,colour,0.5
107,19,0,2,14,2,652,969.8086281300057,970.7902761131991,"[13, 0, 241]",241,a,0.45837112609297037,colour,0.5
107,19,0,2,14,3,653,971.3073432091624,972.0142650825437,"[5, 0, 249]",249,a,0.1830156510695815,colour,0.5
107,19,0,2,14,4,654,972.5265579838306,973.2462688067462,"[37, 0, 217]",217,a,0.1963807966094464,colour,0.5
107,19,0,2,14,5,655,973.7609397468623,974.3502353422809,"[64, 0, 190]",190,a,0.06602464593015611,colour,0.5
107,19,0,2,14,6,656,974.8564685375895,975.5102445110679,"[65, 0, 189]",189,l,0.13040341180749238,colour,0.5
107,19,0,2,14,7,657,976.0284557279665,977.1502642505802,"[12, 0, 242]",242,a,0.5989522922318429,colour,0.5
107,19,0,2,14,8,658,977.6689445376396,978.6382497979794,"[7, 0, 247]",247,a,0.4453848598059267,colour,0.5
107,19,0,2,14,9,659,979.153400835814,979.7982644806616,"[54, 0, 200]",200,a,0.12164271366782486,colour,0.5
107,19,0,2,14,10,660,980.3095743437298,981.3422619411722,"[99, 0, 155]",155,l,0.5092213007155806,colour,0.5
107,19,0,2,14,11,661,981.8565118603874,982.5182466630358,"[51, 0, 203]",203,a,0.13839335460215807,colour,0.5
107,19,0,2,14,12,662,983.0297845625319,983.7262262082659,"[95, 0, 159]",159,l,0.17324985913001,colour,0.5
107,19,0,2,14,13,663,984.232922171941,984.8543110520113,"[55, 0, 199]",199,a,0.09804388764314353,colour,0.5
107,19,0,2,14,14,664,985.3737869067118,985.9342971257865,"[9, 0, 245]",245,a,0.03770046238787472,colour,0.5
107,19,0,2,14,15,665,986.4516489719972,987.6942652557045,"[81, 0, 173]",173,l,0.7193201282061636,colour,0.5
107,19,0,2,14,16,666,988.2017079503275,988.7263242758345,"[29, 0, 225]",225,a,0.0012756653595715761,colour,0.5
107,19,0,2,14,17,667,989.2485172704328,990.2542693831492,"[87, 0, 167]",167,l,0.48113539326004684,colour,0.5
107,19,0,2,14,18,668,990.7653752344195,991.6942908556666,"[4, 0, 250]",250,a,0.4055603889282793,colour,0.5
107,19,0,2,14,19,669,992.2029532894958,992.8062449712306,"[43, 0, 211]",211,a,0.07468452001921833,colour,0.5
107,19,0,2,14,20,670,993.3176722000353,993.9262437738944,"[93, 0, 161]",161,l,0.08553496235981584,colour,0.5
107,19,0,2,14,21,671,994.4426834739279,995.3822455257177,"[75, 0, 179]",179,l,0.41624108399264514,colour,0.5
107,19,0,2,14,22,672,995.8957617108244,997.3342629398685,"[71, 0, 183]",183,a,0.9154366543516517,colour,0.5
107,19,0,2,14,23,673,997.8488275418058,999.870225953171,"[48, 0, 206]",206,a,1.4980872895102948,colour,0.5
107,19,0,2,14,24,674,1000.3814527147915,1001.054210857721,"[89, 0, 165]",165,l,0.1493985780980438,colour,0.5
107,19,0,2,14,25,675,1001.5688715579454,1002.310247819405,"[82, 0, 172]",172,l,0.2180210289079696,colour,0.5
107,19,0,2,14,26,676,1002.8189118285663,1003.5821752636693,"[62, 0, 192]",192,a,0.23988142097368836,colour,0.5
107,19,0,2,14,27,677,1004.1016420598608,1004.6541973883286,"[96, 0, 158]",158,l,0.02929264958947897,colour,0.5
107,19,0,2,14,28,678,1005.1640299370047,1005.798216037685,"[36, 0, 218]",218,a,0.11075879447162151,colour,0.5
107,19,0,2,14,29,679,1006.3046804200858,1006.9502439282369,"[11, 0, 243]",243,a,0.1221661341842264,colour,0.5
107,19,0,2,14,30,680,1007.4609890168067,1007.9982210001908,"[31, 0, 223]",223,a,0.013963396893814206,colour,0.5
107,19,0,2,14,31,681,1008.5078066077549,1009.0461748351809,"[26, 0, 228]",228,a,0.015365880448371172,colour,0.5
107,19,0,2,14,32,682,1009.5546655524522,1010.750172799686,"[17, 0, 237]",237,a,0.6709141586907208,colour,0.5
107,19,0,2,14,33,683,1011.2591455837246,1012.1342441928573,"[46, 0, 208]",208,a,0.3524070060811937,colour,0.5
107,19,0,2,14,34,684,1012.6497166084591,1013.3022121905815,"[10, 0, 244]",244,a,0.129083635751158,colour,0.5
107,19,0,2,14,35,685,1013.8217270360328,1014.3582217404619,"[80, 0, 174]",174,l,0.013613268034532666,colour,0.5
107,19,0,2,14,36,686,1014.8685056362301,1016.1741714575328,"[40, 0, 214]",214,a,0.7827686311211437,colour,0.5
107,19,0,2,14,37,687,1016.6824207475875,1017.590147877112,"[60, 0, 194]",194,l,0.384331724839285,colour,0.5
107,19,0,2,14,38,688,1018.1042788552586,1018.7261943067424,"[83, 0, 171]",171,l,0.09857912361621857,colour,0.5
107,19,0,2,14,39,689,1019.2438159370795,1020.2781974638347,"[16, 0, 238]",238,a,0.5111141218803823,colour,0.5
107,19,0,2,14,40,690,1020.7905852820259,1021.5661634765565,"[35, 0, 219]",219,a,0.2521961806342006,colour,0.5
107,19,0,2,14,41,691,1022.0875108849723,1022.750163741177,"[52, 0, 202]",202,a,0.13932991912588477,colour,0.5
107,19,0,2,14,42,692,1023.2594161557499,1023.8941871167626,"[39, 0, 215]",215,a,0.1113928856793791,colour,0.5
107,19,0,2,14,43,693,1024.4155849374365,1025.006178253796,"[53, 0, 201]",201,a,0.06725108087994158,colour,0.5
107,19,0,2,14,44,694,1025.524994023377,1026.1581817257684,"[45, 0, 209]",209,a,0.10985255590640008,colour,0.5
107,19,0,2,14,45,695,1026.6656685310882,1027.3261481481604,"[34, 0, 220]",220,a,0.1371830676216632,colour,0.5
107,19,0,2,14,46,696,1027.8374871558044,1028.4301910898648,"[77, 0, 177]",177,l,0.06937233242206275,colour,0.5
107,19,0,2,14,47,697,1028.9468938787468,1029.8062225219328,"[67, 0, 187]",187,l,0.3352455843705684,colour,0.5
107,19,0,2,14,48,698,1030.3236334449612,1031.5901596925687,"[61, 0, 193]",193,l,0.7431489599402994,colour,0.5
107,19,0,2,14,49,699,1032.1046786084771,1032.790204827208,"[38, 0, 216]",216,a,0.16217650030739605,colour,0.5
107,19,0,2,14,50,700,1033.3078567837365,1034.2541441402864,"[20, 0, 234]",234,a,0.4203898517880589,colour,0.5
107,19,0,2,15,1,701,1038.7584427664988,1039.4141572476365,"[97, 0, 157]",157,l,0.13142662262544036,colour,0.5
107,19,0,2,15,2,702,1039.9312337958254,1040.5101188744884,"[23, 0, 231]",231,a,0.05614030663855374,colour,0.5
107,19,0,2,15,3,703,1041.0263789810706,1041.5981330939103,"[74, 0, 180]",180,l,0.04854814801365137,colour,0.5
107,19,0,2,15,4,704,1042.1044348180294,1042.8301702949684,"[58, 0, 196]",196,a,0.20246098283678293,colour,0.5
107,19,0,2,15,5,705,1043.3389319777489,1044.0301799834706,"[0, 0, 254]",254,a,0.1682295110076666,colour,0.5
107,19,0,2,15,6,706,1044.5416584124323,1045.0861296688672,"[79, 0, 175]",175,l,0.021147925639525056,colour,0.5
107,19,0,2,15,7,707,1045.6041967384517,1046.6701237107627,"[34, 0, 220]",220,a,0.5411070287227631,colour,0.5
107,19,0,2,15,8,708,1047.185197161045,1047.7189601534046,"[41, 0, 213]",213,a,0.010353409219533205,colour,0.5
107,19,0,2,15,9,709,1048.2321073056664,1048.9501159284264,"[26, 0, 228]",228,a,0.1946317288093269,colour,0.5
107,19,0,2,15,10,710,1049.4650728004053,1050.0540986119304,"[99, 0, 155]",155,l,0.06576746515929699,colour,0.5
107,19,0,2,15,11,711,1050.5744165081996,1051.1661035332363,"[85, 0, 169]",169,l,0.06830934341996908,colour,0.5
107,19,0,2,15,12,712,1051.6712812227197,1053.1821334371343,"[59, 0, 195]",195,a,0.987489498918876,colour,0.5
107,19,0,2,15,13,713,1053.7025269519072,1054.918203812791,"[1, 0, 253]",253,a,0.6922554625198245,colour,0.5
107,19,0,2,15,14,714,1055.4345738021657,1056.8302478825208,"[95, 0, 159]",159,l,0.8697084402665496,colour,0.5
107,19,0,2,15,15,715,1057.3434962527826,1058.4300859330688,"[12, 0, 242]",242,a,0.5633203061297536,colour,0.5
107,19,0,2,15,16,716,1058.9371985851321,1059.8301297288854,"[51, 0, 203]",203,a,0.369606631109491,colour,0.5
107,19,0,2,15,17,717,1060.343455292983,1061.1821547048166,"[47, 0, 207]",207,a,0.31332138925790787,colour,0.5
107,19,0,2,15,18,718,1061.6894083535299,1062.4221219841857,"[31, 0, 223]",223,a,0.20940014580264688,colour,0.5
107,19,0,2,15,19,719,1062.9394005751237,1063.7901126674842,"[68, 0, 186]",186,l,0.32736473670229316,colour,0.5
107,19,0,2,15,20,720,1064.2987999136094,1065.5342541178688,"[63, 0, 191]",191,a,0.7121501718647778,colour,0.5
107,19,0,2,15,21,721,1066.048727741465,1067.1661200749222,"[69, 0, 185]",185,l,0.5940201657358557,colour,0.5
107,19,0,2,15,22,722,1067.674641118152,1068.9901849774178,"[30, 0, 224]",224,a,0.7925883799325675,colour,0.5
107,19,0,2,15,23,723,1069.5028319458943,1070.3980978052132,"[39, 0, 215]",215,a,0.3720342945307493,colour,0.5
107,19,0,2,15,24,724,1070.909034302691,1071.7661243283655,"[40, 0, 214]",214,a,0.3344122073613107,colour,0.5
107,19,0,2,15,25,725,1072.2840377981775,1073.1261459426023,"[24, 0, 230]",230,a,0.3193984245881438,colour,0.5
107,19,0,2,15,26,726,1073.6433331614826,1074.7020507927518,"[16, 0, 238]",238,a,0.5354116295929998,colour,0.5
107,19,0,2,15,27,727,1075.2214939582627,1076.3740988324862,"[33, 0, 221]",221,a,0.6293890629895031,colour,0.5
107,19,0,2,15,28,728,1076.895475385245,1077.7581009087153,"[89, 0, 165]",165,l,0.33951014280319214,colour,0.5
107,19,0,2,15,29,729,1078.27047257917,1079.7740910341963,"[73, 0, 181]",181,l,0.9804451791569591,colour,0.5
107,19,0,2,15,30,730,1080.28609406529,1081.030123269651,"[55, 0, 199]",199,a,0.22312605381011963,colour,0.5
107,19,0,2,15,31,731,1081.5501788649708,1082.3820848367177,"[70, 0, 184]",184,l,0.3054149418603629,colour,0.5
107,19,0,2,15,32,732,1082.897159074666,1083.5741010380443,"[35, 0, 219]",219,a,0.15361508773639798,colour,0.5
107,19,0,2,15,33,733,1084.08474687743,1084.9900475253817,"[61, 0, 193]",193,a,0.3820194583386183,colour,0.5
107,19,0,2,15,34,734,1085.5065927761607,1086.1981223812327,"[57, 0, 197]",197,a,0.16669430141337216,colour,0.5
107,19,0,2,15,35,735,1086.7112088811118,1087.4380691805854,"[5, 0, 249]",249,a,0.2035641437396407,colour,0.5
107,19,0,2,15,36,736,1087.9456402687356,1088.550061105052,"[37, 0, 217]",217,a,0.08138225576840341,colour,0.5
107,19,0,2,15,37,737,1089.0705526873935,1089.7660731284413,"[76, 0, 178]",178,l,0.17210416262969375,colour,0.5
107,19,0,2,15,38,738,1090.2737032934092,1090.9820548256394,"[36, 0, 218]",218,a,0.18498251517303288,colour,0.5
107,19,0,2,15,39,739,1091.492513982579,1092.1660917180125,"[32, 0, 222]",222,a,0.14894526218995452,colour,0.5
107,19,0,2,15,40,740,1092.6813723309897,1093.3500447212718,"[93, 0, 161]",161,l,0.14525414258241653,colour,0.5
107,19,0,2,15,41,741,1093.8688364664558,1094.478076789761,"[25, 0, 229]",229,a,0.08621158893220127,colour,0.5
107,19,0,2,15,42,742,1094.9938119002618,1096.1420895943884,"[82, 0, 172]",172,l,0.6249338833149523,colour,0.5
107,19,0,2,15,43,743,1096.6501340847462,1097.4300544254947,"[87, 0, 167]",167,l,0.2557305498048663,colour,0.5
107,19,0,2,15,44,744,1097.9476110714022,1098.6860996577889,"[71, 0, 183]",183,l,0.21522945235483348,colour,0.5
107,19,0,2,15,45,745,1099.1973402041476,1099.8460544759873,"[84, 0, 170]",170,l,0.12400224176235497,colour,0.5
107,19,0,2,15,46,746,1100.3548961095512,1101.1820239482913,"[67, 0, 187]",187,a,0.30387421837076545,colour,0.5
107,19,0,2,15,47,747,1101.6986345772166,1102.4540411892813,"[46, 0, 208]",208,a,0.23205019813030958,colour,0.5
107,19,0,2,15,48,748,1102.964266007999,1103.6700764494017,"[27, 0, 227]",227,a,0.18255760869942605,colour,0.5
107,19,0,2,15,49,749,1104.1853417023085,1104.9420409151353,"[49, 0, 205]",205,a,0.23618084914050996,colour,0.5
107,19,0,2,15,50,750,1105.4636518058833,1106.1100809865166,"[38, 0, 216]",216,a,0.12161829532124102,colour,0.5
107,19,0,2,16,1,751,1110.5578174975235,1111.5580029988196,"[21, 0, 233]",233,a,0.47603863943368196,colour,0.5
107,19,0,2,16,2,752,1112.076728184009,1112.8300127566326,"[44, 0, 210]",210,a,0.23070009564980865,colour,0.5
107,19,0,2,16,3,753,1113.3424730421975,1113.8860293959733,"[75, 0, 179]",179,l,0.020210967399179935,colour,0.5
107,19,0,2,16,4,754,1114.4049901007675,1114.9980087173171,"[35, 0, 219]",219,a,0.0719921924173832,colour,0.5
107,19,0,2,16,5,755,1115.5129029678646,1116.1579985877033,"[19, 0, 235]",235,a,0.11830526730045676,colour,0.5
107,19,0,2,16,6,756,1116.6724387344439,1117.3659765576012,"[69, 0, 185]",185,l,0.17013217858038843,colour,0.5
107,19,0,2,16,7,757,1117.8756492049433,1118.4380526391324,"[42, 0, 212]",212,a,0.03907577088102698,colour,0.5
107,19,0,2,16,8,758,1118.9537794787902,1119.8139860036317,"[38, 0, 216]",216,a,0.3369103691074997,colour,0.5
107,19,0,2,16,9,759,1120.3288278726395,1120.950071424013,"[94, 0, 160]",160,l,0.09638934303075075,colour,0.5
107,19,0,2,16,10,760,1121.4707362980116,1122.022025019396,"[87, 0, 167]",167,l,0.02795003028586507,colour,0.5
107,19,0,2,16,11,761,1122.5332903780509,1123.2059929887764,"[72, 0, 182]",182,l,0.14937770436517894,colour,0.5
107,19,0,2,16,12,762,1123.7207269442733,1124.429995348677,"[92, 0, 162]",162,l,0.18601596564985812,colour,0.5
107,19,0,2,16,13,763,1124.9385463243816,1125.5099885116797,"[12, 0, 242]",242,a,0.04639499471522868,colour,0.5
107,19,0,2,16,14,764,1126.0183374444023,1126.734135412844,"[66, 0, 188]",188,l,0.19247936364263296,colour,0.5
107,19,0,2,16,15,765,1127.2527881304268,1128.4060062221251,"[29, 0, 225]",225,a,0.6299365083687007,colour,0.5
107,19,0,2,16,16,766,1128.9246735121123,1129.566050442867,"[54, 0, 200]",200,a,0.11802603071555495,colour,0.5
107,19,0,2,16,17,767,1130.0808934934903,1131.0860422351398,"[50, 0, 204]",204,a,0.4818896073848009,colour,0.5
107,19,0,2,16,18,768,1131.5979897340294,1132.398007614538,"[62, 0, 192]",192,a,0.2767099095508456,colour,0.5
107,19,0,2,16,19,769,1132.910446238704,1133.5419829410966,"[33, 0, 221]",221,a,0.10820470680482686,colour,0.5
107,19,0,2,16,20,770,1134.0511140509043,1134.6060517504811,"[48, 0, 206]",206,a,0.031557261012494564,colour,0.5
107,19,0,2,16,21,771,1135.1136118110735,1135.7979911519215,"[96, 0, 158]",158,l,0.16108633601106703,colour,0.5
107,19,0,2,16,22,772,1136.3182708451059,1136.9579794467427,"[97, 0, 157]",157,l,0.11644119652919471,colour,0.5
107,19,0,2,16,23,773,1137.4744163900614,1138.133960230276,"[83, 0, 171]",171,l,0.1362362632062286,colour,0.5
107,19,0,2,16,24,774,1138.6470329456497,1139.5899592251517,"[22, 0, 232]",232,a,0.42057614075019956,colour,0.5
107,19,0,2,16,25,775,1140.0994050176814,1140.7019554821309,"[31, 0, 223]",223,a,0.07925549033097923,colour,0.5
107,19,0,2,16,26,776,1141.2088168608025,1141.789948827587,"[25, 0, 229]",229,a,0.056838200660422444,colour,0.5
107,19,0,2,16,27,777,1142.3035737143364,1142.9259609926958,"[17, 0, 237]",237,a,0.09905843366868794,colour,0.5
107,19,0,2,16,28,778,1143.444223015802,1143.9899431562517,"[1, 0, 253]",253,a,0.022465732414275408,colour,0.5
107,19,0,2,16,29,779,1144.5067156557925,1145.0380202650558,"[63, 0, 191]",191,a,0.00800884747877717,colour,0.5
107,19,0,2,16,30,780,1145.5691307082307,1146.1980971749872,"[40, 0, 214]",214,a,0.10417291056364775,colour,0.5
107,19,0,2,16,31,781,1146.71123526874,1147.317994759418,"[45, 0, 209]",209,a,0.08340465207584202,colour,0.5
107,19,0,2,16,32,782,1147.836349730147,1148.4459705080371,"[46, 0, 208]",208,a,0.08646049909293652,colour,0.5
107,19,0,2,16,33,783,1148.9612680564169,1149.5421211807989,"[84, 0, 170]",170,l,0.05760816880501807,colour,0.5
107,19,0,2,16,34,784,1150.0550284809433,1150.6139676503371,"[37, 0, 217]",217,a,0.03570051514543593,colour,0.5
107,19,0,2,16,35,785,1151.1345525737852,1151.7419961742125,"[13, 0, 241]",241,a,0.08421321678906679,colour,0.5
107,19,0,2,16,36,786,1152.2595469122753,1152.8779350840487,"[52, 0, 202]",202,a,0.09509713598527014,colour,0.5
107,19,0,2,16,37,787,1153.384544795379,1154.3978878855705,"[61, 0, 193]",193,a,0.49010522360913455,colour,0.5
107,19,0,2,16,38,788,1154.9158127768897,1155.4539521802217,"[86, 0, 168]",168,l,0.014775900170207024,colour,0.5
107,19,0,2,16,39,789,1155.9626618754119,1156.6859137627762,"[91, 0, 163]",163,l,0.20058470289222896,colour,0.5
107,19,0,2,16,40,790,1157.1983701100107,1157.7659439472482,"[47, 0, 207]",207,a,0.04387477762065828,colour,0.5
107,19,0,2,16,41,791,1158.2768981677946,1158.9180104346015,"[41, 0, 213]",213,a,0.11775467125698924,colour,0.5
107,19,0,2,16,42,792,1159.4329306788277,1159.9979082867503,"[76, 0, 178]",178,l,0.04223086661659181,colour,0.5
107,19,0,2,16,43,793,1160.5104926337954,1161.5659555261955,"[53, 0, 201]",201,a,0.5301014112774283,colour,0.5
107,19,0,2,16,44,794,1162.0752386604436,1162.7419174050447,"[73, 0, 181]",181,l,0.1433514750096947,colour,0.5
107,19,0,2,16,45,795,1163.262828432722,1163.949981233338,"[28, 0, 226]",226,a,0.16412209696136415,colour,0.5
107,19,0,2,16,46,796,1164.465840405086,1165.1179653785657,"[30, 0, 224]",224,a,0.12877722387202084,colour,0.5
107,19,0,2,16,47,797,1165.637772851158,1166.4220227352343,"[51, 0, 203]",203,a,0.2609470330644399,colour,0.5
107,19,0,2,16,48,798,1166.9361714362167,1167.6219174209982,"[82, 0, 172]",172,l,0.16247306601144373,colour,0.5
107,19,0,2,16,49,799,1168.139167261077,1168.7019440606236,"[39, 0, 215]",215,a,0.03937273030169308,colour,0.5
107,19,0,2,16,50,800,1169.2086534148548,1169.9979354620446,"[65, 0, 189]",189,a,0.26395995053462684,colour,0.5
