id,age,condition,counterbalance,block,trialinblock,trial,tstart,tend,trialstim,trialintensity,response,RT,trialtype,colourfreq
022,73,0,2,Practice,1,NA,6.301503162831068e-06,5.149420022498816,"[56, 0, 198]",198,a,4.625430473592132,colour,0.5
022,73,0,2,Practice,2,NA,5.658285888028331,7.1973833664669655,"[72, 0, 182]",182,a,1.0157172092003748,colour,0.5
022,73,0,2,Practice,3,NA,7.706530044146348,9.741384226595983,"[12, 0, 242]",242,a,1.5115188116324134,colour,0.5
022,73,0,2,Practice,4,NA,10.253276010393165,12.557370353781153,"[9, 0, 245]",245,a,1.7807329787756316,colour,0.5
022,73,0,2,Practice,5,NA,13.065804170328192,18.069481903570704,"[36, 0, 218]",218,a,4.4795038644224405,colour,0.5
022,73,0,2,Practice,6,NA,18.583321649231948,19.981388417130802,"[99, 0, 155]",155,l,0.8751634460641071,colour,0.5
022,73,0,2,Practice,7,NA,20.489173963316716,21.57336876896443,"[0, 0, 254]",254,a,0.5609149670926854,colour,0.5
022,73,0,2,Practice,8,NA,22.082904172537383,23.293422694317997,"[67, 0, 187]",187,a,0.6858381670899689,colour,0.5
022,73,0,2,Practice,9,NA,23.803117999399547,24.53335756796878,"[84, 0, 170]",170,l,0.20700502232648432,colour,0.5
022,73,0,2,Practice,10,NA,25.053039230173454,26.77333891543094,"[33, 0, 221]",221,a,1.19699660979677,colour,0.5
022,73,0,2,1,1,1,5.029469127184711,5.736404438794125,"[44, 0, 210]",210,a,0.18275907973293215,colour,0.5
022,73,0,2,1,2,2,6.249093760561664,6.943917916214559,"[41, 0, 213]",213,a,0.17164041550131515,colour,0.5
022,73,0,2,1,3,3,7.452161111345049,11.719984608527739,"[85, 0, 169]",169,l,3.744518452498596,colour,0.5
022,73,0,2,1,4,4,12.23712123837322,13.719990910030901,"[71, 0, 183]",183,a,0.9595677776960656,colour,0.5
022,73,0,2,1,5,5,14.23715668451041,15.855919346679002,"[75, 0, 179]",179,l,1.0957809649407864,colour,0.5
022,73,0,2,1,6,6,16.362119662982877,18.367919438052922,"[42, 0, 212]",212,a,1.4822993827983737,colour,0.5
022,73,0,2,1,7,7,18.877742743003182,20.383943059365265,"[23, 0, 231]",231,l,0.9829027547384612,colour,0.5
022,73,0,2,1,8,8,20.894591077638324,22.007929693791084,"[73, 0, 181]",181,l,0.5899926114361733,colour,0.5
022,73,0,2,1,9,9,22.51958950230619,23.29587989905849,"[16, 0, 238]",238,a,0.2530920843128115,colour,0.5
022,73,0,2,1,10,10,23.81646268075565,24.57590710592922,"[46, 0, 208]",208,a,0.23614725738298148,colour,0.5
022,73,0,2,1,11,11,25.082083003828302,26.039938339497894,"[6, 0, 248]",248,a,0.4346495401696302,colour,0.5
022,73,0,2,1,12,12,26.550827391503844,27.439914866292384,"[67, 0, 187]",187,l,0.3656985408742912,colour,0.5
022,73,0,2,1,13,13,27.957023926952388,28.64798681717366,"[95, 0, 159]",159,l,0.16767714399611577,colour,0.5
022,73,0,2,1,14,14,29.16014090232784,29.871951238717884,"[9, 0, 245]",245,a,0.18878531613154337,colour,0.5
022,73,0,2,1,15,15,30.37892191769788,31.10389891709201,"[72, 0, 182]",182,l,0.20164517319062725,colour,0.5
022,73,0,2,1,16,16,31.615676091692876,32.41593476966955,"[56, 0, 198]",198,a,0.27695717790629715,colour,0.5
022,73,0,2,1,17,17,32.9282408793224,33.67994189984165,"[1, 0, 253]",253,a,0.22834950202377513,colour,0.5
022,73,0,2,1,18,18,34.19387656240724,34.86394120036857,"[50, 0, 204]",204,a,0.14675486710621044,colour,0.5
022,73,0,2,1,19,19,35.38128184247762,35.98389209568268,"[98, 0, 156]",156,l,0.07911458710441366,colour,0.5
022,73,0,2,1,20,20,36.49073398701148,37.12791288446169,"[2, 0, 252]",252,a,0.1139376558130607,colour,0.5
022,73,0,2,1,21,21,37.64698644855525,38.359931848885026,"[38, 0, 216]",216,a,0.18969982635462657,colour,0.5
022,73,0,2,1,22,22,38.88122197787743,39.44795483688358,"[78, 0, 176]",176,l,0.043193869816605,colour,0.5
022,73,0,2,1,23,23,39.96060241095256,40.543915395624936,"[33, 0, 221]",221,a,0.05985630926443264,colour,0.5
022,73,0,2,1,24,24,41.05438697093632,41.79993690591073,"[65, 0, 189]",189,l,0.22247410856653005,colour,0.5
022,73,0,2,1,25,25,42.32000611250987,42.94390176853631,"[34, 0, 220]",220,a,0.10063787287799641,colour,0.5
022,73,0,2,1,26,26,43.460537032573484,44.10392491094535,"[79, 0, 175]",175,l,0.11999067373108119,colour,0.5
022,73,0,2,1,27,27,44.61691946326755,45.23197603528388,"[11, 0, 243]",243,a,0.09180666576139629,colour,0.5
022,73,0,2,1,28,28,45.74182375869714,46.37590899638599,"[36, 0, 218]",218,a,0.11090858676470816,colour,0.5
022,73,0,2,1,29,29,46.88391627778765,47.46388629823923,"[81, 0, 173]",173,l,0.05664213269483298,colour,0.5
022,73,0,2,1,30,30,47.97769020393025,48.559905540023465,"[62, 0, 192]",192,a,0.059320284985005856,colour,0.5
022,73,0,2,1,31,31,49.071351883991156,50.51996798819164,"[59, 0, 195]",195,a,0.9252665549283847,colour,0.5
022,73,0,2,1,32,32,51.03997102868743,51.743880422087386,"[5, 0, 249]",249,a,0.180799302412197,colour,0.5
022,73,0,2,1,33,33,52.25888004398439,52.9599049098324,"[51, 0, 203]",203,a,0.17644533573184162,colour,0.5
022,73,0,2,1,34,34,53.479000923165586,54.19190536357928,"[17, 0, 237]",237,a,0.1895485895802267,colour,0.5
022,73,0,2,1,35,35,54.713329794001766,55.399886729894206,"[24, 0, 230]",230,a,0.16828721133060753,colour,0.5
022,73,0,2,1,36,36,55.912070353515446,56.55989648157265,"[64, 0, 190]",190,l,0.12453762494260445,colour,0.5
022,73,0,2,1,37,37,57.06827752274694,57.727903274586424,"[3, 0, 251]",251,a,0.13629943947307765,colour,0.5
022,73,0,2,1,38,38,58.24014085507952,58.96792006818578,"[4, 0, 250]",250,a,0.20454072841675952,colour,0.5
022,73,0,2,1,39,39,59.474490205873735,60.25592619960662,"[43, 0, 211]",211,a,0.2587284133187495,colour,0.5
022,73,0,2,1,40,40,60.771347630477976,61.30393759277649,"[80, 0, 174]",174,l,0.009248683811165392,colour,0.5
022,73,0,2,1,41,41,61.81824719661381,62.5198986713076,"[66, 0, 188]",188,l,0.17830468231113628,colour,0.5
022,73,0,2,1,42,42,63.036926993576344,63.63188442669343,"[83, 0, 171]",171,l,0.07157401309814304,colour,0.5
022,73,0,2,1,43,43,64.14639922429342,64.81590263184626,"[70, 0, 184]",184,l,0.14615622133715078,colour,0.5
022,73,0,2,1,44,44,65.333924627339,65.8719224879751,"[10, 0, 244]",244,a,0.014841295836959034,colour,0.5
022,73,0,2,1,45,45,66.38073360890849,66.99187929095933,"[84, 0, 170]",170,l,0.0878110988996923,colour,0.5
022,73,0,2,1,46,46,67.50571549200686,68.07197297899984,"[22, 0, 232]",232,a,0.04290951311122626,colour,0.5
022,73,0,2,1,47,47,68.58386318740668,69.28793405758915,"[93, 0, 161]",161,l,0.18080087780253962,colour,0.5
022,73,0,2,1,48,48,69.80403762962669,70.39193852536846,"[27, 0, 227]",227,a,0.06457261415198445,colour,0.5
022,73,0,2,1,49,49,70.91337752807885,71.55192031397019,"[25, 0, 229]",229,a,0.11509950127219781,colour,0.5
022,73,0,2,1,50,50,72.06966110348003,72.67191453231499,"[61, 0, 193]",193,l,0.07891727035166696,colour,0.5
022,73,0,2,2,1,51,78.85136530629825,79.45588689373108,"[41, 0, 213]",213,a,0.08049619855592027,colour,0.5
022,73,0,2,2,2,52,79.96275084046647,80.53588684648275,"[64, 0, 190]",190,l,0.049810875148978084,colour,0.5
022,73,0,2,2,3,53,81.05654485273408,81.61588404228678,"[1, 0, 253]",253,a,0.03637482156045735,colour,0.5
022,73,0,2,2,4,54,82.1346059020143,82.75188337120926,"[47, 0, 207]",207,a,0.09396769833983853,colour,0.5
022,73,0,2,2,5,55,83.25959172355942,83.8239575686166,"[2, 0, 252]",252,a,0.04102968651568517,colour,0.5
022,73,0,2,2,6,56,84.33775714202784,84.90388190292288,"[28, 0, 226]",226,a,0.04293471924029291,colour,0.5
022,73,0,2,2,7,57,85.41585127433063,87.40793930360815,"[83, 0, 171]",171,l,1.4689417044864967,colour,0.5
022,73,0,2,2,8,58,87.91584339743713,88.61595690378454,"[91, 0, 163]",163,l,0.17433944158256054,colour,0.5
022,73,0,2,2,9,59,89.13694022677373,89.79987901053391,"[4, 0, 250]",250,a,0.14222445752238855,colour,0.5
022,73,0,2,2,10,60,90.30617581913248,91.02396473661065,"[84, 0, 170]",170,l,0.1944007712882012,colour,0.5
022,73,0,2,2,11,61,91.54302884842036,92.36787453957368,"[21, 0, 233]",233,a,0.30154104030225426,colour,0.5
022,73,0,2,2,12,62,92.88675945153227,93.51184806687525,"[79, 0, 175]",175,l,0.10209392121760175,colour,0.5
022,73,0,2,2,13,63,94.0273250300088,95.35986528894864,"[55, 0, 199]",199,l,0.8091517189168371,colour,0.5
022,73,0,2,2,14,64,95.87110013770871,96.44789339695126,"[15, 0, 239]",239,a,0.053402356163132936,colour,0.5
022,73,0,2,2,15,65,96.9648472823319,97.59191536722938,"[66, 0, 188]",188,l,0.10124557709787041,colour,0.5
022,73,0,2,2,16,66,98.10793189931428,98.67993284139084,"[86, 0, 168]",168,l,0.048905817267950624,colour,0.5
022,73,0,2,2,17,67,99.18734699086053,99.79987034591613,"[8, 0, 246]",246,a,0.08926242112647742,colour,0.5
022,73,0,2,2,18,68,100.31228752015159,101.00793048145715,"[6, 0, 248]",248,a,0.1722725381841883,colour,0.5
022,73,0,2,2,19,69,101.51545766473282,102.28789664222859,"[81, 0, 173]",173,l,0.2491863142931834,colour,0.5
022,73,0,2,2,20,70,102.79665538168047,103.58386279351544,"[68, 0, 186]",186,l,0.26384644099744037,colour,0.5
022,73,0,2,2,21,71,104.09349350782577,104.8638959081145,"[60, 0, 194]",194,l,0.24694296799134463,colour,0.5
022,73,0,2,2,22,72,105.3848492988036,106.03989265335258,"[85, 0, 169]",169,l,0.13167726376559585,colour,0.5
022,73,0,2,2,23,73,106.5478526732768,107.11190186621388,"[11, 0, 243]",243,a,0.04059172986308113,colour,0.5
022,73,0,2,2,24,74,107.62604290398303,108.22394157847157,"[38, 0, 216]",216,a,0.07462553126970306,colour,0.5
022,73,0,2,2,25,75,108.73531506099971,109.39987845916767,"[13, 0, 241]",241,a,0.14116895047482103,colour,0.5
022,73,0,2,2,26,76,109.9072252609767,110.55184469552478,"[39, 0, 215]",215,a,0.121358894451987,colour,0.5
022,73,0,2,2,27,77,111.06359508860623,111.71190604096046,"[77, 0, 177]",177,l,0.12503977841697633,colour,0.5
022,73,0,2,2,28,78,112.21972467022715,112.93587203789502,"[44, 0, 210]",210,a,0.19274425535695627,colour,0.5
022,73,0,2,2,29,79,113.4541543655796,114.11189438315341,"[50, 0, 204]",204,a,0.1344227636582218,colour,0.5
022,73,0,2,2,30,80,114.62603896553628,115.16793511313153,"[97, 0, 157]",157,l,0.01859897980466485,colour,0.5
022,73,0,2,2,31,81,115.68845330405748,116.32791887089843,"[24, 0, 230]",230,a,0.11639840510906652,colour,0.5
022,73,0,2,2,32,82,116.84479792555794,117.54386458947556,"[33, 0, 221]",221,a,0.1758049422642216,colour,0.5
022,73,0,2,2,33,83,118.0634769347962,118.7358495098888,"[65, 0, 189]",189,l,0.1490210565389134,colour,0.5
022,73,0,2,2,34,84,119.2510547193815,119.78388807846932,"[74, 0, 180]",180,l,0.00980361271649599,colour,0.5
022,73,0,2,2,35,85,120.29780344251776,120.87985966482665,"[87, 0, 167]",167,l,0.058612149965483695,colour,0.5
022,73,0,2,2,36,86,121.39158563944511,122.02385249052895,"[37, 0, 217]",217,a,0.10913273552432656,colour,0.5
022,73,0,2,2,37,87,122.53223589481786,123.12786759214941,"[72, 0, 182]",182,l,0.07233846804592758,colour,0.5
022,73,0,2,2,38,88,123.64155176869826,124.3440606459626,"[29, 0, 225]",225,a,0.17935585707891732,colour,0.5
022,73,0,2,2,39,89,124.86175968783209,125.52786578045925,"[5, 0, 249]",249,a,0.14313739235512912,colour,0.5
022,73,0,2,2,40,90,126.04935243853834,126.6078799116658,"[99, 0, 155]",155,l,0.03562257590238005,colour,0.5
022,73,0,2,2,41,91,127.11855431768345,127.67187987384386,"[75, 0, 179]",179,l,0.03603532642591745,colour,0.5
022,73,0,2,2,42,92,128.1905485643656,128.78394479228882,"[31, 0, 223]",223,a,0.07017152779735625,colour,0.5
022,73,0,2,2,43,93,129.2999266659026,129.9998822400812,"[7, 0, 247]",247,a,0.17694709548959509,colour,0.5
022,73,0,2,2,44,94,130.51861788437236,132.74389105592854,"[90, 0, 164]",164,l,1.701959856087342,colour,0.5
022,73,0,2,2,45,95,133.25300031824736,135.59185077651637,"[45, 0, 209]",209,a,1.8148211309453472,colour,0.5
022,73,0,2,2,46,96,136.09812080359552,137.06385108846007,"[62, 0, 192]",192,l,0.44226455106399953,colour,0.5
022,73,0,2,2,47,97,137.58255246817134,138.27188444248168,"[96, 0, 158]",158,l,0.16609782190062106,colour,0.5
022,73,0,2,2,48,98,138.78644807694945,139.39188929466764,"[14, 0, 240]",240,a,0.08285336644621566,colour,0.5
022,73,0,2,2,49,99,139.91208610730246,140.85590359283378,"[9, 0, 245]",245,a,0.420454939303454,colour,0.5
022,73,0,2,2,50,100,141.36523695348296,141.9839389633271,"[95, 0, 159]",159,l,0.09539342054631561,colour,0.5
022,73,0,2,3,1,101,147.17865481140325,148.39996589295333,"[93, 0, 161]",161,l,0.6971951081068255,colour,0.5
022,73,0,2,3,2,102,148.91524790239055,149.62390944064828,"[90, 0, 164]",164,l,0.18536043202038854,colour,0.5
022,73,0,2,3,3,103,150.13405885006068,150.8398827284691,"[59, 0, 195]",195,a,0.1825633383123204,colour,0.5
022,73,0,2,3,4,104,151.35267090552952,152.11986149224686,"[89, 0, 165]",165,l,0.2438819974195212,colour,0.5
022,73,0,2,3,5,105,152.63401867775247,153.28788758377777,"[97, 0, 157]",157,l,0.13061939360341057,colour,0.5
022,73,0,2,3,6,106,153.80584577622358,154.57599178282544,"[67, 0, 187]",187,l,0.2469189433613792,colour,0.5
022,73,0,2,3,7,107,155.08760275441455,155.64787969109602,"[23, 0, 231]",231,a,0.036922267405316234,colour,0.5
022,73,0,2,3,8,108,156.16574060363928,156.84783644683193,"[69, 0, 185]",185,l,0.15882073080865666,colour,0.5
022,73,0,2,3,9,109,157.36887018207926,157.9678747759317,"[0, 0, 254]",254,a,0.07572869374416769,colour,0.5
022,73,0,2,3,10,110,158.47820377902826,159.08783354813932,"[11, 0, 243]",243,a,0.08623650291701779,colour,0.5
022,73,0,2,3,11,111,159.6031486405991,160.52784136199625,"[62, 0, 192]",192,l,0.4013356890063733,colour,0.5
022,73,0,2,3,12,112,161.0420769228367,161.70380817499245,"[75, 0, 179]",179,l,0.1386333703994751,colour,0.5
022,73,0,2,3,13,113,162.21390992903616,162.89586044306634,"[71, 0, 183]",183,l,0.15856591245392337,colour,0.5
022,73,0,2,3,14,114,163.41707967978436,164.05583396088332,"[92, 0, 162]",162,l,0.1154181226156652,colour,0.5
022,73,0,2,3,15,115,164.57332032592967,165.17584432690637,"[15, 0, 239]",239,a,0.07923549780389294,colour,0.5
022,73,0,2,3,16,116,165.70660093642073,166.38386192708276,"[70, 0, 184]",184,l,0.1469466701382771,colour,0.5
022,73,0,2,3,17,117,166.902829546656,167.647839518846,"[33, 0, 221]",221,a,0.22161985677666962,colour,0.5
022,73,0,2,3,18,118,168.16849555587396,168.959809205262,"[87, 0, 167]",167,l,0.26801018009427935,colour,0.5
022,73,0,2,3,19,119,169.48099220817676,170.22390573850134,"[81, 0, 173]",173,l,0.21968686097534373,colour,0.5
022,73,0,2,3,20,120,170.7309693651041,171.50394121615682,"[27, 0, 227]",227,a,0.2496679879259318,colour,0.5
022,73,0,2,3,21,121,172.01224624505267,172.79181619687006,"[35, 0, 219]",219,a,0.2562653009663336,colour,0.5
022,73,0,2,3,22,122,173.30911706044571,174.11990402761148,"[52, 0, 202]",202,a,0.28822038357611746,colour,0.5
022,73,0,2,3,23,123,174.63720804202603,175.3918310054578,"[55, 0, 199]",199,a,0.23133603564929217,colour,0.5
022,73,0,2,3,24,124,175.9042655088706,176.743833948276,"[61, 0, 193]",193,l,0.31628938851645216,colour,0.5
022,73,0,2,3,25,125,177.26365621347213,178.0478251040331,"[24, 0, 230]",230,a,0.26095324888592586,colour,0.5
022,73,0,2,3,26,126,178.5604659827659,179.2398694952135,"[30, 0, 224]",224,a,0.15609492314979434,colour,0.5
022,73,0,2,3,27,127,179.74786771816434,180.47980712575372,"[21, 0, 233]",233,a,0.2084886398515664,colour,0.5
022,73,0,2,3,28,128,180.99797641969053,181.71185838559177,"[12, 0, 242]",242,a,0.18811026425100863,colour,0.5
022,73,0,2,3,29,129,182.21911932900548,182.88786103855819,"[98, 0, 156]",156,l,0.14574977237498388,colour,0.5
022,73,0,2,3,30,130,183.40671089821262,184.1518449318246,"[9, 0, 245]",245,a,0.22225040406920016,colour,0.5
022,73,0,2,3,31,131,184.67233437206596,185.41582291742088,"[3, 0, 251]",251,a,0.22025636216858402,colour,0.5
022,73,0,2,3,32,132,185.92225639056414,186.6638391155284,"[10, 0, 244]",244,a,0.21858684933977202,colour,0.5
022,73,0,2,3,33,133,187.1722047967487,188.42387706652516,"[7, 0, 247]",247,a,0.7257241251063533,colour,0.5
022,73,0,2,3,34,134,188.9405875551165,189.61591515614418,"[95, 0, 159]",159,l,0.1520355532411486,colour,0.5
022,73,0,2,3,35,135,190.12808538897661,190.8318262163084,"[63, 0, 191]",191,l,0.18033495813142508,colour,0.5
022,73,0,2,3,36,136,191.34685301355785,192.01587356603704,"[47, 0, 207]",207,a,0.14562374167144299,colour,0.5
022,73,0,2,3,37,137,192.53438826277852,193.57595712435432,"[31, 0, 223]",223,a,0.5186009490280412,colour,0.5
022,73,0,2,3,38,138,194.08267259114655,194.78380300774006,"[58, 0, 196]",196,l,0.17813651013420895,colour,0.5
022,73,0,2,3,39,139,195.30146975419484,195.8718571095378,"[74, 0, 180]",180,l,0.04713075369363651,colour,0.5
022,73,0,2,3,40,140,196.37953592347912,196.99989366158843,"[82, 0, 172]",172,l,0.09695068729342893,colour,0.5
022,73,0,2,3,41,141,197.52010898507433,198.3438971998985,"[28, 0, 226]",226,a,0.30045599478762597,colour,0.5
022,73,0,2,3,42,142,198.86391126806848,199.56780963379424,"[26, 0, 228]",228,a,0.18070871784584597,colour,0.5
022,73,0,2,3,43,143,200.08386633812916,200.77583865553606,"[32, 0, 222]",222,a,0.16855817736359313,colour,0.5
022,73,0,2,3,44,144,201.28707704885164,201.99186038633343,"[6, 0, 248]",248,a,0.18144993588794023,colour,0.5
022,73,0,2,3,45,145,202.50568910432048,203.19184510514606,"[29, 0, 225]",225,a,0.16276746080256999,colour,0.5
022,73,0,2,3,46,146,203.70886948890984,204.44789103389485,"[34, 0, 220]",220,a,0.21575982333160937,colour,0.5
022,73,0,2,3,47,147,204.95892068889225,205.62378104688833,"[64, 0, 190]",190,l,0.14167819323483855,colour,0.5
022,73,0,2,3,48,148,206.13080528890714,206.84783526527463,"[8, 0, 246]",246,a,0.19377573783276603,colour,0.5
022,73,0,2,3,49,149,207.36510540894233,208.56780096917646,"[40, 0, 214]",214,a,0.6792861463618465,colour,0.5
022,73,0,2,3,50,150,209.08530426962534,210.71987590705976,"[94, 0, 160]",160,l,1.1113662357674912,colour,0.5
022,73,0,2,4,1,151,216.8983428539359,217.51989355130354,"[16, 0, 238]",238,a,0.09780296985991299,colour,0.5
022,73,0,2,4,2,152,218.03937395830872,218.7923557657632,"[1, 0, 253]",253,a,0.22964131663320586,colour,0.5
022,73,0,2,4,3,153,219.30503169674193,219.94380094396183,"[66, 0, 188]",188,l,0.11544214718742296,colour,0.5
022,73,0,2,4,4,154,220.4612451675348,221.2077832618961,"[12, 0, 242]",242,a,0.22316924663027748,colour,0.5
022,73,0,2,4,5,155,221.7269072382478,222.4397915924783,"[64, 0, 190]",190,l,0.1899597646552138,colour,0.5
022,73,0,2,4,6,156,222.96127391827758,223.62390550220152,"[81, 0, 173]",173,l,0.13678308227099478,colour,0.5
022,73,0,2,4,7,157,224.13579334749375,224.99177295254776,"[54, 0, 200]",200,l,0.33359064598334953,colour,0.5
022,73,0,2,4,8,158,225.51014625863172,226.21581456786953,"[59, 0, 195]",195,l,0.18285281502176076,colour,0.5
022,73,0,2,4,9,159,226.72879336640472,227.3598192089703,"[46, 0, 208]",208,a,0.10748015803983435,colour,0.5
022,73,0,2,4,10,160,227.86955704935826,228.47981224575778,"[19, 0, 235]",235,a,0.08693912398302928,colour,0.5
022,73,0,2,4,11,161,228.99449915403966,229.64780367881758,"[88, 0, 166]",166,l,0.1299372524372302,colour,0.5
022,73,0,2,4,12,162,230.1663987201755,230.93580311484402,"[67, 0, 187]",187,l,0.24643136211670935,colour,0.5
022,73,0,2,4,13,163,231.44762518786592,232.407840054424,"[36, 0, 218]",218,a,0.43527536129113287,colour,0.5
022,73,0,2,4,14,164,232.9180182145792,233.5438362325658,"[90, 0, 164]",164,l,0.102447988698259,colour,0.5
022,73,0,2,4,15,165,234.05866256228182,234.73581248836126,"[6, 0, 248]",248,a,0.15408827818464488,colour,0.5
022,73,0,2,4,16,166,235.24616590997903,236.01585032913135,"[60, 0, 194]",194,l,0.24634865450207144,colour,0.5
022,73,0,2,4,17,167,236.5273506300291,237.27177377173211,"[53, 0, 201]",201,l,0.22092511254595593,colour,0.5
022,73,0,2,4,18,168,237.79304105765186,238.43179809569847,"[74, 0, 180]",180,l,0.11542560567613691,colour,0.5
022,73,0,2,4,19,169,238.95150653942255,239.72785010538064,"[51, 0, 203]",203,l,0.25378722237655893,colour,0.5
022,73,0,2,4,20,170,240.24762353370897,240.9358196563553,"[41, 0, 213]",213,a,0.16479694878216833,colour,0.5
022,73,0,2,4,21,171,241.4507491737022,242.02389226894593,"[72, 0, 182]",182,l,0.049843958229757845,colour,0.5
022,73,0,2,4,22,172,242.54451443522703,243.26380902569508,"[24, 0, 230]",230,a,0.1959887580596842,colour,0.5
022,73,0,2,4,23,173,243.7788744198624,244.47180732741253,"[44, 0, 210]",210,a,0.16966173361288384,colour,0.5
022,73,0,2,4,24,174,244.98366366501432,245.7517671866808,"[17, 0, 237]",237,a,0.24489615071797743,colour,0.5
022,73,0,2,4,25,175,246.26475976972142,246.98382041574223,"[20, 0, 234]",234,a,0.1957729305140674,colour,0.5
022,73,0,2,4,26,176,247.49945728032617,248.4157831390039,"[29, 0, 225]",225,a,0.39347413065843284,colour,0.5
022,73,0,2,4,27,177,248.93657702207565,249.55978541699005,"[94, 0, 160]",160,l,0.09991989174159244,colour,0.5
022,73,0,2,4,28,178,250.07850333827082,251.25579741195543,"[35, 0, 219]",219,a,0.6541056074202061,colour,0.5
022,73,0,2,4,29,179,251.76603504281957,252.67976033687592,"[45, 0, 209]",209,a,0.39045333239482716,colour,0.5
022,73,0,2,4,30,180,253.18790073820855,254.14381795813097,"[56, 0, 198]",198,l,0.43116715451469645,colour,0.5
022,73,0,2,4,31,181,254.65809250966413,255.2318440969102,"[77, 0, 177]",177,l,0.05068639467936009,colour,0.5
022,73,0,2,4,32,182,255.7517793958541,256.43178667413304,"[18, 0, 236]",236,a,0.1567235012189485,colour,0.5
022,73,0,2,4,33,183,256.9392650204827,257.5358120157616,"[92, 0, 162]",162,l,0.07326755055692047,colour,0.5
022,73,0,2,4,34,184,258.0486671466497,258.83973543008324,"[2, 0, 252]",252,a,0.268044444732368,colour,0.5
022,73,0,2,4,35,185,259.34551708819345,260.0318129042862,"[0, 0, 254]",254,a,0.16165523987729102,colour,0.5
022,73,0,2,4,36,186,260.5500278843101,261.3118420803803,"[21, 0, 233]",233,a,0.23850915138609707,colour,0.5
022,73,0,2,4,37,187,261.8311826720601,262.40778609755216,"[69, 0, 185]",185,l,0.05318810394965112,colour,0.5
022,73,0,2,4,38,188,262.925018038135,263.6477871373063,"[50, 0, 204]",204,l,0.1996767312521115,colour,0.5
022,73,0,2,4,39,189,264.15931737050414,265.49581302399747,"[48, 0, 206]",206,a,0.8131382272695191,colour,0.5
022,73,0,2,4,40,190,266.0044721204322,266.6637737370911,"[62, 0, 192]",192,l,0.1359910581377335,colour,0.5
022,73,0,2,4,41,191,267.1763059142977,267.81576005963143,"[91, 0, 163]",163,l,0.11609868833329529,colour,0.5
022,73,0,2,4,42,192,268.3326312373392,269.00779027229873,"[65, 0, 189]",189,l,0.151956390182022,colour,0.5
022,73,0,2,4,43,193,269.5201574281091,270.2878289007349,"[39, 0, 215]",215,a,0.244457800174132,colour,0.5
022,73,0,2,4,44,194,270.8013870465802,271.43176461878465,"[75, 0, 179]",179,l,0.10710206598741934,colour,0.5
022,73,0,2,4,45,195,271.9435725133517,272.7197329409537,"[7, 0, 247]",247,a,0.25304561050143093,colour,0.5
022,73,0,2,4,46,196,273.2404732610448,273.9037877737428,"[14, 0, 240]",240,a,0.1400906002963893,colour,0.5
022,73,0,2,4,47,197,274.4123346240958,275.4958031778806,"[49, 0, 205]",205,l,0.5600863152649254,colour,0.5
022,73,0,2,4,48,198,276.0111352057429,276.7197809901554,"[58, 0, 196]",196,l,0.18527733051450923,colour,0.5
022,73,0,2,4,49,199,277.2298224857659,277.88772949401755,"[89, 0, 165]",165,l,0.13766608480364084,colour,0.5
022,73,0,2,4,50,200,278.39863666298334,279.0478247102001,"[28, 0, 226]",226,a,0.12581644259626046,colour,0.5
022,73,0,2,5,1,201,286.33620460139355,287.6877703752252,"[50, 0, 204]",204,a,0.8232529782690108,colour,0.5
022,73,0,2,5,2,202,288.2006455922383,288.84780218225205,"[10, 0, 244]",244,a,0.12388147762976587,colour,0.5
022,73,0,2,5,3,203,289.35679132153746,290.13574254134437,"[18, 0, 236]",236,a,0.2587402286590077,colour,0.5
022,73,0,2,5,4,204,290.65052160952473,291.25571549200686,"[30, 0, 224]",224,a,0.08182976086391136,colour,0.5
022,73,0,2,5,5,205,291.77552751725307,292.3997555792448,"[64, 0, 190]",190,l,0.10108725109603256,colour,0.5
022,73,0,2,5,6,206,292.9206388653256,293.5677867907216,"[79, 0, 175]",175,l,0.12382948992308229,colour,0.5
022,73,0,2,5,7,207,294.0769224407268,294.79173821536824,"[36, 0, 218]",218,a,0.19144417002098635,colour,0.5
022,73,0,2,5,8,208,295.3112749422435,295.8877747863298,"[95, 0, 159]",159,l,0.05321252241265029,colour,0.5
022,73,0,2,5,9,209,296.4050102715264,297.1597572963801,"[14, 0, 240]",240,a,0.23139078018721193,colour,0.5
022,73,0,2,5,10,210,297.67064477305394,298.43175792339025,"[43, 0, 211]",211,a,0.23770097957458347,colour,0.5
022,73,0,2,5,11,211,298.9518373699975,299.48779629031196,"[91, 0, 163]",163,l,0.01246286032255739,colour,0.5
022,73,0,2,5,12,212,299.9999452554039,300.66374538018135,"[31, 0, 223]",223,a,0.14048011391423643,colour,0.5
022,73,0,2,5,13,213,301.17183418769855,301.82375788874924,"[46, 0, 208]",208,a,0.1285891178995371,colour,0.5
022,73,0,2,5,14,214,302.34369240002707,303.03980876418063,"[15, 0, 239]",239,a,0.1729007224785164,colour,0.5
022,73,0,2,5,15,215,303.5469228030415,304.24780352128437,"[34, 0, 220]",220,a,0.17773715034127235,colour,0.5
022,73,0,2,5,16,216,304.76696924539283,305.4877580872271,"[13, 0, 241]",241,a,0.19699424668215215,colour,0.5
022,73,0,2,5,17,217,306.0012725161505,306.6717747169896,"[3, 0, 251]",251,a,0.14712586998939514,colour,0.5
022,73,0,2,5,18,218,307.18883966689464,307.86373443127377,"[9, 0, 245]",245,a,0.15163540578214452,colour,0.5
022,73,0,2,5,19,219,308.3763378945878,308.9518373699975,"[73, 0, 181]",181,l,0.05225035682087764,colour,0.5
022,73,0,2,5,20,220,309.4700275377254,310.18376181146596,"[53, 0, 201]",201,l,0.18917719286400825,colour,0.5
022,73,0,2,5,21,221,310.69005783234024,311.343800313829,"[87, 0, 167]",167,l,0.13050478446530178,colour,0.5
022,73,0,2,5,22,222,311.86188493081136,312.5117295192322,"[98, 0, 156]",156,l,0.12658365443348885,colour,0.5
022,73,0,2,5,23,223,313.0181669308222,313.73573017457966,"[39, 0, 215]",215,a,0.19437005132203922,colour,0.5
022,73,0,2,5,24,224,314.2524438139517,316.319705214235,"[83, 0, 171]",171,l,1.543933906359598,colour,0.5
022,73,0,2,5,25,225,316.83206921920646,317.62376135459635,"[86, 0, 168]",168,l,0.26845089375274256,colour,0.5
022,73,0,2,5,26,226,318.14974691462703,319.0717543945648,"[88, 0, 166]",166,l,0.4038377922261134,colour,0.5
022,73,0,2,5,27,227,319.58200896077324,320.4797342643142,"[58, 0, 196]",196,l,0.378583210229408,colour,0.5
022,73,0,2,5,28,228,320.9996278156177,321.6557467633975,"[19, 0, 235]",235,a,0.13275876466650516,colour,0.5
022,73,0,2,5,29,229,322.1714545202558,322.7917835076223,"[65, 0, 189]",189,l,0.08952629787381738,colour,0.5
022,73,0,2,5,30,230,323.30379265744705,323.98376173269935,"[84, 0, 170]",170,l,0.15653799986466765,colour,0.5
022,73,0,2,5,31,231,324.491477961943,325.1918454989791,"[66, 0, 188]",188,l,0.1776824058033526,colour,0.5
022,73,0,2,5,32,232,325.7101282204967,326.3517595460289,"[6, 0, 248]",248,a,0.11829674238106236,colour,0.5
022,73,0,2,5,33,233,326.8662719805725,327.5357872034656,"[90, 0, 164]",164,l,0.14616685517830774,colour,0.5
022,73,0,2,5,34,234,328.053876546619,329.04774869797984,"[26, 0, 228]",228,a,0.47089439257979393,colour,0.5
022,73,0,2,5,35,235,329.56940116517944,331.0957545773126,"[41, 0, 213]",213,a,1.0029774751747027,colour,0.5
022,73,0,2,5,36,236,331.6188382805558,332.3997587299673,"[97, 0, 157]",157,l,0.2576390354661271,colour,0.5
022,73,0,2,5,37,237,332.9157283944078,333.6078586439835,"[2, 0, 252]",252,a,0.16891224484425038,colour,0.5
022,73,0,2,5,38,238,334.11883906828007,334.81575690885074,"[35, 0, 219]",219,a,0.17423467861954123,colour,0.5
022,73,0,2,5,39,239,335.3369855978526,336.023763875186,"[20, 0, 234]",234,a,0.16349725722102448,colour,0.5
022,73,0,2,5,40,240,336.5401108440128,337.2077651449363,"[0, 0, 254]",254,a,0.14425237016985193,colour,0.5
022,73,0,2,5,41,241,337.72888395097107,338.335791457037,"[78, 0, 176]",176,l,0.08338781539350748,colour,0.5
022,73,0,2,5,42,242,338.85395169246476,339.51975570525974,"[75, 0, 179]",179,l,0.14243201434146613,colour,0.5
022,73,0,2,5,43,243,340.0411210588063,340.67978751222836,"[67, 0, 187]",187,l,0.11544923635665327,colour,0.5
022,73,0,2,5,44,244,341.1973794280202,341.791766966111,"[82, 0, 172]",172,l,0.07115220412379131,colour,0.5
022,73,0,2,5,45,245,342.30672247725306,343.03978119499516,"[56, 0, 198]",198,l,0.20967844844562933,colour,0.5
022,73,0,2,5,46,246,343.55910288199084,344.2157507648808,"[38, 0, 216]",216,a,0.13342121354071423,colour,0.5
022,73,0,2,5,47,247,344.7309662143234,345.40775498375297,"[29, 0, 225]",225,a,0.15350302320439368,colour,0.5
022,73,0,2,5,48,248,345.9184037897503,346.5677844276652,"[8, 0, 246]",246,a,0.12604959937743843,colour,0.5
022,73,0,2,5,49,249,347.0746523128473,347.78381836769404,"[80, 0, 174]",174,l,0.18602288083638996,colour,0.5
022,73,0,2,5,50,250,348.2934258450987,348.9998243447044,"[57, 0, 197]",197,l,0.18313677795231342,colour,0.5
022,73,0,2,6,1,251,355.90584443719126,356.8557023375761,"[73, 0, 181]",181,l,0.4256481916527264,colour,0.5
022,73,0,2,6,2,252,357.3753958151792,358.09572149423184,"[87, 0, 167]",167,l,0.19718053581891581,colour,0.5
022,73,0,2,6,3,253,358.60977194749285,359.1677381901536,"[82, 0, 172]",172,l,0.039554733550176024,colour,0.5
022,73,0,2,6,4,254,359.6714245879557,360.2478082474554,"[35, 0, 219]",219,a,0.053031747112981975,colour,0.5
022,73,0,2,6,5,255,360.76516779413214,361.3677492965944,"[46, 0, 208]",208,a,0.07933080854127184,colour,0.5
022,73,0,2,6,6,256,361.8782106319559,362.52771769440733,"[17, 0, 237]",237,a,0.12623510078992695,colour,0.5
022,73,0,2,6,7,257,363.03450759808766,363.67182394774863,"[37, 0, 217]",217,a,0.11401839420432225,colour,0.5
022,73,0,2,6,8,258,364.1811415545526,364.91973577666795,"[28, 0, 226]",226,a,0.223522920277901,colour,0.5
022,73,0,2,6,9,259,365.4385013532592,366.079819177452,"[62, 0, 192]",192,l,0.11802144412649795,colour,0.5
022,73,0,2,6,10,260,366.59469591942616,367.23969777842285,"[88, 0, 166]",166,l,0.12167239584960043,colour,0.5
022,73,0,2,6,11,261,367.750913722557,368.3517170106643,"[97, 0, 157]",157,l,0.07743286498589441,colour,0.5
022,73,0,2,6,12,262,368.860331602511,369.4477783939219,"[27, 0, 227]",227,a,0.06418349436717108,colour,0.5
022,73,0,2,6,13,263,369.95404172560666,370.6077200102154,"[33, 0, 221]",221,a,0.13025941845262423,colour,0.5
022,73,0,2,6,14,264,371.12609961780254,371.74376108677825,"[63, 0, 191]",191,l,0.09450529800960794,colour,0.5
022,73,0,2,6,15,265,372.25090742099565,372.9837235296145,"[58, 0, 196]",196,l,0.20940157474251464,colour,0.5
022,73,0,2,6,16,266,373.5035040471703,374.1356905536959,"[81, 0, 173]",173,l,0.10883026185911149,colour,0.5
022,73,0,2,6,17,267,374.6441448502592,375.3757167995791,"[13, 0, 241]",241,a,0.2082613907987252,colour,0.5
022,73,0,2,6,18,268,375.8941117671784,376.5517482032883,"[14, 0, 240]",240,a,0.1344349728897214,colour,0.5
022,73,0,2,6,19,269,377.0659242933616,377.8077007905231,"[23, 0, 231]",231,a,0.2184194647707045,colour,0.5
022,73,0,2,6,20,270,378.3159463487682,379.02375245367875,"[36, 0, 218]",218,a,0.18454989715246484,colour,0.5
022,73,0,2,6,21,271,379.5347222441342,380.16766414709855,"[90, 0, 164]",164,l,0.10835961595876142,colour,0.5
022,73,0,2,6,22,272,380.67653552646516,381.3676799797104,"[10, 0, 244]",244,a,0.16782798699568957,colour,0.5
022,73,0,2,6,23,273,381.8796213880414,382.5357170989155,"[3, 0, 251]",251,a,0.13275010004872456,colour,0.5
022,73,0,2,6,24,274,383.05146778497146,383.78368839854375,"[41, 0, 213]",213,a,0.2091896856436506,colour,0.5
022,73,0,2,6,25,275,384.30153316340875,384.8557681098464,"[65, 0, 189]",189,l,0.030875550990458578,colour,0.5
022,73,0,2,6,26,276,385.3640337541583,386.0717126468662,"[50, 0, 204]",204,l,0.18207142472965643,colour,0.5
022,73,0,2,6,27,277,386.58507308206754,387.14373013045406,"[61, 0, 193]",193,l,0.03563517890870571,colour,0.5
022,73,0,2,6,28,278,387.66317627282115,388.29574520373717,"[83, 0, 171]",171,l,0.10913549241377041,colour,0.5
022,73,0,2,6,29,279,388.8038923004642,389.3837335333228,"[70, 0, 184]",184,l,0.05663976963842288,colour,0.5
022,73,0,2,6,30,280,389.8976138451253,390.7997443152126,"[52, 0, 202]",202,l,0.3791920959483832,colour,0.5
022,73,0,2,6,31,281,391.3194196759141,391.879727726453,"[7, 0, 247]",247,a,0.0355193882714957,colour,0.5
022,73,0,2,6,32,282,392.39898915507365,393.6556967449724,"[51, 0, 203]",203,l,0.7333663114113733,colour,0.5
022,73,0,2,6,33,283,394.16462759504793,394.69573393976316,"[31, 0, 223]",223,a,0.007376340276096016,colour,0.5
022,73,0,2,6,34,284,395.2118130933377,395.8957131446805,"[92, 0, 162]",162,l,0.16053750517312437,colour,0.5
022,73,0,2,6,35,285,396.4148674472235,397.07969747908646,"[2, 0, 252]",252,a,0.14130876574199647,colour,0.5
022,73,0,2,6,36,286,397.58684145024745,398.2556934366585,"[19, 0, 235]",235,a,0.14548825868405402,colour,0.5
022,73,0,2,6,37,287,398.77432943793247,399.3917112763156,"[68, 0, 186]",186,l,0.09416974132182077,colour,0.5
022,73,0,2,6,38,288,399.8993719732971,400.6079740408459,"[32, 0, 222]",222,a,0.18569362570997328,colour,0.5
022,73,0,2,6,39,289,401.11805413331604,401.80765155982226,"[16, 0, 238]",238,a,0.1662797786993906,colour,0.5
022,73,0,2,6,40,290,402.32116520102136,402.94370642094873,"[76, 0, 178]",178,l,0.09917473525274545,colour,0.5
022,73,0,2,6,41,291,403.46412339352537,404.983715652721,"[40, 0, 214]",214,a,0.9962777622276917,colour,0.5
022,73,0,2,6,42,292,405.4940127542941,406.255706039723,"[26, 0, 228]",228,a,0.2383689422858879,colour,0.5
022,73,0,2,6,43,293,406.77529948041774,407.56768084620126,"[48, 0, 206]",206,l,0.2693425609031692,colour,0.5
022,73,0,2,6,44,294,408.08777722815285,408.66378397709923,"[98, 0, 156]",156,l,0.05385803588433191,colour,0.5
022,73,0,2,6,45,295,409.1803495303611,409.83168128097896,"[59, 0, 195]",195,l,0.12610198085894808,colour,0.5
022,73,0,2,6,46,296,410.3383234924404,410.95967411616584,"[64, 0, 190]",190,l,0.097973111376632,colour,0.5
022,73,0,2,6,47,297,411.47897177858977,412.07169413613155,"[69, 0, 185]",185,l,0.06968512810999528,colour,0.5
022,73,0,2,6,48,298,412.588321523217,413.3436927938601,"[0, 0, 254]",254,a,0.23201581370085478,colour,0.5
022,73,0,2,6,49,299,413.8539308186155,414.43170908652246,"[84, 0, 170]",170,l,0.05498601059662178,colour,0.5
022,73,0,2,6,50,300,414.94777878775494,415.6236987331067,"[6, 0, 248]",248,a,0.15269524522591382,colour,0.5
022,73,0,2,7,1,301,422.6511994183529,423.79166614153655,"[7, 0, 247]",247,a,0.6163873773766682,colour,0.5
022,73,0,2,7,2,302,424.30829786096,425.3677103058435,"[49, 0, 205]",205,a,0.5363251969683915,colour,0.5
022,73,0,2,7,3,303,425.8865140855196,426.5998163102777,"[38, 0, 216]",216,a,0.19015865691471845,colour,0.5
022,73,0,2,7,4,304,427.1207641871297,427.831681674812,"[30, 0, 224]",224,a,0.18765655375318602,colour,0.5
022,73,0,2,7,5,305,428.3394869132899,428.95166998548666,"[58, 0, 196]",196,l,0.08888787362957373,colour,0.5
022,73,0,2,7,6,306,429.46440656873165,430.09567265730584,"[24, 0, 230]",230,a,0.10788266855524853,colour,0.5
022,73,0,2,7,7,307,430.6051277163788,431.24766843213,"[62, 0, 192]",192,l,0.11918604647507891,colour,0.5
022,73,0,2,7,8,308,431.76129668258363,432.51978484983556,"[32, 0, 222]",222,a,0.23514137492747977,colour,0.5
022,73,0,2,7,9,309,433.0268949502497,433.687710116792,"[33, 0, 221]",221,a,0.1351088432711549,colour,0.5
022,73,0,2,7,10,310,434.20100399205694,434.799682087556,"[72, 0, 182]",182,l,0.07539431849727407,colour,0.5
022,73,0,2,7,11,311,435.31048213044414,435.99170718027744,"[68, 0, 186]",186,l,0.1579511190066114,colour,0.5
022,73,0,2,7,12,312,436.4979327027686,437.15971515490673,"[66, 0, 188]",188,l,0.138502613583114,colour,0.5
022,73,0,2,7,13,313,437.66982005967293,438.3596927844337,"[82, 0, 172]",172,l,0.1665527138975449,colour,0.5
022,73,0,2,7,14,314,438.8729008012451,439.6396294067381,"[93, 0, 161]",161,l,0.2433333700755611,colour,0.5
022,73,0,2,7,15,315,440.15535961283604,440.8076641628868,"[75, 0, 179]",179,l,0.12899674841901287,colour,0.5
022,73,0,2,7,16,316,441.32721231132746,441.97570955281844,"[91, 0, 163]",163,l,0.12514414760516956,colour,0.5
022,73,0,2,7,17,317,442.4834710743744,443.0796592760016,"[27, 0, 227]",227,a,0.07284810463897884,colour,0.5
022,73,0,2,7,18,318,443.5928172743879,444.1998145773541,"[85, 0, 169]",169,l,0.08360836905194446,colour,0.5
022,73,0,2,7,19,319,444.7178156989976,445.4076919683721,"[0, 0, 254]",254,a,0.16647158161504194,colour,0.5
022,73,0,2,7,20,320,445.92239659972256,446.5756912783836,"[31, 0, 223]",223,a,0.1299313447671011,colour,0.5
022,73,0,2,7,21,321,447.0942429966526,447.7837179370108,"[95, 0, 159]",159,l,0.16610806185053661,colour,0.5
022,73,0,2,7,22,322,448.2917413660907,449.31167036358966,"[50, 0, 204]",204,l,0.4912136913626455,colour,0.5
022,73,0,2,7,23,323,449.82842141826404,450.51167477463605,"[44, 0, 210]",210,a,0.15992271166760474,colour,0.5
022,73,0,2,7,24,324,451.03150137217017,451.9757134912652,"[35, 0, 219]",219,a,0.42085784365190193,colour,0.5
022,73,0,2,7,25,325,452.48468766442966,453.1596958564478,"[73, 0, 181]",181,l,0.15473182243295014,colour,0.5
022,73,0,2,7,26,326,453.6691375246737,454.68769042450003,"[48, 0, 206]",206,l,0.49532150430604815,colour,0.5
022,73,0,2,7,27,327,455.2047514359583,455.9116375168087,"[96, 0, 158]",158,l,0.18394888821057975,colour,0.5
022,73,0,2,7,28,328,456.4234804636799,457.0316585166729,"[77, 0, 177]",177,l,0.08480014681117609,colour,0.5
022,73,0,2,7,29,329,457.5484261129168,458.1276840599603,"[3, 0, 251]",251,a,0.05579890857916325,colour,0.5
022,73,0,2,7,30,330,458.6422047652304,459.3436825539102,"[84, 0, 170]",170,l,0.17815226397942752,colour,0.5
022,73,0,2,7,31,331,459.8609897190472,460.5596924693673,"[15, 0, 239]",239,a,0.17586598842171952,colour,0.5
022,73,0,2,7,32,332,461.0797514359583,461.99166700802743,"[51, 0, 203]",203,a,0.3886550319730304,colour,0.5
022,73,0,2,7,33,333,462.5016072852304,463.1996865774272,"[29, 0, 225]",225,a,0.1747246229206212,colour,0.5
022,73,0,2,7,34,334,463.70630988426274,464.3756967134541,"[40, 0, 214]",214,a,0.14591400610515848,colour,0.5
022,73,0,2,7,35,335,464.893793933501,465.56777064304333,"[56, 0, 198]",198,l,0.15065591101301834,colour,0.5
022,73,0,2,7,36,336,466.0812393858796,467.0876370189944,"[42, 0, 212]",212,a,0.48299924697494134,colour,0.5
022,73,0,2,7,37,337,467.59697313659126,468.18369288841495,"[61, 0, 193]",193,l,0.06378807307919487,colour,0.5
022,73,0,2,7,38,338,468.6907155550434,469.8316852194257,"[43, 0, 211]",211,a,0.6178001026855782,colour,0.5
022,73,0,2,7,39,339,470.3483208772959,471.1116761924932,"[39, 0, 215]",215,a,0.23986752599012107,colour,0.5
022,73,0,2,7,40,340,471.62958751729457,472.3516693553538,"[52, 0, 202]",202,l,0.19878427643561736,colour,0.5
022,73,0,2,7,41,341,472.86400303419214,473.79965254914714,"[9, 0, 245]",245,a,0.4130774175282568,colour,0.5
022,73,0,2,7,42,342,474.31703730195295,474.9197050567018,"[1, 0, 253]",253,a,0.07929654396139085,colour,0.5
022,73,0,2,7,43,343,475.42646108957706,476.19166511757066,"[60, 0, 194]",194,l,0.24186314328107983,colour,0.5
022,73,0,2,7,44,344,476.7076095758239,477.38370950869285,"[57, 0, 197]",197,l,0.15283427276881412,colour,0.5
022,73,0,2,7,45,345,477.89516372961225,478.61568475625245,"[55, 0, 199]",199,l,0.19463944190647453,colour,0.5
022,73,0,2,7,46,346,479.13209789118264,479.9356727518607,"[2, 0, 252]",252,a,0.28019774216227233,colour,0.5
022,73,0,2,7,47,347,480.44461699272506,481.1356295075966,"[76, 0, 178]",178,l,0.1676594209857285,colour,0.5
022,73,0,2,7,48,348,481.64779107575305,482.56765091390116,"[20, 0, 234]",234,a,0.39668239949969575,colour,0.5
022,73,0,2,7,49,349,483.08519793121377,484.15167636575643,"[59, 0, 195]",195,l,0.5431737836916,colour,0.5
022,73,0,2,7,50,350,484.66329285124084,485.3836543702637,"[14, 0, 240]",240,a,0.19547124451491982,colour,0.5
022,73,0,2,8,1,351,491.61881898209685,492.8796769203036,"[2, 0, 252]",252,a,0.736739995481912,colour,0.5
022,73,0,2,8,2,352,493.40085756010376,494.13562990142964,"[58, 0, 196]",196,l,0.2114649335271679,colour,0.5
022,73,0,2,8,3,353,494.6509024585248,495.2876355223707,"[75, 0, 179]",179,l,0.11367850512033328,colour,0.5
022,73,0,2,8,4,354,495.806781554129,496.49568581179483,"[83, 0, 171]",171,l,0.1655988190905191,colour,0.5
022,73,0,2,8,5,355,497.0072432203451,497.6156221347628,"[77, 0, 177]",177,l,0.08505417744163424,colour,0.5
022,73,0,2,8,6,356,498.1321427896619,498.8156296966481,"[31, 0, 223]",223,a,0.16006764699704945,colour,0.5
022,73,0,2,8,7,357,499.33537555573275,500.15164997812826,"[54, 0, 200]",200,l,0.29305444844067097,colour,0.5
022,73,0,2,8,8,358,500.6634523588,501.30370719288476,"[29, 0, 225]",225,a,0.11679303867276758,colour,0.5
022,73,0,2,8,9,359,501.819676463434,502.45565649389755,"[33, 0, 221]",221,a,0.1125406842911616,colour,0.5
022,73,0,2,8,10,360,502.9759604326682,503.6316315776203,"[90, 0, 164]",164,l,0.1324216325301677,colour,0.5
022,73,0,2,8,11,361,504.1478084049886,504.88761842949316,"[93, 0, 161]",161,l,0.21644472138723359,colour,0.5
022,73,0,2,8,12,362,505.39785015268717,506.19166708679404,"[34, 0, 220]",220,a,0.27050361869623885,colour,0.5
022,73,0,2,8,13,363,506.71027866960503,507.55162453564117,"[56, 0, 198]",198,l,0.3179695351864211,colour,0.5
022,73,0,2,8,14,364,508.0697020634543,508.767662414175,"[43, 0, 211]",211,a,0.17211736290482804,colour,0.5
022,73,0,2,8,15,365,509.27521401585545,510.4956598179415,"[51, 0, 203]",203,l,0.6973108988022432,colour,0.5
022,73,0,2,8,16,366,511.0096283512539,511.6476469281479,"[6, 0, 248]",248,a,0.11620542057789862,colour,0.5
022,73,0,2,8,17,367,512.1646291704383,512.8316749794758,"[70, 0, 184]",184,l,0.1437072874396108,colour,0.5
022,73,0,2,8,18,368,513.3520332689513,513.9516254808987,"[94, 0, 160]",160,l,0.07624778267927468,colour,0.5
022,73,0,2,8,19,369,514.463870150561,515.17565961316,"[44, 0, 210]",210,a,0.18877468234859407,colour,0.5
022,73,0,2,8,20,370,515.6825164706679,516.399633486988,"[10, 0, 244]",244,a,0.1937469870899804,colour,0.5
022,73,0,2,8,21,371,516.9168638521805,517.6556093111285,"[40, 0, 214]",214,a,0.21527106047142297,colour,0.5
022,73,0,2,8,22,372,518.1669209598331,518.7835970263113,"[16, 0, 238]",238,a,0.09322372340830043,colour,0.5
022,73,0,2,8,23,373,519.291959950584,520.0156348953606,"[55, 0, 199]",199,l,0.20052743842825294,colour,0.5
022,73,0,2,8,24,374,520.5286708015483,521.2316081831814,"[15, 0, 239]",239,a,0.1795031555229798,colour,0.5
022,73,0,2,8,25,375,521.7474470907473,522.3356205279124,"[66, 0, 188]",188,l,0.06479277403559536,colour,0.5
022,73,0,2,8,26,376,522.8567948661512,523.583637907519,"[12, 0, 242]",242,a,0.20414294401416555,colour,0.5
022,73,0,2,8,27,377,524.091182419972,524.863681262068,"[17, 0, 237]",237,a,0.2492272742674686,colour,0.5
022,73,0,2,8,28,378,525.3724695399869,525.9836479112273,"[78, 0, 176]",176,l,0.08778668049490079,colour,0.5
022,73,0,2,8,29,379,526.4974884445546,527.2155955895432,"[0, 0, 254]",254,a,0.19478280184557661,colour,0.5
022,73,0,2,8,30,380,527.7317779307486,528.3276565695414,"[74, 0, 180]",180,l,0.07235934189520776,colour,0.5
022,73,0,2,8,31,381,528.8412430722383,530.0476569318562,"[39, 0, 215]",215,l,0.6831970363855362,colour,0.5
022,73,0,2,8,32,382,530.5628247259883,531.3195795773645,"[45, 0, 209]",209,a,0.23404805862810463,colour,0.5
022,73,0,2,8,33,383,531.8280322985374,532.6637256878894,"[68, 0, 186]",186,l,0.3126411937410012,colour,0.5
022,73,0,2,8,34,384,533.1715258063632,533.8716310419841,"[73, 0, 181]",181,l,0.1767446586745791,colour,0.5
022,73,0,2,8,35,385,534.390330846305,535.263669998094,"[53, 0, 201]",201,l,0.3500207163160667,colour,0.5
022,73,0,2,8,36,386,535.7823134824284,536.5116180608165,"[80, 0, 174]",174,l,0.2060306475032121,colour,0.5
022,73,0,2,8,37,387,537.0323193901568,537.6476063620648,"[1, 0, 253]",253,a,0.0919070965028368,colour,0.5
022,73,0,2,8,38,388,538.157355230127,539.0235968845082,"[41, 0, 213]",213,a,0.3430587019538507,colour,0.5
022,73,0,2,8,39,389,539.5323386886157,540.3995755916694,"[19, 0, 235]",235,a,0.3440102337044664,colour,0.5
022,73,0,2,8,40,390,540.9073532609036,541.6315874668653,"[32, 0, 222]",222,a,0.21097262611147016,colour,0.5
022,73,0,2,8,41,391,542.1472341776243,542.775611406425,"[72, 0, 182]",182,l,0.10509227024158463,colour,0.5
022,73,0,2,8,42,392,543.2878895530012,544.33563352481,"[27, 0, 227]",227,a,0.5244050563778728,colour,0.5
022,73,0,2,8,43,393,544.8518083829549,545.583638301352,"[22, 0, 232]",232,a,0.2084480737685226,colour,0.5
022,73,0,2,8,44,394,546.1017615152523,546.6877971567446,"[88, 0, 166]",166,l,0.0625313107157126,colour,0.5
022,73,0,2,8,45,395,547.1955602536909,547.8076417136472,"[95, 0, 159]",159,l,0.08930692571448162,colour,0.5
022,73,0,2,8,46,396,548.3203003153903,549.0396850965335,"[91, 0, 163]",163,l,0.19610376103082672,colour,0.5
022,73,0,2,8,47,397,549.5546823553741,550.6795964969788,"[49, 0, 205]",205,l,0.6004968759953044,colour,0.5
022,73,0,2,8,48,398,551.1964779146947,551.8236432795529,"[42, 0, 212]",212,a,0.10392057860735804,colour,0.5
022,73,0,2,8,49,399,552.3370919362642,553.0796175283613,"[61, 0, 193]",193,l,0.21927804889855906,colour,0.5
022,73,0,2,8,50,400,553.587190397724,554.3755884058191,"[52, 0, 202]",202,l,0.26513195416191593,colour,0.5
022,73,0,2,9,1,401,560.8220615943428,561.655577015772,"[4, 0, 250]",250,a,0.3094203217769973,colour,0.5
022,73,0,2,9,2,402,562.1666192738921,562.7915869785356,"[91, 0, 163]",163,l,0.10175481991609558,colour,0.5
022,73,0,2,9,3,403,563.3071458616178,564.0315643874928,"[96, 0, 158]",158,l,0.2010843365569599,colour,0.5
022,73,0,2,9,4,404,564.5415913108154,565.2875914116157,"[34, 0, 220]",220,a,0.2215812598587945,colour,0.5
022,73,0,2,9,5,405,565.8083486670512,566.4715938629233,"[61, 0, 193]",193,l,0.1401225018198602,colour,0.5
022,73,0,2,9,6,406,566.9802761962637,567.623601846979,"[18, 0, 236]",236,a,0.12005644600139931,colour,0.5
022,73,0,2,9,7,407,568.1364676117082,568.8156206381391,"[59, 0, 195]",195,l,0.15586885559605435,colour,0.5
022,73,0,2,9,8,408,569.3239075501915,570.2236347725266,"[31, 0, 223]",223,a,0.37713031261228025,colour,0.5
022,73,0,2,9,9,409,570.7302415378508,571.4715942568146,"[43, 0, 211]",211,a,0.21810163115151227,colour,0.5
022,73,0,2,9,10,410,571.9816897092969,573.135765384417,"[49, 0, 205]",205,l,0.6307962303981185,colour,0.5
022,73,0,2,9,11,411,573.6534337062621,574.3915931225056,"[95, 0, 159]",159,l,0.21479017462115735,colour,0.5
022,73,0,2,9,12,412,574.9035195647157,575.6556250649737,"[22, 0, 232]",232,a,0.22885362477973104,colour,0.5
022,73,0,2,9,13,413,576.1690146447509,576.8235944426851,"[89, 0, 165]",165,l,0.13122749171452597,colour,0.5
022,73,0,2,9,14,414,577.3409130293876,578.5115869470173,"[40, 0, 214]",214,a,0.6473338206415065,colour,0.5
022,73,0,2,9,15,415,579.0284112570807,579.7436059114989,"[44, 0, 210]",210,a,0.19179666211130098,colour,0.5
022,73,0,2,9,16,416,580.2639972840552,580.8396720208693,"[85, 0, 169]",169,l,0.052284621400758624,colour,0.5
022,73,0,2,9,17,417,581.3577026809799,582.0476120334351,"[74, 0, 180]",180,l,0.16666023386642337,colour,0.5
022,73,0,2,9,18,418,582.5608326533111,583.2555796151864,"[71, 0, 183]",183,l,0.17140725877834484,colour,0.5
022,73,0,2,9,19,419,583.7639894071035,584.5515725479927,"[88, 0, 166]",166,l,0.26416427467484027,colour,0.5
022,73,0,2,9,20,420,585.0608877917402,585.6956169675104,"[27, 0, 227]",227,a,0.11379390198271722,colour,0.5
022,73,0,2,9,21,421,586.2149295961135,586.8635808313848,"[93, 0, 161]",161,l,0.1223911646520719,colour,0.5
022,73,0,2,9,22,422,587.3745202956488,588.2156369434088,"[2, 0, 252]",252,a,0.31793566449778154,colour,0.5
022,73,0,2,9,23,423,588.7338598003262,589.471661604417,"[72, 0, 182]",182,l,0.21445186098571867,colour,0.5
022,73,0,2,9,24,424,589.9838861880125,590.7755802925676,"[35, 0, 219]",219,a,0.2683764568064362,colour,0.5
022,73,0,2,9,25,425,591.2964486125857,592.0475931288092,"[28, 0, 226]",226,a,0.22785798233235255,colour,0.5
022,73,0,2,9,26,426,592.5619673234178,593.2715402211179,"[63, 0, 191]",191,l,0.18621074536349624,colour,0.5
022,73,0,2,9,27,427,593.7806872926303,594.5035564286518,"[13, 0, 241]",241,a,0.1994258514023386,colour,0.5
022,73,0,2,9,28,428,595.0165415286901,596.1915635052719,"[45, 0, 209]",209,a,0.6520205870619975,colour,0.5
022,73,0,2,9,29,429,596.704023608705,597.503749413183,"[57, 0, 197]",197,l,0.27635774441296235,colour,0.5
022,73,0,2,9,30,430,598.0165659471531,598.6715998494183,"[36, 0, 218]",218,a,0.13166623609140515,colour,0.5
022,73,0,2,9,31,431,599.1883887133445,599.9355486903805,"[30, 0, 224]",224,a,0.22377813240746036,colour,0.5
022,73,0,2,9,32,432,600.4539728025557,601.0716145792394,"[94, 0, 160]",160,l,0.0945297164726071,colour,0.5
022,73,0,2,9,33,433,601.5790295163752,602.359600624477,"[20, 0, 234]",234,a,0.25719595880946144,colour,0.5
022,73,0,2,9,34,434,602.8758774886956,603.8315847887425,"[21, 0, 233]",233,a,0.43234908615704626,colour,0.5
022,73,0,2,9,35,435,604.3446644117939,605.0636340793571,"[68, 0, 186]",186,l,0.19582413049647585,colour,0.5
022,73,0,2,9,36,436,605.5789243595209,606.4316015665536,"[10, 0, 244]",244,a,0.32985344203189015,colour,0.5
022,73,0,2,9,37,437,606.9385785470367,607.6635965064634,"[54, 0, 200]",200,l,0.20029979554237798,colour,0.5
022,73,0,2,9,38,438,608.1743477123673,608.7916515692486,"[65, 0, 189]",189,l,0.09447300265310332,colour,0.5
022,73,0,2,9,39,439,609.2994186046417,610.0476388149546,"[23, 0, 231]",231,a,0.22484781796811149,colour,0.5
022,73,0,2,9,40,440,610.565085795417,611.3356024109526,"[52, 0, 202]",202,l,0.24712453089887276,colour,0.5
022,73,0,2,9,41,441,611.8462023800821,612.4636318737757,"[58, 0, 196]",196,l,0.09424417815171182,colour,0.5
022,73,0,2,9,42,442,612.9712283739354,613.5836087629432,"[80, 0, 174]",174,l,0.0880820649326779,colour,0.5
022,73,0,2,9,43,443,614.0979577513644,614.9116241260781,"[19, 0, 235]",235,a,0.2912498463992961,colour,0.5
022,73,0,2,9,44,444,615.4313719543861,616.4796180797275,"[51, 0, 203]",203,l,0.5253684034687467,colour,0.5
022,73,0,2,9,45,445,616.9876675026608,617.7436523853103,"[60, 0, 194]",194,l,0.23271370871225372,colour,0.5
022,73,0,2,9,46,446,618.2532496227068,619.0155947231106,"[33, 0, 221]",221,a,0.23950164311099797,colour,0.5
022,73,0,2,9,47,447,619.5344697888941,620.2637038688408,"[32, 0, 222]",222,a,0.2054725678754039,colour,0.5
022,73,0,2,9,48,448,620.770438634092,621.4795983874355,"[24, 0, 230]",230,a,0.18639624677598476,colour,0.5
022,73,0,2,9,49,449,621.989042024943,622.6638922847342,"[75, 0, 179]",179,l,0.1513266306137666,colour,0.5
022,73,0,2,9,50,450,623.1766150833573,623.935556173441,"[66, 0, 188]",188,l,0.23591291904449463,colour,0.5
022,73,0,2,10,1,451,629.7902522346703,630.8955433971132,"[27, 0, 227]",227,a,0.585114435874857,colour,0.5
022,73,0,2,10,2,452,631.4128891591681,632.1835924576735,"[12, 0, 242]",242,a,0.24715367547469214,colour,0.5
022,73,0,2,10,3,453,632.6942420513951,633.4716044967645,"[34, 0, 220]",220,a,0.25385299464687705,colour,0.5
022,73,0,2,10,4,454,633.9911943929037,634.56757608318,"[77, 0, 177]",177,l,0.053183377836830914,colour,0.5
022,73,0,2,10,5,455,635.085189266596,635.9117351906025,"[75, 0, 179]",179,l,0.303388177708257,colour,0.5
022,73,0,2,10,6,456,636.428634331387,637.1595320165507,"[17, 0, 237]",237,a,0.2079565540771,colour,0.5
022,73,0,2,10,7,457,637.6786162144854,638.6395443360088,"[70, 0, 184]",184,l,0.4375127999810502,colour,0.5
022,73,0,2,10,8,458,639.1473802944529,639.9355412073201,"[59, 0, 195]",195,l,0.26489210198633373,colour,0.5
022,73,0,2,10,9,459,640.4457331520389,641.2395989230718,"[63, 0, 191]",191,l,0.2704701417242177,colour,0.5
022,73,0,2,10,10,460,641.7582030228805,642.5755943922559,"[66, 0, 188]",188,l,0.2941162569914013,colour,0.5
022,73,0,2,10,11,461,643.0864078258746,644.127558816981,"[45, 0, 209]",209,l,0.5179999401443638,colour,0.5
022,73,0,2,10,12,462,644.6487701767473,645.2715351011138,"[29, 0, 225]",225,a,0.099322427471634,colour,0.5
022,73,0,2,10,13,463,645.7894566659234,646.5035587917664,"[24, 0, 230]",230,a,0.1907352473353967,colour,0.5
022,73,0,2,10,14,464,647.0101706770947,647.6075404164731,"[81, 0, 173]",173,l,0.07402649166760966,colour,0.5
022,73,0,2,10,15,465,648.1194676463492,649.2956128715305,"[46, 0, 208]",208,a,0.6527251774678007,colour,0.5
022,73,0,2,10,16,466,649.8058469577809,650.4155720375711,"[76, 0, 178]",178,l,0.08637671201722696,colour,0.5
022,73,0,2,10,17,467,650.9308824039181,651.927571341279,"[37, 0, 217]",217,a,0.473495744925458,colour,0.5
022,73,0,2,10,18,468,652.4488496548147,653.0475387781044,"[73, 0, 181]",181,l,0.07528876786818728,colour,0.5
022,73,0,2,10,19,469,653.558248236368,654.2235292217811,"[97, 0, 157]",157,l,0.14210551604628563,colour,0.5
022,73,0,2,10,20,470,654.7301737963571,655.7035828951048,"[38, 0, 216]",216,a,0.4519484345219098,colour,0.5
022,73,0,2,10,21,471,656.2127220897237,656.7755802925676,"[95, 0, 159]",159,l,0.03953661664854735,colour,0.5
022,73,0,2,10,22,472,657.2907500559231,658.0395586719969,"[5, 0, 249]",249,a,0.22548978676786646,colour,0.5
022,73,0,2,10,23,473,658.5564483604976,659.1995577898342,"[65, 0, 189]",189,l,0.11978036002255976,colour,0.5
022,73,0,2,10,24,474,659.7127023974317,660.4155684929574,"[0, 0, 254]",254,a,0.17952048470033333,colour,0.5
022,73,0,2,10,25,475,660.9313589574886,661.9915693342336,"[40, 0, 214]",214,a,0.5367978121503256,colour,0.5
022,73,0,2,10,26,476,662.5094680559705,663.3195283773821,"[56, 0, 198]",198,l,0.28668635367648676,colour,0.5
022,73,0,2,10,27,477,663.8376728589647,664.6635665741633,"[51, 0, 203]",203,l,0.30252723052399233,colour,0.5
022,73,0,2,10,28,478,665.1826291105826,665.8556168730138,"[99, 0, 155]",155,l,0.14967129623983055,colour,0.5
022,73,0,2,10,29,479,666.3701127659879,667.1357579013566,"[78, 0, 176]",176,l,0.24232118611689657,colour,0.5
022,73,0,2,10,30,480,667.6513794059865,668.4075793284574,"[21, 0, 233]",233,a,0.23280429322039708,colour,0.5
022,73,0,2,10,31,481,668.9170603813254,669.6395715114195,"[79, 0, 175]",175,l,0.19923286692937836,colour,0.5
022,73,0,2,10,32,482,670.1513282060041,671.1355909106787,"[44, 0, 210]",210,l,0.4594023624667898,colour,0.5
022,73,0,2,10,33,483,671.6528838973609,672.2075678281253,"[64, 0, 190]",190,l,0.0312894830130972,colour,0.5
022,73,0,2,10,34,484,672.715208832873,673.48753005045,"[84, 0, 170]",170,l,0.24868416076060385,colour,0.5
022,73,0,2,10,35,485,673.9965562112629,674.6155500609893,"[42, 0, 212]",212,a,0.10080013738479465,colour,0.5
022,73,0,2,10,36,486,675.1321991095901,675.9995986709837,"[62, 0, 192]",192,l,0.344194553559646,colour,0.5
022,73,0,2,10,37,487,676.507164057286,677.2556111228187,"[3, 0, 251]",251,a,0.22510027315001935,colour,0.5
022,73,0,2,10,38,488,677.7727694142377,678.6795941339224,"[43, 0, 211]",211,a,0.3834637488471344,colour,0.5
022,73,0,2,10,39,489,679.1946737065446,680.0075303339981,"[47, 0, 207]",207,a,0.2880849005305208,colour,0.5
022,73,0,2,10,40,490,680.5241758380434,681.2715465226793,"[6, 0, 248]",248,a,0.22404003998963162,colour,0.5
022,73,0,2,10,41,491,681.7898056134,682.4635657076724,"[9, 0, 245]",245,a,0.15042472345521674,colour,0.5
022,73,0,2,10,42,492,682.9763034724747,683.791520418541,"[36, 0, 218]",218,a,0.29182289220625535,colour,0.5
022,73,0,2,10,43,493,684.3044448663131,685.3116487020743,"[53, 0, 201]",201,l,0.48199848452350125,colour,0.5
022,73,0,2,10,44,494,685.8219509236515,686.5835079383687,"[89, 0, 165]",165,l,0.23812239471590146,colour,0.5
022,73,0,2,10,45,495,687.1031683328911,687.8556830391171,"[92, 0, 162]",162,l,0.2292352615040727,colour,0.5
022,73,0,2,10,46,496,688.3687933821348,689.071494062373,"[22, 0, 232]",232,a,0.17939602938713506,colour,0.5
022,73,0,2,10,47,497,689.5874436406302,690.3755990396603,"[15, 0, 239]",239,a,0.2646900590043515,colour,0.5
022,73,0,2,10,48,498,690.8843892867444,691.6315079100314,"[87, 0, 167]",167,l,0.22124452161369845,colour,0.5
022,73,0,2,10,49,499,692.1525467652828,692.9435232825927,"[68, 0, 186]",186,l,0.26768407569034025,colour,0.5
022,73,0,2,10,50,500,693.4649764637579,694.3034874268924,"[32, 0, 222]",222,a,0.31499914929736406,colour,0.5
022,73,0,2,11,1,501,701.3092982295784,703.0235378076322,"[38, 0, 216]",216,a,1.1901499922969379,colour,0.5
022,73,0,2,11,2,502,703.5444561460754,704.1995369159849,"[94, 0, 160]",160,l,0.1317615467705764,colour,0.5
022,73,0,2,11,3,503,704.7162186538335,705.3835626041982,"[3, 0, 251]",251,a,0.14394517039181665,colour,0.5
022,73,0,2,11,4,504,705.903798407584,706.6234899947303,"[75, 0, 179]",179,l,0.1966350591974333,colour,0.5
022,73,0,2,11,5,505,707.1382336168317,707.8955150402035,"[28, 0, 226]",226,a,0.2343198123271577,colour,0.5
022,73,0,2,11,6,506,708.403782653797,709.0955627743388,"[8, 0, 246]",246,a,0.1684849220328033,colour,0.5
022,73,0,2,11,7,507,709.6093619538588,710.2876016516238,"[90, 0, 164]",164,l,0.15999951161211357,colour,0.5
022,73,0,2,11,8,508,710.8074510922306,711.4875068135443,"[26, 0, 228]",228,a,0.156796756607946,colour,0.5
022,73,0,2,11,9,509,711.9949536522035,712.6955401675659,"[84, 0, 170]",170,l,0.18747420312138274,colour,0.5
022,73,0,2,11,10,510,713.2033737629536,714.0554850134067,"[64, 0, 190]",190,l,0.3289991903002374,colour,0.5
022,73,0,2,11,11,511,714.5628266952117,715.4395099926624,"[54, 0, 200]",200,l,0.3533487142995,colour,0.5
022,73,0,2,11,12,512,715.953469467524,716.5675162185798,"[27, 0, 227]",227,a,0.09070744179189205,colour,0.5
022,73,0,2,11,13,513,717.0784040890867,717.7675076327287,"[85, 0, 169]",169,l,0.1659855757607147,colour,0.5
022,73,0,2,11,14,514,718.2814990091138,719.0475415349938,"[59, 0, 195]",195,l,0.24535813194233924,colour,0.5
022,73,0,2,11,15,515,719.5599594968953,720.3515598661616,"[46, 0, 208]",208,a,0.2804257789393887,colour,0.5
022,73,0,2,11,16,516,720.8603721686522,721.6075293887989,"[62, 0, 192]",192,l,0.2238368154503405,colour,0.5
022,73,0,2,11,17,517,722.1259641348151,722.8395247224835,"[14, 0, 240]",240,a,0.19019016454694793,colour,0.5
022,73,0,2,11,18,518,723.3603193932795,724.0954922758974,"[76, 0, 178]",178,l,0.2117232964374125,colour,0.5
022,73,0,2,11,19,519,724.6128348871716,725.3354964664322,"[78, 0, 176]",176,l,0.19178405904676765,colour,0.5
022,73,0,2,11,20,520,725.8547460796544,726.663520888018,"[20, 0, 234]",234,a,0.28548788058105856,colour,0.5
022,73,0,2,11,21,521,727.1828441504622,728.4555320385844,"[36, 0, 218]",218,a,0.757888339983765,colour,0.5
022,73,0,2,11,22,522,728.9715178507031,729.5996638918878,"[81, 0, 173]",173,l,0.10474095965037122,colour,0.5
022,73,0,2,11,23,523,730.1134949729312,730.8475280654384,"[69, 0, 185]",185,l,0.2107615246786736,colour,0.5
022,73,0,2,11,24,524,731.3634213237674,732.111536771059,"[44, 0, 210]",210,l,0.2247552641783841,colour,0.5
022,73,0,2,11,25,525,732.6290451914538,733.3754812797415,"[57, 0, 197]",197,l,0.2230644836090505,colour,0.5
022,73,0,2,11,26,526,733.8960380675853,734.527518408373,"[74, 0, 180]",180,l,0.1080295731080696,colour,0.5
022,73,0,2,11,27,527,735.0367489752243,735.7354481809307,"[33, 0, 221]",221,a,0.17540833947714418,colour,0.5
022,73,0,2,11,28,528,736.2554437383078,736.983463985147,"[16, 0, 238]",238,a,0.20462501142174006,colour,0.5
022,73,0,2,11,29,529,737.4898553167586,738.2235170125496,"[35, 0, 219]",219,a,0.21034916798816994,colour,0.5
022,73,0,2,11,30,530,738.739797815273,739.4875513181323,"[4, 0, 250]",250,a,0.22441222437191755,colour,0.5
022,73,0,2,11,31,531,740.005390569102,740.6955953059951,"[87, 0, 167]",167,l,0.1668768491363153,colour,0.5
022,73,0,2,11,32,532,741.2085595321842,741.983517942077,"[86, 0, 168]",168,l,0.2519798634457402,colour,0.5
022,73,0,2,11,33,533,742.4897411014535,743.1115111710387,"[83, 0, 171]",171,l,0.09831969573860988,colour,0.5
022,73,0,2,11,34,534,743.6304004152771,744.7514698329614,"[29, 0, 225]",225,a,0.5976225884514861,colour,0.5
022,73,0,2,11,35,535,745.2722755314899,745.8635272683459,"[98, 0, 156]",156,l,0.06785138149280101,colour,0.5
022,73,0,2,11,36,536,746.3816457560752,747.1835282607935,"[13, 0, 241]",241,a,0.2784963277517818,colour,0.5
022,73,0,2,11,37,537,747.6941774606821,748.3594805015018,"[0, 0, 254]",254,a,0.14196373155573383,colour,0.5
022,73,0,2,11,38,538,748.8660892360494,749.6635842972319,"[30, 0, 224]",224,a,0.27417032420635223,colour,0.5
022,73,0,2,11,39,539,750.178545322211,750.9034793924075,"[79, 0, 175]",175,l,0.20182831154670566,colour,0.5
022,73,0,2,11,40,540,751.4129687160603,752.3995913454564,"[18, 0, 236]",236,a,0.46329946781042963,colour,0.5
022,73,0,2,11,41,541,752.9129297253094,753.6714560956461,"[80, 0, 174]",174,l,0.23520596569869667,colour,0.5
022,73,0,2,11,42,542,754.1785587129998,755.1996148974868,"[19, 0, 235]",235,a,0.49771096755284816,colour,0.5
022,73,0,2,11,43,543,755.711078964523,756.2875244578463,"[66, 0, 188]",188,l,0.05308334092842415,colour,0.5
022,73,0,2,11,44,544,756.8048375307117,757.455481232435,"[68, 0, 186]",186,l,0.1273221155279316,colour,0.5
022,73,0,2,11,45,545,757.9766642353497,758.9755169621785,"[34, 0, 220]",220,l,0.4755535898148082,colour,0.5
022,73,0,2,11,46,546,759.4922483245609,760.3114868314005,"[60, 0, 194]",194,l,0.2962284527020529,colour,0.5
022,73,0,2,11,47,547,760.8218079576036,761.8634898529854,"[48, 0, 206]",206,l,0.5188478904310614,colour,0.5
022,73,0,2,11,48,548,762.384233323799,762.935476616607,"[23, 0, 231]",231,a,0.027865780459251255,colour,0.5
022,73,0,2,11,49,549,763.4458091643173,764.0075212755473,"[97, 0, 157]",157,l,0.03842400189023465,colour,0.5
022,73,0,2,11,50,550,764.5238142875023,765.2394803754287,"[31, 0, 223]",223,a,0.19262925232760608,colour,0.5
022,73,0,2,12,1,551,772.6361623810953,773.8394593441044,"[44, 0, 210]",210,a,0.6791286080260761,colour,0.5
022,73,0,2,12,2,552,774.3557247867575,776.3754808858503,"[51, 0, 203]",203,a,1.498245022550691,colour,0.5
022,73,0,2,12,3,553,776.8851135694422,777.431499166647,"[91, 0, 163]",163,l,0.0230514079448767,colour,0.5
022,73,0,2,12,4,554,777.9476314894273,779.0314962521661,"[39, 0, 215]",215,a,0.560518758080434,colour,0.5
022,73,0,2,12,5,555,779.5413542155875,780.1354605476954,"[22, 0, 232]",232,a,0.07088596432004124,colour,0.5
022,73,0,2,12,6,556,780.6506992340437,781.1914662253694,"[79, 0, 175]",175,l,0.017436346621252596,colour,0.5
022,73,0,2,12,7,557,781.6994175806758,782.7195064795669,"[40, 0, 214]",214,a,0.4967283219448291,colour,0.5
022,73,0,2,12,8,558,783.2307499929448,783.855479814636,"[9, 0, 245]",245,a,0.10145549703156576,colour,0.5
022,73,0,2,12,9,559,784.3713533806149,785.1034802588983,"[54, 0, 200]",200,l,0.20883640588726848,colour,0.5
022,73,0,2,12,10,560,785.6213313252665,786.2314856970916,"[89, 0, 165]",165,l,0.08686114253941923,colour,0.5
022,73,0,2,12,11,561,786.7462387714768,787.6397507112706,"[1, 0, 253]",253,a,0.3700777136837132,colour,0.5
022,73,0,2,12,12,562,788.1549303208012,788.9514903917443,"[56, 0, 198]",198,l,0.27353898918954656,colour,0.5
022,73,0,2,12,13,563,789.4674120069249,790.9674754161388,"[42, 0, 212]",212,l,0.9767209491110407,colour,0.5
022,73,0,2,12,14,564,791.4830780161428,792.2314734878601,"[7, 0, 247]",247,a,0.22514044545823708,colour,0.5
022,73,0,2,12,15,565,792.7486412315629,793.5035335856373,"[50, 0, 204]",204,l,0.2313931433018297,colour,0.5
022,73,0,2,12,16,566,794.0143686807714,794.5674500524765,"[8, 0, 246]",246,a,0.029833828564733267,colour,0.5
022,73,0,2,12,17,567,795.0767743546749,796.1994479068089,"[38, 0, 216]",216,a,0.5993169136345387,colour,0.5
022,73,0,2,12,18,568,796.7174828991992,797.3834791088593,"[96, 0, 158]",158,l,0.14271952182753012,colour,0.5
022,73,0,2,12,19,569,797.9048732131487,798.5997584149009,"[30, 0, 224]",224,a,0.17141789256129414,colour,0.5
022,73,0,2,12,20,570,799.1088330188068,799.6954720322392,"[80, 0, 174]",174,l,0.06422524206573144,colour,0.5
022,73,0,2,12,21,571,800.2034029075294,800.9674828991992,"[20, 0, 234]",234,a,0.240755254693795,colour,0.5
022,73,0,2,12,22,572,801.4846514306264,802.2155097311479,"[0, 0, 254]",254,a,0.2075745235197246,colour,0.5
022,73,0,2,12,23,573,802.7345915660262,803.8154276536661,"[43, 0, 211]",211,a,0.5573691722820513,colour,0.5
022,73,0,2,12,24,574,804.328445836727,804.9194703245303,"[74, 0, 180]",180,l,0.06772810767870396,colour,0.5
022,73,0,2,12,25,575,805.4377999136923,806.3514992138953,"[32, 0, 222]",222,a,0.39042261242866516,colour,0.5
022,73,0,2,12,26,576,806.85968923982,807.5194555946509,"[62, 0, 192]",192,l,0.14878120442153886,colour,0.5
022,73,0,2,12,27,577,808.0404991760734,809.2634222690249,"[10, 0, 244]",244,a,0.7066281117731705,colour,0.5
022,73,0,2,12,28,578,809.7834674509941,810.407508830016,"[95, 0, 159]",159,l,0.10094664804637432,colour,0.5
022,73,0,2,12,29,579,810.9240306664142,811.9034951462527,"[35, 0, 219]",219,a,0.45613659208174795,colour,0.5
022,73,0,2,12,30,580,812.4240830479539,813.2874263902195,"[52, 0, 202]",202,l,0.3400926483445801,colour,0.5
022,73,0,2,12,31,581,813.7990468140924,814.6234309178544,"[6, 0, 248]",248,a,0.30110032676020637,colour,0.5
022,73,0,2,12,32,582,815.1448262037011,816.1355145045673,"[24, 0, 230]",230,a,0.4673655331134796,colour,0.5
022,73,0,2,12,33,583,816.644880554406,817.6714631848736,"[53, 0, 201]",201,l,0.5032897950150073,colour,0.5
022,73,0,2,12,34,584,818.1917698805337,818.9754771837033,"[59, 0, 195]",195,l,0.2608280059066601,colour,0.5
022,73,0,2,12,35,585,819.4885390836862,820.1674652548973,"[86, 0, 168]",168,l,0.1555447204154916,colour,0.5
022,73,0,2,12,36,586,820.6760518836672,821.431454662059,"[5, 0, 249]",249,a,0.23248252115445212,colour,0.5
022,73,0,2,12,37,587,821.9417620036402,822.7275110040791,"[78, 0, 176]",176,l,0.2625794387422502,colour,0.5
022,73,0,2,12,38,588,823.238587526721,823.92743388901,"[83, 0, 171]",171,l,0.16394899849547073,colour,0.5
022,73,0,2,12,39,589,824.4431522797677,825.1914500776911,"[13, 0, 241]",241,a,0.22557052521733567,colour,0.5
022,73,0,2,12,40,590,825.708727310528,826.7594542713487,"[21, 0, 233]",233,a,0.5277365989750251,colour,0.5
022,73,0,2,12,41,591,827.2712775258697,829.2154640450026,"[88, 0, 166]",166,l,1.4208562682615593,colour,0.5
022,73,0,2,12,42,592,829.7257461805129,830.7274657117669,"[33, 0, 221]",221,a,0.47856572340242565,colour,0.5
022,73,0,2,12,43,593,831.2414452727535,833.0554263303638,"[94, 0, 160]",160,l,1.2908678159001283,colour,0.5
022,73,0,2,12,44,594,833.5695338912192,834.7994969799765,"[15, 0, 239]",239,a,0.7066698594135232,colour,0.5
022,73,0,2,12,45,595,835.3206669859355,836.1434441983583,"[55, 0, 199]",199,l,0.2994276631507091,colour,0.5
022,73,0,2,12,46,596,836.6646461058408,837.311450203706,"[75, 0, 179]",179,l,0.1236085423734039,colour,0.5
022,73,0,2,12,47,597,837.8207087336341,839.1034621419385,"[27, 0, 227]",227,a,0.7594125236500986,colour,0.5
022,73,0,2,12,48,598,839.6176055428223,840.1434839767753,"[70, 0, 184]",184,l,0.002550940029323101,colour,0.5
022,73,0,2,12,49,599,840.6644869920565,841.5594238664489,"[66, 0, 188]",188,l,0.3715861435630359,colour,0.5
022,73,0,2,12,50,600,842.0722364619724,842.8074388829991,"[90, 0, 164]",164,l,0.21194660710170865,colour,0.5
022,73,0,2,13,1,601,853.28058134811,854.3594407230266,"[34, 0, 220]",220,a,0.5548521029413678,colour,0.5
022,73,0,2,13,2,602,854.8751398153254,855.4953947596368,"[78, 0, 176]",176,l,0.09711334569146857,colour,0.5
022,73,0,2,13,3,603,856.0157116953633,856.6475346820662,"[84, 0, 170]",170,l,0.10840490827104077,colour,0.5
022,73,0,2,13,4,604,857.1563150830334,857.7914408617071,"[73, 0, 181]",181,l,0.11181246320484206,colour,0.5
022,73,0,2,13,5,605,858.3125419446151,859.119456618675,"[7, 0, 247]",247,a,0.28357457707170397,colour,0.5
022,73,0,2,13,6,606,859.6407207538141,860.5354800036876,"[35, 0, 219]",219,a,0.3715026482241228,colour,0.5
022,73,0,2,13,7,607,861.0469109877013,861.6394057022408,"[91, 0, 163]",163,l,0.06943542970111594,colour,0.5
022,73,0,2,13,8,608,862.1563115384197,863.6634224265581,"[46, 0, 208]",208,l,0.9824671611422673,colour,0.5
022,73,0,2,13,9,609,864.1733658544836,865.0874440345215,"[55, 0, 199]",199,l,0.39075816917466,colour,0.5
022,73,0,2,13,10,610,865.5953398575075,866.2954096470494,"[92, 0, 162]",162,l,0.17686950782081112,colour,0.5
022,73,0,2,13,11,611,866.8140098083531,867.4234107529628,"[6, 0, 248]",248,a,0.08611913683125749,colour,0.5
022,73,0,2,13,12,612,867.9389920852846,868.6314232331351,"[62, 0, 192]",192,l,0.16666850459296256,colour,0.5
022,73,0,2,13,13,613,869.1446021053707,869.9114484707825,"[20, 0, 234]",234,a,0.2439056282164529,colour,0.5
022,73,0,2,13,14,614,870.4258498407435,871.1513990982785,"[58, 0, 196]",196,l,0.2025234496104531,colour,0.5
022,73,0,2,13,15,615,871.660334280692,872.4474755264237,"[1, 0, 253]",253,a,0.2639484471292235,colour,0.5
022,73,0,2,13,16,616,872.9570770961582,873.6314917623531,"[56, 0, 198]",198,l,0.1514117013430223,colour,0.5
022,73,0,2,13,17,617,874.1445934407529,874.8874459249782,"[16, 0, 238]",238,a,0.21810635732254013,colour,0.5
022,73,0,2,13,18,618,875.3959463014617,876.2234618741204,"[31, 0, 223]",223,a,0.3042195864254609,colour,0.5
022,73,0,2,13,19,619,876.7397245599423,877.4874481305014,"[97, 0, 157]",157,l,0.22438819974195212,colour,0.5
022,73,0,2,13,20,620,878.005346064514,878.8154134752112,"[60, 0, 194]",194,l,0.2866698121652007,colour,0.5
022,73,0,2,13,21,621,879.3334791876259,880.1354022584856,"[22, 0, 232]",232,a,0.27852586621884257,colour,0.5
022,73,0,2,13,22,622,880.6459553599125,881.4634195908438,"[38, 0, 216]",216,a,0.2941186201060191,colour,0.5
022,73,0,2,13,23,623,881.9741046307026,882.7274412933621,"[39, 0, 215]",215,a,0.23004422103986144,colour,0.5
022,73,0,2,13,24,624,883.2397127445438,884.0554763487889,"[30, 0, 224]",224,a,0.2911888003000058,colour,0.5
022,73,0,2,13,25,625,884.5691731283441,885.2394339016173,"[82, 0, 172]",172,l,0.1469336731825024,colour,0.5
022,73,0,2,13,26,626,885.7567107406794,886.5593899957021,"[19, 0, 235]",235,a,0.2794285611016676,colour,0.5
022,73,0,2,13,27,627,887.069235749892,887.8394262610236,"[49, 0, 205]",205,l,0.24687010649358854,colour,0.5
022,73,0,2,13,28,628,888.3503625745652,889.0954127190053,"[0, 0, 254]",254,a,0.22167341981548816,colour,0.5
022,73,0,2,13,29,629,889.6160589099163,890.4954176027095,"[47, 0, 207]",207,l,0.35486738418694586,colour,0.5
022,73,0,2,13,30,630,891.0078461984522,891.7194040796021,"[81, 0, 173]",173,l,0.18830797489499673,colour,0.5
022,73,0,2,13,31,631,892.2265957061318,892.9754165314371,"[61, 0, 193]",193,l,0.2257138850982301,colour,0.5
022,73,0,2,13,32,632,893.4920002016588,894.1273997031967,"[76, 0, 178]",178,l,0.1122949244454503,colour,0.5
022,73,0,2,13,33,633,894.6481813770952,895.41543300997,"[75, 0, 179]",179,l,0.24382725288160145,colour,0.5
022,73,0,2,13,34,634,895.929528361652,897.1594032288995,"[8, 0, 246]",246,a,0.7167826411314309,colour,0.5
022,73,0,2,13,35,635,897.6692434692523,898.6234147701762,"[26, 0, 228]",228,a,0.4308189947041683,colour,0.5
022,73,0,2,13,36,636,899.1380658384296,900.063396984071,"[13, 0, 241]",241,a,0.40206233476055786,colour,0.5
022,73,0,2,13,37,637,900.5711021856987,901.1994073406677,"[85, 0, 169]",169,l,0.10489771032007411,colour,0.5
022,73,0,2,13,38,638,901.7170685732854,902.4954215411562,"[89, 0, 165]",165,l,0.2549348893808201,colour,0.5
022,73,0,2,13,39,639,903.0140220963513,903.7434617638937,"[40, 0, 214]",214,a,0.20610350905917585,colour,0.5
022,73,0,2,13,40,640,904.2640768409474,904.8074573937338,"[53, 0, 201]",201,l,0.020018400449771434,colour,0.5
022,73,0,2,13,41,641,905.3222506404272,906.0554235734162,"[77, 0, 177]",177,l,0.20988482370739803,colour,0.5
022,73,0,2,13,42,642,906.5721892004367,908.6474141651997,"[18, 0, 236]",236,a,1.5518726585432887,colour,0.5
022,73,0,2,13,43,643,909.1557723633596,909.8794543973636,"[69, 0, 185]",185,l,0.20042425079736859,colour,0.5
022,73,0,2,13,44,644,910.3856342337094,911.3515208754106,"[80, 0, 174]",174,l,0.4425248831976205,colour,0.5
022,73,0,2,13,45,645,911.8699075722252,912.8874136296217,"[17, 0, 237]",237,a,0.49406986200483516,colour,0.5
022,73,0,2,13,46,646,913.4012053260813,914.3274175050319,"[23, 0, 231]",231,a,0.4028586912318133,colour,0.5
022,73,0,2,13,47,647,914.8384956031223,915.7433546377579,"[11, 0, 243]",243,a,0.38124048861209303,colour,0.5
022,73,0,2,13,48,648,916.2605972121819,916.9433929196093,"[63, 0, 191]",191,l,0.15797553746961057,colour,0.5
022,73,0,2,13,49,649,917.4496440420626,918.1753768317867,"[70, 0, 184]",184,l,0.20243798504816368,colour,0.5
022,73,0,2,13,50,650,918.6839083221275,919.4234847959597,"[71, 0, 183]",183,l,0.21621392760425806,colour,0.5
022,73,0,2,14,1,651,926.2940552108921,928.5674083047779,"[93, 0, 161]",161,l,1.7492599635152146,colour,0.5
022,73,0,2,14,2,652,929.0762044595904,930.0954079928924,"[81, 0, 173]",173,l,0.4959918300737627,colour,0.5
022,73,0,2,14,3,653,930.6073033212451,931.5433742512832,"[47, 0, 207]",207,a,0.41699579055421054,colour,0.5
022,73,0,2,14,4,654,932.0615218836465,932.8554435807746,"[8, 0, 246]",246,a,0.2706591877504252,colour,0.5
022,73,0,2,14,5,655,933.3739748190856,934.063445820997,"[72, 0, 182]",182,l,0.16605961881577969,colour,0.5
022,73,0,2,14,6,656,934.5771520528942,935.2713716550497,"[68, 0, 186]",186,l,0.17094330821419135,colour,0.5
022,73,0,2,14,7,657,935.7802788744448,936.4633916277671,"[26, 0, 228]",228,a,0.1597490255953744,colour,0.5
022,73,0,2,14,8,658,936.9834116036654,937.855410497752,"[48, 0, 206]",206,l,0.349007744633127,colour,0.5
022,73,0,2,14,9,659,938.373997268267,939.0795486053103,"[25, 0, 229]",229,a,0.18247826758306473,colour,0.5
022,73,0,2,14,10,660,939.5927633175161,940.7193973842659,"[46, 0, 208]",208,l,0.6034617481636815,colour,0.5
022,73,0,2,14,11,661,941.2328495855327,941.9753606053418,"[23, 0, 231]",231,a,0.2192512673791498,colour,0.5
022,73,0,2,14,12,662,942.4828121701721,943.1353908369201,"[73, 0, 181]",181,l,0.12928701285272837,colour,0.5
022,73,0,2,14,13,663,943.6563501353376,944.9674230346573,"[52, 0, 202]",202,l,0.7877308331080712,colour,0.5
022,73,0,2,14,14,664,945.4844052768894,946.1513404152356,"[83, 0, 171]",171,l,0.1435217860271223,colour,0.5
022,73,0,2,14,15,665,946.6718141015735,947.4633943847148,"[59, 0, 195]",195,l,0.2681322723510675,colour,0.5
022,73,0,2,14,16,666,947.98440252,948.6313810916035,"[63, 0, 191]",191,l,0.12355931161437184,colour,0.5
022,73,0,2,14,17,667,949.1407979475916,949.7753380773356,"[28, 0, 226]",226,a,0.11033987323753536,colour,0.5
022,73,0,2,14,18,668,950.282795549836,951.0154304893804,"[35, 0, 219]",219,a,0.21005220821825787,colour,0.5
022,73,0,2,14,19,669,951.5326604607399,952.1833545747795,"[86, 0, 168]",168,l,0.12733668787404895,colour,0.5
022,73,0,2,14,20,670,952.7045824760571,953.4233989375643,"[9, 0, 245]",245,a,0.1954361922107637,colour,0.5
022,73,0,2,14,21,671,953.9389168607304,954.5674484770861,"[95, 0, 159]",159,l,0.10503910103579983,colour,0.5
022,73,0,2,14,22,672,955.0796289498685,955.8474910439691,"[79, 0, 175]",175,l,0.24456020013894886,colour,0.5
022,73,0,2,14,23,673,956.3608057930251,957.1193321633618,"[97, 0, 157]",157,l,0.23518706107279286,colour,0.5
022,73,0,2,14,24,674,957.6264576237882,958.8714002482593,"[42, 0, 212]",212,a,0.7215911059756763,colour,0.5
022,73,0,2,14,25,675,959.3778766506002,960.1513987043872,"[29, 0, 225]",225,a,0.25016226450679824,colour,0.5
022,73,0,2,14,26,676,960.6592236351571,961.5113514271216,"[15, 0, 239]",239,a,0.3290161255863495,colour,0.5
022,73,0,2,14,27,677,962.0185536874924,962.727451927145,"[80, 0, 174]",174,l,0.18554435804253444,colour,0.5
022,73,0,2,14,28,678,963.2372811398236,964.4073434147285,"[40, 0, 214]",214,a,0.6467702271183953,colour,0.5
022,73,0,2,14,29,679,964.9261806713184,965.6793747617048,"[54, 0, 200]",200,l,0.22999577794689685,colour,0.5
022,73,0,2,14,30,680,966.1918013882241,967.0553530749748,"[33, 0, 221]",221,a,0.3403781866072677,colour,0.5
022,73,0,2,14,31,681,967.5668072958943,968.2314163802075,"[16, 0, 238]",238,a,0.1412154242862016,colour,0.5
022,73,0,2,14,32,682,968.7386194282444,969.3833361427533,"[74, 0, 180]",180,l,0.12133802060270682,colour,0.5
022,73,0,2,14,33,683,969.8949211205472,971.1513770428719,"[14, 0, 240]",240,a,0.7302572916378267,colour,0.5
022,73,0,2,14,34,684,971.6633507465594,972.3193180636736,"[88, 0, 166]",166,l,0.13256066013127565,colour,0.5
022,73,0,2,14,35,685,972.8352318019606,973.8233380489983,"[6, 0, 248]",248,a,0.46472479624208063,colour,0.5
022,73,0,2,14,36,686,974.3352357404074,975.0793654669542,"[75, 0, 179]",179,l,0.22083177109016106,colour,0.5
022,73,0,2,14,37,687,975.6008674850455,976.3593875538209,"[87, 0, 167]",167,l,0.2351724887266755,colour,0.5
022,73,0,2,14,38,688,976.8678674503462,977.8393368580146,"[37, 0, 217]",217,a,0.44818208599463105,colour,0.5
022,73,0,2,14,39,689,978.3521293673548,979.1193652463844,"[60, 0, 194]",194,l,0.24376896367175505,colour,0.5
022,73,0,2,14,40,690,979.6327406477649,980.7033643106115,"[21, 0, 233]",233,a,0.5472469382220879,colour,0.5
022,73,0,2,14,41,691,981.21085604775,982.0793753131293,"[67, 0, 187]",187,l,0.3452094945241697,colour,0.5
022,73,0,2,14,42,692,982.5884077754454,983.3593773138709,"[7, 0, 247]",247,a,0.24759438913315535,colour,0.5
022,73,0,2,14,43,693,983.8696602369891,984.8073766553425,"[91, 0, 163]",163,l,0.41435859829653054,colour,0.5
022,73,0,2,14,44,694,985.3191408329876,986.279421077983,"[31, 0, 223]",223,a,0.43689997569890693,colour,0.5
022,73,0,2,14,45,695,986.7878761622705,987.4714394753682,"[20, 0, 234]",234,a,0.1600841885083355,colour,0.5
022,73,0,2,14,46,696,987.9910084976,988.7353528701933,"[4, 0, 250]",250,a,0.22100506327115,colour,0.5
022,73,0,2,14,47,697,989.2566496945219,990.0874972037273,"[84, 0, 170]",170,l,0.3074369137757458,colour,0.5
022,73,0,2,14,48,698,990.6005220821826,991.5113951440435,"[71, 0, 183]",183,l,0.3875853464123793,colour,0.5
022,73,0,2,14,49,699,992.0236213029712,993.223351203429,"[11, 0, 243]",243,a,0.6763275758130476,colour,0.5
022,73,0,2,14,50,700,993.7423522999161,994.5514874772634,"[78, 0, 176]",176,l,0.2859813694958575,colour,0.5
022,73,0,2,15,1,701,1003.22594428499,1004.3673393030185,"[13, 0, 241]",241,a,0.6159572976757772,colour,0.5
022,73,0,2,15,2,702,1004.8843814098509,1005.5274443653179,"[70, 0, 184]",184,l,0.11975042772246525,colour,0.5
022,73,0,2,15,3,703,1006.0404586099321,1006.7913215263397,"[87, 0, 167]",167,l,0.227381034870632,colour,0.5
022,73,0,2,15,4,704,1007.3062179606641,1008.0793197808671,"[84, 0, 170]",170,l,0.24975620937766507,colour,0.5
022,73,0,2,15,5,705,1008.5874751483207,1009.4633329447242,"[8, 0, 246]",246,a,0.3525740194017999,colour,0.5
022,73,0,2,15,6,706,1009.9795011074748,1010.8553715070011,"[28, 0, 226]",226,a,0.35241766256513074,colour,0.5
022,73,0,2,15,7,707,1011.3700442367699,1012.199339993007,"[41, 0, 213]",213,a,0.3058516839519143,colour,0.5
022,73,0,2,15,8,708,1012.7138122552424,1013.2953233947628,"[98, 0, 156]",156,l,0.058018230309244245,colour,0.5
022,73,0,2,15,9,709,1013.8076653443859,1014.7193863565335,"[22, 0, 232]",232,a,0.388517185812816,colour,0.5
022,73,0,2,15,10,710,1015.2306944606244,1016.1833750547376,"[49, 0, 205]",205,l,0.4296043738722801,colour,0.5
022,73,0,2,15,11,711,1016.6995124975219,1017.3353412911529,"[80, 0, 174]",174,l,0.11246388434665278,colour,0.5
022,73,0,2,15,12,712,1017.8557397529366,1018.567324021773,"[99, 0, 155]",155,l,0.18825244263280183,colour,0.5
022,73,0,2,15,13,713,1019.0745089529082,1019.9913499620161,"[5, 0, 249]",249,a,0.39371989044593647,colour,0.5
022,73,0,2,15,14,714,1020.5118827252882,1021.2713625965989,"[76, 0, 178]",178,l,0.23609211895382032,colour,0.5
022,73,0,2,15,15,715,1021.7790244751959,1023.1113481188659,"[37, 0, 217]",217,a,0.8089059590711258,colour,0.5
022,73,0,2,15,16,716,1023.6235104747466,1024.5593769987463,"[57, 0, 197]",197,l,0.4131809989339672,colour,0.5
022,73,0,2,15,17,717,1025.0758945028647,1026.1914390499587,"[48, 0, 206]",206,l,0.592508892994374,colour,0.5
022,73,0,2,15,18,718,1026.7008641767316,1027.391318611917,"[4, 0, 250]",250,a,0.16703911364311352,colour,0.5
022,73,0,2,15,19,719,1027.9054257789394,1028.6312877501477,"[59, 0, 195]",195,l,0.20248918497236446,colour,0.5
022,73,0,2,15,20,720,1029.1396266498487,1030.0953406452318,"[38, 0, 216]",216,l,0.43222029850585386,colour,0.5
022,73,0,2,15,21,721,1030.6130160563043,1031.5352972591645,"[19, 0, 235]",235,a,0.3914678795263171,colour,0.5
022,73,0,2,15,22,722,1032.0424699810683,1032.9433192703873,"[96, 0, 158]",158,l,0.3777533767861314,colour,0.5
022,73,0,2,15,23,723,1033.4576521111885,1034.1913205023739,"[86, 0, 168]",168,l,0.21074183244490996,colour,0.5
022,73,0,2,15,24,724,1034.708332283073,1036.4633522431832,"[33, 0, 221]",221,a,1.2324435303453356,colour,0.5
022,73,0,2,15,25,725,1036.9731708220206,1037.711295579793,"[89, 0, 165]",165,l,0.21499339916044846,colour,0.5
022,73,0,2,15,26,726,1038.2231562497327,1039.0793516823323,"[56, 0, 198]",198,l,0.33264935424085706,colour,0.5
022,73,0,2,15,27,727,1039.5982050866005,1040.4633140401565,"[77, 0, 177]",177,l,0.34167433355469257,colour,0.5
022,73,0,2,15,28,728,1040.9732137512183,1041.8873403742327,"[27, 0, 227]",227,l,0.3908030675374903,colour,0.5
022,73,0,2,15,29,729,1042.3950719635468,1043.159326822788,"[69, 0, 185]",185,l,0.2408773468923755,colour,0.5
022,73,0,2,15,30,730,1043.6762913420098,1045.1433110784274,"[1, 0, 253]",253,a,0.9437091778963804,colour,0.5
022,73,0,2,15,31,731,1045.6618710674811,1046.9192860046169,"[44, 0, 210]",210,a,0.7340063109877519,colour,0.5
022,73,0,2,15,32,732,1047.4274752428755,1048.3673140968313,"[10, 0, 244]",244,a,0.4165184493176639,colour,0.5
022,73,0,2,15,33,733,1048.882005337393,1049.8713458975544,"[51, 0, 203]",203,l,0.46601070318138227,colour,0.5
022,73,0,2,15,34,734,1050.3819194789976,1051.3513235585997,"[68, 0, 186]",186,l,0.4459690657677129,colour,0.5
022,73,0,2,15,35,735,1051.866472841939,1053.535309862229,"[40, 0, 214]",214,a,1.145661550865043,colour,0.5
022,73,0,2,15,36,736,1054.0538852112368,1054.6793168663862,"[9, 0, 245]",245,a,0.10241766256513074,colour,0.5
022,73,0,2,15,37,737,1055.194443700544,1055.9433149381075,"[35, 0, 219]",219,a,0.22583991580177099,colour,0.5
022,73,0,2,15,38,738,1056.4601065589814,1057.055280213477,"[63, 0, 191]",191,l,0.07178156985901296,colour,0.5
022,73,0,2,15,39,739,1057.5694559097174,1058.2392964494065,"[20, 0, 234]",234,a,0.14640828274423257,colour,0.5
022,73,0,2,15,40,740,1058.756971072813,1059.4953246550867,"[17, 0, 237]",237,a,0.21499930683057755,colour,0.5
022,73,0,2,15,41,741,1060.0069947035518,1061.9272964367992,"[62, 0, 192]",192,l,1.3970793961780146,colour,0.5
022,73,0,2,15,42,742,1062.4444862358505,1064.6793357710121,"[82, 0, 172]",172,l,1.7115984473493882,colour,0.5
022,73,0,2,15,43,743,1065.1968733359827,1065.9513029211084,"[67, 0, 187]",187,l,0.23129625723231584,colour,0.5
022,73,0,2,15,44,744,1066.4611715183128,1067.2073027698207,"[72, 0, 182]",182,l,0.22280651447363198,colour,0.5
022,73,0,2,15,45,745,1067.7267280383967,1068.4633089201525,"[83, 0, 171]",171,l,0.2131982494611293,colour,0.5
022,73,0,2,15,46,746,1068.9767556075822,1069.6873072124436,"[43, 0, 211]",211,a,0.1993395991739817,colour,0.5
022,73,0,2,15,47,747,1070.1984325720114,1071.0153643232188,"[42, 0, 212]",212,l,0.29354202962713316,colour,0.5
022,73,0,2,15,48,748,1071.5266330427257,1072.2473454785068,"[93, 0, 161]",161,l,0.19729317573364824,colour,0.5
022,73,0,2,15,49,749,1072.7609201658634,1073.527315971558,"[79, 0, 175]",175,l,0.24296945647802204,colour,0.5
022,73,0,2,15,50,750,1074.0422053165967,1075.2393614340108,"[45, 0, 209]",209,a,0.6782991685322486,colour,0.5
022,73,0,2,16,1,751,1085.6162377159344,1086.607599887182,"[29, 0, 225]",225,a,0.46722650551237166,colour,0.5
022,73,0,2,16,2,752,1087.1169600293506,1087.9032525371877,"[19, 0, 235]",235,a,0.26128683640854433,colour,0.5
022,73,0,2,16,3,753,1088.4154471884249,1089.0792996946839,"[71, 0, 183]",183,l,0.14032612019218504,colour,0.5
022,73,0,2,16,4,754,1089.5873168222606,1090.2713047012803,"[34, 0, 220]",220,a,0.16039217601064593,colour,0.5
022,73,0,2,16,5,755,1090.7905291083734,1091.5993263659184,"[77, 0, 177]",177,l,0.2854941820842214,colour,0.5
022,73,0,2,16,6,756,1092.1186724714353,1092.983290299133,"[52, 0, 202]",202,l,0.3413608322152868,colour,0.5
022,73,0,2,16,7,757,1093.4935992161045,1094.2313222510274,"[62, 0, 192]",192,l,0.21441602101549506,colour,0.5
022,73,0,2,16,8,758,1094.7435834622593,1095.4312549821334,"[15, 0, 239]",239,a,0.1642660444485955,colour,0.5
022,73,0,2,16,9,759,1095.946726825321,1096.599324396695,"[64, 0, 190]",190,l,0.1267341036000289,colour,0.5
022,73,0,2,16,10,760,1097.1210646915715,1097.84741778858,"[36, 0, 218]",218,a,0.2030386000405997,colour,0.5
022,73,0,2,16,11,761,1098.3554624854005,1099.159326035122,"[56, 0, 198]",198,l,0.28057780349627137,colour,0.5
022,73,0,2,16,12,762,1099.667888245429,1100.3672790445853,"[91, 0, 163]",163,l,0.17599713912932202,colour,0.5
022,73,0,2,16,13,763,1100.8866180608165,1101.6474874205887,"[81, 0, 173]",173,l,0.2375237489468418,colour,0.5
022,73,0,2,16,14,764,1102.1679520484759,1102.943303122709,"[79, 0, 175]",175,l,0.25210156181128696,colour,0.5
022,73,0,2,16,15,765,1103.4647023470025,1104.135321126203,"[40, 0, 214]",214,a,0.1472648975905031,colour,0.5
022,73,0,2,16,16,766,1104.6522683161893,1105.5193008132046,"[50, 0, 204]",204,a,0.3439472183235921,colour,0.5
022,73,0,2,16,17,767,1106.0290681920596,1106.7272872995818,"[11, 0, 243]",243,a,0.17476873367559165,colour,0.5
022,73,0,2,16,18,768,1107.2479441242758,1109.2472867954639,"[45, 0, 209]",209,a,1.4763042601407506,colour,0.5
022,73,0,2,16,19,769,1109.7635085212532,1110.487312253681,"[4, 0, 250]",250,a,0.20044906315160915,colour,0.5
022,73,0,2,16,20,770,1110.99793900433,1111.631358248531,"[63, 0, 191]",191,l,0.11010435339994729,colour,0.5
022,73,0,2,16,21,771,1112.1385384535533,1112.8073534184368,"[66, 0, 188]",188,l,0.14545911405002698,colour,0.5
022,73,0,2,16,22,772,1113.326019745844,1114.1032833359204,"[58, 0, 196]",196,l,0.25416570832021534,colour,0.5
022,73,0,2,16,23,773,1114.6228775643394,1115.6792885094765,"[0, 0, 254]",254,a,0.5333914387156256,colour,0.5
022,73,0,2,16,24,774,1116.1853990289383,1116.7832803741912,"[95, 0, 159]",159,l,0.07461922976654023,colour,0.5
022,73,0,2,16,25,775,1117.294755075127,1118.2632832413656,"[54, 0, 200]",200,l,0.4435256456490606,colour,0.5
022,73,0,2,16,26,776,1118.780730221828,1119.4392780174385,"[96, 0, 158]",158,l,0.13719622668577358,colour,0.5
022,73,0,2,16,27,777,1119.9506365337875,1120.9673052746803,"[44, 0, 210]",210,l,0.49204352468950674,colour,0.5
022,73,0,2,16,28,778,1121.4831745083793,1122.1672490335186,"[24, 0, 230]",230,a,0.16114205867052078,colour,0.5
022,73,0,2,16,29,779,1122.6862796684145,1123.4632703232346,"[23, 0, 231]",231,a,0.2538163669523783,colour,0.5
022,73,0,2,16,30,780,1123.9844749876647,1124.623226511816,"[87, 0, 167]",167,l,0.11543545179301873,colour,0.5
022,73,0,2,16,31,781,1125.1407881014748,1126.175264585705,"[16, 0, 238]",238,a,0.5110536796273664,colour,0.5
022,73,0,2,16,32,782,1126.6875856614788,1127.3432682279963,"[5, 0, 249]",249,a,0.13228260492905974,colour,0.5
022,73,0,2,16,33,783,1127.8594856215059,1128.5512803143356,"[60, 0, 194]",194,l,0.1685380912385881,colour,0.5
022,73,0,2,16,34,784,1129.062517132319,1129.91133307392,"[2, 0, 252]",252,a,0.3253250016714446,colour,0.5
022,73,0,2,16,35,785,1130.4252464688034,1131.1433106845943,"[78, 0, 176]",176,l,0.1947977680247277,colour,0.5
022,73,0,2,16,36,786,1131.6596533210832,1132.4473798218532,"[97, 0, 157]",157,l,0.2645159790990874,colour,0.5
022,73,0,2,16,37,787,1132.9564863272244,1134.3192353560007,"[37, 0, 217]",217,a,0.8394160210154951,colour,0.5
022,73,0,2,16,38,788,1134.8315489487723,1135.407329630165,"[76, 0, 178]",178,l,0.052481544378679246,colour,0.5
022,73,0,2,16,39,789,1135.9251913303742,1136.6712855603546,"[21, 0, 233]",233,a,0.22275492071639746,colour,0.5
022,73,0,2,16,40,790,1137.1908281949582,1138.015245775634,"[14, 0, 240]",240,a,0.3010365237132646,colour,0.5
022,73,0,2,16,41,791,1138.5352882007137,1139.159242933616,"[68, 0, 186]",186,l,0.10130426014075056,colour,0.5
022,73,0,2,16,42,792,1139.6751543088467,1141.6552536683157,"[10, 0, 244]",244,a,1.4567131825024262,colour,0.5
022,73,0,2,16,43,793,1142.1767635633005,1143.4232792084222,"[27, 0, 227]",227,a,0.7235961756086908,colour,0.5
022,73,0,2,16,44,794,1143.9423397756182,1144.7112585582654,"[53, 0, 201]",201,l,0.24568187328986824,colour,0.5
022,73,0,2,16,45,795,1145.2235347356182,1146.3033440669533,"[28, 0, 226]",226,l,0.5564712035702541,colour,0.5
022,73,0,2,16,46,796,1146.817368920194,1147.54324979597,"[8, 0, 246]",246,a,0.2026183664565906,colour,0.5
022,73,0,2,16,47,797,1148.0532916854718,1148.7032745137694,"[80, 0, 174]",174,l,0.12689282349310815,colour,0.5
022,73,0,2,16,48,798,1149.2095094885444,1149.9832607606659,"[69, 0, 185]",185,l,0.25099288555793464,colour,0.5
022,73,0,2,16,49,799,1150.4907981838915,1151.2952863732353,"[20, 0, 234]",234,a,0.2814678952563554,colour,0.5
022,73,0,2,16,50,800,1151.803342491563,1152.5352838683757,"[31, 0, 223]",223,a,0.20860521827125922,colour,0.5
