id,age,condition,counterbalance,block,trialinblock,trial,tstart,tend,trialstim,trialintensity,response,RT,trialtype,colourfreq
003,76,0,1,Practice,1,NA,5.513778887689114e-06,1.5074933065334335,"[73, 0, 181]",181,a,0.9362237924942747,colour,0.5
003,76,0,1,Practice,2,NA,2.0209923648508266,3.0514649874530733,"[41, 0, 213]",213,a,0.5072778729954734,colour,0.5
003,76,0,1,Practice,3,NA,3.5678363618208095,4.139509173808619,"[6, 0, 248]",248,a,0.04821615503169596,colour,0.5
003,76,0,1,Practice,4,NA,4.646168709266931,5.251340059679933,"[0, 0, 254]",254,a,0.08189743792172521,colour,0.5
003,76,0,1,Practice,5,NA,5.7715734840603545,7.723421525792219,"[79, 0, 175]",175,l,1.4289404056034982,colour,0.5
003,76,0,1,Practice,6,NA,8.240110339713283,9.475379529292695,"[71, 0, 183]",183,a,0.7105758574325591,colour,0.5
003,76,0,1,Practice,7,NA,9.991459457902238,10.827465690090321,"[47, 0, 207]",207,a,0.3126460674684495,colour,0.5
003,76,0,1,Practice,8,NA,11.335336300777271,12.355448420741595,"[14, 0, 240]",240,a,0.49677637370768934,colour,0.5
003,76,0,1,Practice,9,NA,12.866711223730817,13.995441236998886,"[64, 0, 190]",190,a,0.6057085557840765,colour,0.5
003,76,0,1,Practice,10,NA,14.507490549585782,15.771469508879818,"[69, 0, 185]",185,a,0.7405931946123019,colour,0.5
003,76,0,1,1,1,1,4.728419820545241,5.720008853706531,"[13, 0, 241]",241,a,0.4674065187573433,colour,0.5
003,76,0,1,1,2,2,6.229305185494013,6.872120299376547,"[23, 0, 231]",231,a,0.11879683320876211,colour,0.5
003,76,0,1,1,3,3,7.385433856397867,7.920114325592294,"[66, 0, 188]",188,a,0.011440033558756113,colour,0.5
003,76,0,1,1,4,4,8.43244838854298,8.960581568186171,"[29, 0, 225]",225,a,0.004433913854882121,colour,0.5
003,76,0,1,1,5,5,9.479796901694499,10.671943541499786,"[93, 0, 161]",161,l,0.6694150526309386,colour,0.5
003,76,0,1,1,6,6,11.189435800421052,11.904198630596511,"[85, 0, 169]",169,l,0.19178469572216272,colour,0.5
003,76,0,1,1,7,7,12.423748732893728,13.080161366495304,"[94, 0, 160]",160,l,0.13315526267979294,colour,0.5
003,76,0,1,1,8,8,13.592921176576056,14.184123217011802,"[18, 0, 236]",236,a,0.06815537682268769,colour,0.5
003,76,0,1,1,9,9,14.702027044608258,15.592167356051505,"[36, 0, 218]",218,a,0.36733586282934994,colour,0.5
003,76,0,1,1,10,10,16.096136138308793,16.8641528027365,"[34, 0, 220]",220,a,0.24505152693018317,colour,0.5
003,76,0,1,1,11,11,17.377476599649526,18.175980458967388,"[63, 0, 191]",191,a,0.2743532464373857,colour,0.5
003,76,0,1,1,12,12,18.690231368527748,19.351956979488023,"[53, 0, 201]",201,a,0.13915668206755072,colour,0.5
003,76,0,1,1,13,13,19.862205236102454,20.640007782378234,"[15, 0, 239]",239,a,0.25456919986754656,colour,0.5
003,76,0,1,1,14,14,21.159027768531814,21.823969128890894,"[16, 0, 238]",238,a,0.14166272175498307,colour,0.5
003,76,0,1,1,15,15,22.33100990683306,23.047868389403448,"[54, 0, 200]",200,a,0.1937310806242749,colour,0.5
003,76,0,1,1,16,16,23.56562728190329,27.064085376332514,"[67, 0, 187]",187,l,2.9754630245734006,colour,0.5
003,76,0,1,1,17,17,27.581716662738472,28.59197949175723,"[17, 0, 237]",237,a,0.4873162021394819,colour,0.5
003,76,0,1,1,18,18,29.112803684547544,29.792151917354204,"[8, 0, 246]",246,a,0.15633859066292644,colour,0.5
003,76,0,1,1,19,19,30.300458908895962,31.056150174932554,"[83, 0, 171]",171,l,0.2324984857114032,colour,0.5
003,76,0,1,1,20,20,31.566071539768018,32.31208011135459,"[26, 0, 228]",228,a,0.2231379570439458,colour,0.5
003,76,0,1,1,21,21,32.8320240592584,36.344114725710824,"[40, 0, 214]",214,a,2.9889506613835692,colour,0.5
003,76,0,1,1,22,22,36.8634998066118,37.57598423992749,"[55, 0, 199]",199,a,0.1888280966086313,colour,0.5
003,76,0,1,1,23,23,38.08311048243195,38.808052252279595,"[57, 0, 197]",197,a,0.20200538309291005,colour,0.5
003,76,0,1,1,24,24,39.317597100744024,39.89596213726327,"[33, 0, 221]",221,a,0.05465159227605909,colour,0.5
003,76,0,1,1,25,25,40.41164940176532,40.96829936676659,"[14, 0, 240]",240,a,0.03347845224197954,colour,0.5
003,76,0,1,1,26,26,41.48952567600645,42.74395190994255,"[58, 0, 196]",196,a,0.731166893732734,colour,0.5
003,76,0,1,1,27,27,43.25545377715025,43.83202642237302,"[82, 0, 172]",172,l,0.054180946899577975,colour,0.5
003,76,0,1,1,28,28,44.3490882080514,44.943956163479015,"[89, 0, 165]",165,l,0.07203081762418151,colour,0.5
003,76,0,1,1,29,29,45.458773029153235,46.024048213032074,"[84, 0, 170]",170,l,0.04233997850678861,colour,0.5
003,76,0,1,1,30,30,46.53825973800849,47.1679991777055,"[39, 0, 215]",215,a,0.10732292896136642,colour,0.5
003,76,0,1,1,31,31,47.67759128753096,48.23194158799015,"[47, 0, 207]",207,a,0.031003132578916848,colour,0.5
003,76,0,1,1,32,32,48.740037084557116,49.41595886053983,"[97, 0, 157]",157,l,0.15246433136053383,colour,0.5
003,76,0,1,1,33,33,49.927903016330674,50.68021508702077,"[44, 0, 210]",210,a,0.22938907460775226,colour,0.5
003,76,0,1,1,34,34,51.19355069939047,51.81618910259567,"[4, 0, 250]",250,a,0.09965278569143265,colour,0.5
003,76,0,1,1,35,35,52.3354556360282,53.01595153496601,"[60, 0, 194]",194,l,0.15746301983017474,colour,0.5
003,76,0,1,1,36,36,53.52325106947683,56.17598597286269,"[38, 0, 216]",216,a,2.129438935429789,colour,0.5
003,76,0,1,1,37,37,56.69525802007411,57.408043351373635,"[91, 0, 163]",163,l,0.1899670980637893,colour,0.5
003,76,0,1,1,38,38,57.929747395333834,58.6160489723552,"[62, 0, 192]",192,a,0.1626834433991462,colour,0.5
003,76,0,1,1,39,39,59.13299260439817,59.82393171347212,"[64, 0, 190]",190,a,0.16710554191377014,colour,0.5
003,76,0,1,1,40,40,60.33612911205273,60.94396758498624,"[99, 0, 155]",155,l,0.08449091122020036,colour,0.5
003,76,0,1,1,41,41,61.46118887816556,62.0479491277365,"[30, 0, 224]",224,a,0.06377305660862476,colour,0.5
003,76,0,1,1,42,42,62.55500762886368,63.19194696005434,"[22, 0, 232]",232,a,0.11295334587339312,colour,0.5
003,76,0,1,1,43,43,63.71123869961593,64.4239232063992,"[61, 0, 193]",193,l,0.18913332698866725,colour,0.5
003,76,0,1,1,44,44,64.93056501878891,67.31996174971573,"[68, 0, 186]",186,a,1.8665966145927086,colour,0.5
003,76,0,1,1,45,45,67.83820349688176,68.71188303106464,"[2, 0, 252]",252,a,0.35056197829544544,colour,0.5
003,76,0,1,1,46,46,69.22882311849389,69.83992657146882,"[70, 0, 184]",184,l,0.08819660462904721,colour,0.5
003,76,0,1,1,47,47,70.35399946279358,71.07196347007994,"[27, 0, 227]",227,a,0.19479879608843476,colour,0.5
003,76,0,1,1,48,48,71.5883919519838,72.19993414904457,"[72, 0, 182]",182,l,0.08793233416508883,colour,0.5
003,76,0,1,1,49,49,72.71356357028708,73.48792351211887,"[0, 0, 254]",254,a,0.25174020684789866,colour,0.5
003,76,0,1,1,50,50,73.9947925733868,74.62384396465495,"[7, 0, 247]",247,a,0.10543680225964636,colour,0.5
003,76,0,1,2,1,51,80.15235956851393,81.1358948526904,"[0, 0, 254]",254,a,0.4595173973357305,colour,0.5
003,76,0,1,2,2,52,81.65327880415134,84.19990145985503,"[14, 0, 240]",240,a,2.0233924600761384,colour,0.5
003,76,0,1,2,3,53,84.71602037921548,85.34390953206457,"[98, 0, 156]",156,l,0.10248532332479954,colour,0.5
003,76,0,1,2,4,54,85.85900445282459,87.8638814430451,"[5, 0, 249]",249,a,1.4818059081444517,colour,0.5
003,76,0,1,2,5,55,88.37366732489318,88.91991582734045,"[22, 0, 232]",232,l,0.023080534301698208,colour,0.5
003,76,0,1,2,6,56,89.43635612470098,90.39995061175432,"[36, 0, 218]",218,l,0.4402894607046619,colour,0.5
003,76,0,1,2,7,57,90.9208165522432,91.65583052986767,"[12, 0, 242]",242,a,0.21112645359244198,colour,0.5
003,76,0,1,2,8,58,92.17225664877333,93.18389202957042,"[53, 0, 201]",201,a,0.48825197922997177,colour,0.5
003,76,0,1,2,9,59,93.70367686392274,94.4399515412515,"[70, 0, 184]",184,l,0.21288694348186255,colour,0.5
003,76,0,1,2,10,60,94.95389564509969,95.47996074147522,"[44, 0, 210]",210,a,0.0037253856426104903,colour,0.5
003,76,0,1,2,11,61,96.00060140225105,96.56788441108074,"[23, 0, 231]",231,a,0.04388070257846266,colour,0.5
003,76,0,1,2,12,62,97.07905150949955,97.74383375619072,"[60, 0, 194]",194,l,0.14238267135806382,colour,0.5
003,76,0,1,2,13,63,98.25092927878723,99.079875434516,"[90, 0, 164]",164,l,0.3059569936012849,colour,0.5
003,76,0,1,2,14,64,99.5945595742669,100.27186177915428,"[67, 0, 187]",187,l,0.15409760910551995,colour,0.5
003,76,0,1,2,15,65,100.78228490322363,101.39187598903663,"[65, 0, 189]",189,l,0.08719387359451503,colour,0.5
003,76,0,1,2,16,66,101.90729977085721,102.48788452136796,"[75, 0, 179]",179,l,0.05772870813962072,colour,0.5
003,76,0,1,2,17,67,103.0011748415418,103.63189062441234,"[8, 0, 246]",246,a,0.1058089864673093,colour,0.5
003,76,0,1,2,18,68,104.14323377178516,107.22384884837084,"[9, 0, 245]",245,a,2.5580130646703765,colour,0.5
003,76,0,1,2,19,69,107.73725141456816,108.52816074888688,"[48, 0, 206]",206,a,0.26814466423820704,colour,0.5
003,76,0,1,2,20,70,109.03431655582972,110.1199311085511,"[61, 0, 193]",193,l,0.5629577962681651,colour,0.5
003,76,0,1,2,21,71,110.62840115232393,111.27982376201544,"[31, 0, 223]",223,a,0.12822746636811644,colour,0.5
003,76,0,1,2,22,72,111.80018636782188,115.27189249906223,"[85, 0, 169]",169,l,2.947626016801223,colour,0.5
003,76,0,1,2,23,73,115.78640649758745,116.60783532215282,"[84, 0, 170]",170,l,0.29852355155162513,colour,0.5
003,76,0,1,2,24,74,117.11449052533135,118.01584440900479,"[21, 0, 233]",233,a,0.37809533113613725,colour,0.5
003,76,0,1,2,25,75,118.53664378949907,119.10386969067622,"[96, 0, 158]",158,l,0.04457702161744237,colour,0.5
003,76,0,1,2,26,76,119.61474731261842,120.40793819457758,"[69, 0, 185]",185,l,0.27036516566295177,colour,0.5
003,76,0,1,2,27,77,120.92762377974577,121.48785340751056,"[28, 0, 226]",226,a,0.03741808992344886,colour,0.5
003,76,0,1,2,28,78,122.00595100724604,124.12782022997271,"[56, 0, 198]",198,a,1.5987154331523925,colour,0.5
003,76,0,1,2,29,79,124.64732740307227,125.35986697475892,"[49, 0, 205]",205,a,0.18925384373869747,colour,0.5
003,76,0,1,2,30,80,125.86612636304926,126.54382635187358,"[83, 0, 171]",171,l,0.15527638897765428,colour,0.5
003,76,0,1,2,31,81,127.05385444883723,128.63184257526882,"[7, 0, 247]",247,a,1.054768170695752,colour,0.5
003,76,0,1,2,32,82,129.14774566714186,130.11983697942924,"[51, 0, 203]",203,a,0.44946566957514733,colour,0.5
003,76,0,1,2,33,83,130.63207139947917,132.40783067478333,"[99, 0, 155]",155,l,1.2522860768949613,colour,0.5
003,76,0,1,2,34,84,132.9135374976322,133.5037954901345,"[46, 0, 208]",208,a,0.06722668884322047,colour,0.5
003,76,0,1,2,35,85,134.0230482390616,134.58386075822636,"[29, 0, 225]",225,a,0.03822586720343679,colour,0.5
003,76,0,1,2,36,86,135.1012502235826,137.51182994060218,"[40, 0, 214]",214,a,1.8875850411131978,colour,0.5
003,76,0,1,2,37,87,138.023342047818,138.63186108600348,"[91, 0, 163]",163,l,0.0855850144289434,colour,0.5
003,76,0,1,2,38,88,139.14844789390918,139.79982206062414,"[4, 0, 250]",250,a,0.1281711463816464,colour,0.5
003,76,0,1,2,39,89,140.3205387336202,141.06415351154283,"[66, 0, 188]",188,l,0.22049131442327052,colour,0.5
003,76,0,1,2,40,90,141.57818465528544,142.17582882847637,"[89, 0, 165]",165,l,0.08052094746381044,colour,0.5
003,76,0,1,2,41,91,142.68198305997066,143.24794235359877,"[64, 0, 190]",190,a,0.042950833099894226,colour,0.5
003,76,0,1,2,42,92,143.76023978902958,144.28792437852826,"[43, 0, 211]",211,a,0.004450455424375832,colour,0.5
003,76,0,1,2,43,93,144.80725077644456,146.72788222134113,"[42, 0, 212]",212,a,1.3976978149730712,colour,0.5
003,76,0,1,2,44,94,147.24496330542024,147.95982262771577,"[33, 0, 221]",221,a,0.19185795087832958,colour,0.5
003,76,0,1,2,45,95,148.46688270417508,149.06379983818624,"[3, 0, 251]",251,a,0.07389055658131838,colour,0.5
003,76,0,1,2,46,96,149.57674908812623,150.11983934254386,"[80, 0, 174]",174,l,0.020433891797438264,colour,0.5
003,76,0,1,2,47,97,150.63927444186993,151.2877936217701,"[45, 0, 209]",209,a,0.1283759460784495,colour,0.5
003,76,0,1,2,48,98,151.80815425829496,152.50381360703614,"[73, 0, 181]",181,l,0.1735201054252684,colour,0.5
003,76,0,1,2,49,99,153.0103211181704,154.2398133801762,"[59, 0, 195]",195,l,0.7061348542338237,colour,0.5
003,76,0,1,2,50,100,154.76050445321016,155.44777213351335,"[94, 0, 160]",160,l,0.16427497344557196,colour,0.5
003,76,0,1,3,1,101,160.69894677808043,162.49575867666863,"[60, 0, 194]",194,a,1.2727514763828367,colour,0.5
003,76,0,1,3,2,102,163.01245694281533,163.5917845381191,"[48, 0, 206]",206,a,0.05594104283954948,colour,0.5
003,76,0,1,3,3,103,164.106484431657,164.63178940606304,"[39, 0, 215]",215,a,0.002330384450033307,colour,0.5
003,76,0,1,3,4,104,165.15341468085535,165.7437565624714,"[7, 0, 247]",247,a,0.06632163166068494,colour,0.5
003,76,0,1,3,5,105,166.26289745920803,167.40776647790335,"[53, 0, 201]",201,a,0.62168529687915,colour,0.5
003,76,0,1,3,6,106,167.91939949570224,170.71977687859908,"[92, 0, 162]",162,l,2.2772417101077735,colour,0.5
003,76,0,1,3,7,107,171.2321357538458,173.47976972640026,"[12, 0, 242]",242,a,1.7243809337960556,colour,0.5
003,76,0,1,3,8,108,173.99797090748325,174.75981246645097,"[55, 0, 199]",199,a,0.23861924023367465,colour,0.5
003,76,0,1,3,9,109,175.27943739946932,175.80778601265047,"[1, 0, 253]",253,a,0.0050920299254357815,colour,0.5
003,76,0,1,3,10,110,176.32625658414327,178.3597846609773,"[33, 0, 221]",221,a,1.510184847516939,colour,0.5
003,76,0,1,3,11,111,178.8733282238245,181.66376297431998,"[95, 0, 159]",159,l,2.2668422168353572,colour,0.5
003,76,0,1,3,12,112,182.1713362315204,184.0798132069176,"[66, 0, 188]",188,a,1.3861317507689819,colour,0.5
003,76,0,1,3,13,113,184.5936104063876,185.1281727218302,"[88, 0, 166]",166,l,0.011997324996627867,colour,0.5
003,76,0,1,3,14,114,185.6403201019857,188.85575286345556,"[87, 0, 167]",167,l,2.692540879128501,colour,0.5
003,76,0,1,3,15,115,189.37503121234477,190.00776348472573,"[45, 0, 209]",209,a,0.11006054980680346,colour,0.5
003,76,0,1,3,16,116,190.51574240298942,191.111778504448,"[50, 0, 204]",204,a,0.07356248330324888,colour,0.5
003,76,0,1,3,17,117,191.62521021510474,193.4157414577203,"[38, 0, 216]",216,a,1.2680966150946915,colour,0.5
003,76,0,1,3,18,118,193.9221071843058,194.49573701515328,"[97, 0, 157]",157,l,0.0513310800306499,colour,0.5
003,76,0,1,3,19,119,195.01593459956348,195.73571029666346,"[0, 0, 254]",254,a,0.19740447867661715,colour,0.5
003,76,0,1,3,20,120,196.25047596241347,196.8238111967221,"[41, 0, 213]",213,a,0.05041341972537339,colour,0.5
003,76,0,1,3,21,121,197.34447824512608,197.8958967588842,"[68, 0, 186]",186,a,0.02838721009902656,colour,0.5
003,76,0,1,3,22,122,198.40684763609897,201.2719555143267,"[34, 0, 220]",220,l,2.341695331968367,colour,0.5
003,76,0,1,3,23,123,201.7822490632534,202.31978727609385,"[59, 0, 195]",195,a,0.0141772604547441,colour,0.5
003,76,0,1,3,24,124,202.8292411462171,203.37571020214818,"[8, 0, 246]",246,a,0.023106528213247657,colour,0.5
003,76,0,1,3,25,125,203.89178028458264,206.95175982033834,"[10, 0, 244]",244,a,2.536615432589315,colour,0.5
003,76,0,1,3,26,126,207.47158167615999,208.08770193450619,"[24, 0, 230]",230,a,0.09299167490098625,colour,0.5
003,76,0,1,3,27,127,208.59668555285316,209.63169527694117,"[56, 0, 198]",198,a,0.5116231716237962,colour,0.5
003,76,0,1,3,28,128,210.1436713342555,210.86370578792412,"[61, 0, 193]",193,a,0.19667586428113282,colour,0.5
003,76,0,1,3,29,129,211.37820009409916,211.96767157688737,"[52, 0, 202]",202,a,0.0666233174270019,colour,0.5
003,76,0,1,3,30,130,212.48758519871626,213.01582511048764,"[30, 0, 224]",224,a,0.005419709370471537,colour,0.5
003,76,0,1,3,31,131,213.53456507239025,214.1917063203873,"[65, 0, 189]",189,l,0.1337531202007085,colour,0.5
003,76,0,1,3,32,132,214.70645308156963,217.2156600104645,"[51, 0, 203]",203,l,1.9857041920768097,colour,0.5
003,76,0,1,3,33,133,217.72377795621287,218.30372625216842,"[75, 0, 179]",179,a,0.05700836458709091,colour,0.5
003,76,0,1,3,34,134,218.81763057759963,220.71170186204836,"[35, 0, 219]",219,a,1.3705646091839299,colour,0.5
003,76,0,1,3,35,135,221.22407452191692,221.9596292495262,"[79, 0, 175]",175,l,0.21218077826779336,colour,0.5
003,76,0,1,3,36,136,222.4741979924729,223.15165812941268,"[19, 0, 235]",235,a,0.1541090306127444,colour,0.5
003,76,0,1,3,37,137,223.66181462001987,224.30367544607725,"[18, 0, 236]",236,a,0.11875429784413427,colour,0.5
003,76,0,1,3,38,138,224.81808428769,225.3517273674952,"[44, 0, 210]",210,a,0.010273462743498385,colour,0.5
003,76,0,1,3,39,139,225.8651256012963,226.607670300873,"[83, 0, 171]",171,l,0.2195539620006457,colour,0.5
003,76,0,1,3,40,140,227.11517739202827,227.87966638128273,"[47, 0, 207]",207,a,0.2401902903802693,colour,0.5
003,76,0,1,3,41,141,228.39736028923653,228.96766921388917,"[46, 0, 208]",208,a,0.04692985536530614,colour,0.5
003,76,0,1,3,42,142,229.47563710436225,230.20770196605008,"[67, 0, 187]",187,l,0.20866058627143502,colour,0.5
003,76,0,1,3,43,143,230.72641238942742,231.31167366274167,"[85, 0, 169]",169,l,0.06287430110387504,colour,0.5
003,76,0,1,3,44,144,231.8195942917373,232.39966586139053,"[21, 0, 233]",233,a,0.056837829295545816,colour,0.5
003,76,0,1,3,45,145,232.91335475328378,233.51166137470864,"[93, 0, 161]",161,l,0.07491888746153563,colour,0.5
003,76,0,1,3,46,146,234.02278633171227,234.75997118628584,"[9, 0, 245]",245,a,0.21372189617250115,colour,0.5
003,76,0,1,3,47,147,235.27295942686033,235.90365315438248,"[63, 0, 191]",191,l,0.1074016981292516,colour,0.5
003,76,0,1,3,48,148,236.41358200227842,237.2557637336431,"[82, 0, 172]",172,l,0.3191311293048784,colour,0.5
003,76,0,1,3,49,149,237.77315556199756,238.36767141940072,"[43, 0, 211]",211,a,0.07123131107073277,colour,0.5
003,76,0,1,3,50,150,238.88267378637102,239.4876746016089,"[42, 0, 212]",212,a,0.08170445344876498,colour,0.5
003,76,0,1,4,1,151,244.41486003121827,245.30365142144728,"[84, 0, 170]",170,l,0.3646663773106411,colour,0.5
003,76,0,1,4,2,152,245.82212711288594,246.5356426340295,"[68, 0, 186]",186,l,0.19027705467306077,colour,0.5
003,76,0,1,4,3,153,247.05646761448588,247.65565014851745,"[81, 0, 173]",173,l,0.07579164928756654,colour,0.5
003,76,0,1,4,4,154,248.16592203592882,251.35161709075328,"[39, 0, 215]",215,a,2.6624530437402427,colour,0.5
003,76,0,1,4,5,155,251.87072844896466,252.58365910931025,"[57, 0, 197]",197,a,0.1896583231864497,colour,0.5
003,76,0,1,4,6,156,253.10514220583718,253.6476905287709,"[3, 0, 251]",251,a,0.019068035297095776,colour,0.5
003,76,0,1,4,7,157,254.1677321504103,254.77565372467507,"[87, 0, 167]",167,l,0.08455156348645687,colour,0.5
003,76,0,1,4,8,158,255.2928651716793,256.00761579256505,"[27, 0, 227]",227,a,0.19138966838363558,colour,0.5
003,76,0,1,4,9,159,256.5287452158518,257.26367569807917,"[41, 0, 213]",213,a,0.2116034006467089,colour,0.5
003,76,0,1,4,10,160,257.77878479729407,258.4396344955312,"[88, 0, 166]",166,l,0.13744463515467942,colour,0.5
003,76,0,1,4,11,161,258.9508059263462,259.5196253268514,"[90, 0, 164]",164,l,0.046210299362428486,colour,0.5
003,76,0,1,4,12,162,260.02902405848727,260.6555816194741,"[53, 0, 201]",201,a,0.10835441073868424,colour,0.5
003,76,0,1,4,13,163,261.164443933405,261.7036343285581,"[28, 0, 226]",226,a,0.015714046079665422,colour,0.5
003,76,0,1,4,14,164,262.202119598398,264.4716431160923,"[40, 0, 214]",214,a,1.746206282172352,colour,0.5
003,76,0,1,4,15,165,264.9834474567324,265.6396426875144,"[48, 0, 206]",206,a,0.13784281304106116,colour,0.5
003,76,0,1,4,16,166,266.15037694969214,266.75165513623506,"[80, 0, 174]",174,l,0.07774354820139706,colour,0.5
003,76,0,1,4,17,167,267.2501845166553,268.1836762021994,"[31, 0, 223]",223,a,0.41008544084616005,colour,0.5
003,76,0,1,4,18,168,268.7034291350283,269.27966267918237,"[35, 0, 219]",219,a,0.05297774856444448,colour,0.5
003,76,0,1,4,19,169,269.7972990856506,271.41559415950906,"[19, 0, 235]",235,a,1.0948281770106405,colour,0.5
003,76,0,1,4,20,170,271.9223962670658,272.5595900225453,"[25, 0, 229]",229,a,0.1138312277616933,colour,0.5
003,76,0,1,4,21,171,273.0787695160834,273.9196161108557,"[51, 0, 203]",203,a,0.31744783325120807,colour,0.5
003,76,0,1,4,22,172,274.43819183902815,274.9756189874606,"[69, 0, 185]",185,l,0.014390330878086388,colour,0.5
003,76,0,1,4,23,173,275.4851957373321,276.04770809423644,"[6, 0, 248]",248,a,0.03919945366214961,colour,0.5
003,76,0,1,4,24,174,276.56346073711757,278.90359801601153,"[70, 0, 184]",184,l,1.8168543078936636,colour,0.5
003,76,0,1,4,25,175,279.4230276015587,279.9916036054492,"[29, 0, 225]",225,a,0.04554666951298714,colour,0.5
003,76,0,1,4,26,176,280.4918954450404,281.1276886855485,"[97, 0, 157]",157,l,0.11236690974328667,colour,0.5
003,76,0,1,4,27,177,281.6482490018243,282.3595908889547,"[32, 0, 222]",222,a,0.1879525778349489,colour,0.5
003,76,0,1,4,28,178,282.87640652118716,283.4395895971684,"[43, 0, 211]",211,a,0.03983118198812008,colour,0.5
003,76,0,1,4,29,179,283.95454273349606,284.5596120778937,"[12, 0, 242]",242,a,0.08230309886857867,colour,0.5
003,76,0,1,4,30,180,285.07960013649426,287.31962461792864,"[99, 0, 155]",155,l,1.7166028767824173,colour,0.5
003,76,0,1,4,31,181,287.82994258520193,288.35961806436535,"[7, 0, 247]",247,a,0.006420865072868764,colour,0.5
003,76,0,1,4,32,182,288.8924919635756,289.42360419151373,"[75, 0, 179]",179,a,0.007810352370142937,colour,0.5
003,76,0,1,4,33,183,289.9393859789707,290.8795903690625,"[54, 0, 200]",200,l,0.41677609004545957,colour,0.5
003,76,0,1,4,34,184,291.39265186490957,292.26364103972446,"[8, 0, 246]",246,a,0.3476168008055538,colour,0.5
003,76,0,1,4,35,185,292.78340224316344,293.5035725735361,"[83, 0, 171]",171,l,0.19678023329470307,colour,0.5
003,76,0,1,4,36,186,294.0178506585071,294.7036166054895,"[16, 0, 238]",238,a,0.16284728317987174,colour,0.5
003,76,0,1,4,37,187,295.2210391537519,297.28758370212745,"[34, 0, 220]",220,a,1.543430143268779,colour,0.5
003,76,0,1,4,38,188,297.7994301841827,298.3595731658861,"[14, 0, 240]",240,a,0.03516883763950318,colour,0.5
003,76,0,1,4,39,189,298.879286320298,299.58366462320555,"[58, 0, 196]",196,l,0.18106539966538548,colour,0.5
003,76,0,1,4,40,190,300.0980892187217,300.83956620271783,"[37, 0, 217]",217,a,0.21814202540554106,colour,0.5
003,76,0,1,4,41,191,301.3480811448535,302.00755120196845,"[98, 0, 156]",156,l,0.13599804020486772,colour,0.5
003,76,0,1,4,42,192,302.5201676522847,303.14361974049825,"[73, 0, 181]",181,l,0.10025379410944879,colour,0.5
003,76,0,1,4,43,193,303.6607287876541,306.53556740947533,"[79, 0, 175]",175,l,2.3514170171692967,colour,0.5
003,76,0,1,4,44,194,307.0517068087356,307.6315834247507,"[45, 0, 209]",209,a,0.05651605746243149,colour,0.5
003,76,0,1,4,45,195,308.14552674093284,309.05556728341617,"[92, 0, 162]",162,l,0.3866315408376977,colour,0.5
003,76,0,1,4,46,196,309.5674779623514,310.28753053292166,"[33, 0, 221]",221,a,0.19730444182641804,colour,0.5
003,76,0,1,4,47,197,310.80196497461293,311.4795818619896,"[1, 0, 253]",253,a,0.15420591668225825,colour,0.5
003,76,0,1,4,48,198,311.98963358975016,312.6396103921579,"[91, 0, 163]",163,l,0.12664263148326427,colour,0.5
003,76,0,1,4,49,199,313.1459757249104,313.687585907639,"[82, 0, 172]",172,l,0.018314608605578542,colour,0.5
003,76,0,1,4,50,200,314.20855267252773,314.77554659871385,"[64, 0, 190]",190,a,0.043580986093729734,colour,0.5
003,76,0,1,5,1,201,320.3497132410994,324.6395221707644,"[35, 0, 219]",219,a,3.7656421691644937,colour,0.5
003,76,0,1,5,2,202,325.14774212252814,326.0235744167585,"[76, 0, 178]",178,l,0.35243038192857057,colour,0.5
003,76,0,1,5,3,203,326.5385149499634,327.2235258950386,"[43, 0, 211]",211,a,0.16161021415609866,colour,0.5
003,76,0,1,5,4,204,327.7416991130449,328.4395541510312,"[72, 0, 182]",182,l,0.17445903329644352,colour,0.5
003,76,0,1,5,5,205,328.9605638451176,329.56758075614925,"[6, 0, 248]",248,a,0.08427980996202677,colour,0.5
003,76,0,1,5,6,206,330.085576743586,330.7355259768665,"[41, 0, 213]",213,a,0.12663042230997235,colour,0.5
003,76,0,1,5,7,207,331.2419574757805,333.63155821873806,"[58, 0, 196]",196,a,1.8662886274978518,colour,0.5
003,76,0,1,5,8,208,334.14856565371156,334.7195425404934,"[79, 0, 175]",175,l,0.047728574252687395,colour,0.5
003,76,0,1,5,9,209,335.22674203827046,335.8715637954883,"[52, 0, 202]",202,a,0.12154075549915433,colour,0.5
003,76,0,1,5,10,210,336.38298019825015,336.9755232830066,"[14, 0, 240]",240,a,0.06916559080127627,colour,0.5
003,76,0,1,5,11,211,337.49385167623404,338.03949089942034,"[45, 0, 209]",209,a,0.022150664823129773,colour,0.5
003,76,0,1,5,12,212,338.5566633557901,339.18351866398007,"[67, 0, 187]",187,a,0.09587304934393615,colour,0.5
003,76,0,1,5,13,213,339.68993559048977,340.3675520841498,"[84, 0, 170]",170,l,0.16235852078534663,colour,0.5
003,76,0,1,5,14,214,340.8850660045864,341.43150670372415,"[28, 0, 226]",226,a,0.02314709429629147,colour,0.5
003,76,0,1,5,15,215,341.94757521071006,342.54356798925437,"[29, 0, 225]",225,a,0.07254399848170578,colour,0.5
003,76,0,1,5,16,216,343.0570623213425,343.62354897439945,"[21, 0, 233]",233,a,0.043054808396846056,colour,0.5
003,76,0,1,5,17,217,344.1352796658175,346.8875838596141,"[69, 0, 185]",185,l,2.2288940106518567,colour,0.5
003,76,0,1,5,18,218,347.4024495622143,347.99950296687894,"[86, 0, 168]",168,l,0.07367748615797609,colour,0.5
003,76,0,1,5,19,219,348.51191304204985,349.04751983610913,"[9, 0, 245]",245,a,0.01220173086039722,colour,0.5
003,76,0,1,5,20,220,349.5588700727094,350.1275622610701,"[10, 0, 244]",244,a,0.04521426372230053,colour,0.5
003,76,0,1,5,21,221,350.6371122294804,351.2075255231466,"[20, 0, 234]",234,a,0.047236267128027976,colour,0.5
003,76,0,1,5,22,222,351.715283100144,352.247491006623,"[97, 0, 157]",157,l,0.00871225877199322,colour,0.5
003,76,0,1,5,23,223,352.76222319551744,353.37546719936654,"[63, 0, 191]",191,a,0.09032730932813138,colour,0.5
003,76,0,1,5,24,224,353.8873235277133,354.511562913307,"[8, 0, 246]",246,l,0.10102061147335917,colour,0.5
003,76,0,1,5,25,225,355.028050865978,355.73545311542694,"[15, 0, 239]",239,a,0.18232058559078723,colour,0.5
003,76,0,1,5,26,226,356.24849491904024,357.16750253841747,"[54, 0, 200]",200,l,0.3956356393173337,colour,0.5
003,76,0,1,5,27,227,357.68612789118197,360.0954055546317,"[39, 0, 215]",215,a,1.8867863222258165,colour,0.5
003,76,0,1,5,28,228,360.60750094719697,361.3915041987784,"[66, 0, 188]",188,l,0.261342556681484,colour,0.5
003,76,0,1,5,29,229,361.90444517787546,362.54353687539697,"[31, 0, 223]",223,a,0.11611592606641352,colour,0.5
003,76,0,1,5,30,230,363.06072114710696,363.6954494290985,"[12, 0, 242]",242,a,0.11141104646958411,colour,0.5
003,76,0,1,5,31,231,364.2014677838888,364.84751794557087,"[59, 0, 195]",195,l,0.12321184237953275,colour,0.5
003,76,0,1,5,32,232,365.3578453651862,365.9274741184199,"[81, 0, 173]",173,l,0.04659232962876558,colour,0.5
003,76,0,1,5,33,233,366.4359437683597,367.01551909244154,"[26, 0, 228]",228,a,0.05623682087752968,colour,0.5
003,76,0,1,5,34,234,367.5312721292721,368.2395073622465,"[44, 0, 210]",210,a,0.1854477197630331,colour,0.5
003,76,0,1,5,35,235,368.7399689492304,369.31954269798007,"[40, 0, 214]",214,a,0.05649282049853355,colour,0.5
003,76,0,1,5,36,236,369.83378179220017,372.0075086666038,"[95, 0, 159]",159,l,1.6564819504274055,colour,0.5
003,76,0,1,5,37,237,372.51674749690574,373.77552218025085,"[89, 0, 165]",165,l,0.7356791828060523,colour,0.5
003,76,0,1,5,38,238,374.2874505822547,374.8555059223436,"[36, 0, 218]",218,a,0.044860196649096906,colour,0.5
003,76,0,1,5,39,239,375.365753785125,376.1034797835164,"[64, 0, 190]",190,l,0.21445405518170446,colour,0.5
003,76,0,1,5,40,240,376.61577485583257,377.19153184676543,"[51, 0, 203]",203,a,0.05180290702264756,colour,0.5
003,76,0,1,5,41,241,377.70525579096284,378.2556121030357,"[2, 0, 252]",252,a,0.026946128928102553,colour,0.5
003,76,0,1,5,42,242,378.7678039878374,379.28752383752726,"[32, 0, 222]",222,a,0.007585466490127146,colour,0.5
003,76,0,1,5,43,243,379.8042079253355,382.14349646680057,"[3, 0, 251]",251,a,1.8159590967698023,colour,0.5
003,76,0,1,5,44,244,382.65848504926544,383.2875655852258,"[83, 0, 171]",171,l,0.1056152144446969,colour,0.5
003,76,0,1,5,45,245,383.79926240595523,386.5835252017714,"[90, 0, 164]",164,l,2.2619482912123203,colour,0.5
003,76,0,1,5,46,246,387.103762564715,387.68749177851714,"[96, 0, 158]",158,l,0.0687331483932212,colour,0.5
003,76,0,1,5,47,247,388.20580678095575,390.07147195073776,"[91, 0, 163]",163,l,1.3422565620858222,colour,0.5
003,76,0,1,5,48,248,390.5812507434748,392.6154648993397,"[38, 0, 216]",216,a,1.5115585810272023,colour,0.5
003,76,0,1,5,49,249,393.128137275693,395.27151558885816,"[53, 0, 201]",201,a,1.6201678097713739,colour,0.5
003,76,0,1,5,50,250,395.7858751998283,396.4315614482621,"[75, 0, 179]",179,l,0.12270732631441206,colour,0.5
003,76,0,1,6,1,251,401.22314465243835,402.3514268633444,"[93, 0, 161]",161,l,0.6041737395571545,colour,0.5
003,76,0,1,6,2,252,402.8659109295113,404.74342888290994,"[70, 0, 184]",184,l,1.3544630190590397,colour,0.5
003,76,0,1,6,3,253,405.2566305878572,405.8634265513392,"[78, 0, 176]",176,a,0.08335072814952582,colour,0.5
003,76,0,1,6,4,254,406.3818132337183,406.9993966285838,"[60, 0, 194]",194,a,0.09425946394912899,colour,0.5
003,76,0,1,6,5,255,407.50678556610364,408.18343398720026,"[0, 0, 254]",254,a,0.15320318576414138,colour,0.5
003,76,0,1,6,6,256,408.6944502427941,409.28745452070143,"[89, 0, 165]",165,l,0.06959488254506141,colour,0.5
003,76,0,1,6,7,257,409.80384440580383,410.4793817884056,"[20, 0, 234]",234,a,0.152241020812653,colour,0.5
003,76,0,1,6,8,258,410.99150514404755,411.671458717552,"[65, 0, 189]",189,l,0.15656741498969495,colour,0.5
003,76,0,1,6,9,259,412.1790827808436,414.727391489665,"[73, 0, 181]",181,l,2.024907584185712,colour,0.5
003,76,0,1,6,10,260,415.24178654677235,415.871406257269,"[4, 0, 250]",250,a,0.1065659576561302,colour,0.5
003,76,0,1,6,11,261,416.38255405728705,417.2474039667286,"[51, 0, 203]",203,l,0.3414479970233515,colour,0.5
003,76,0,1,6,12,262,417.75763489410747,418.69541201379616,"[45, 0, 209]",209,a,0.4143157366197556,colour,0.5
003,76,0,1,6,13,263,419.2108464293415,419.7593678148696,"[6, 0, 248]",248,a,0.025019830209203064,colour,0.5
003,76,0,1,6,14,264,420.2735068722395,422.79942742723506,"[94, 0, 160]",160,l,2.002637190162204,colour,0.5
003,76,0,1,6,15,265,423.30629806395154,423.8474312996259,"[16, 0, 238]",238,a,0.017739594099111855,colour,0.5
003,76,0,1,6,16,266,424.36893133143894,427.4232926595723,"[2, 0, 252]",252,a,2.5310003756312653,colour,0.5
003,76,0,1,6,17,267,427.9315697189886,428.4633770843502,"[38, 0, 216]",216,a,0.008302659261971712,colour,0.5
003,76,0,1,6,18,268,428.9942872694228,429.51949023781344,"[43, 0, 211]",211,a,0.0017372530419379473,colour,0.5
003,76,0,1,6,19,269,430.0412458755309,430.5834369803779,"[54, 0, 200]",200,a,0.01883566635660827,colour,0.5
003,76,0,1,6,20,270,431.10376414004713,433.1834698271705,"[71, 0, 183]",183,l,1.5565196020761505,colour,0.5
003,76,0,1,6,21,271,433.6990318488097,434.43937140668277,"[92, 0, 162]",162,l,0.216950248577632,colour,0.5
003,76,0,1,6,22,272,434.9491442916915,437.095386256231,"[50, 0, 204]",204,a,1.6229440274182707,colour,0.5
003,76,0,1,6,23,273,437.6056821681559,438.30347852327395,"[32, 0, 222]",222,a,0.17512935865670443,colour,0.5
003,76,0,1,6,24,274,438.8244366236031,439.4873587375041,"[42, 0, 212]",212,a,0.13937014644034207,colour,0.5
003,76,0,1,6,25,275,439.99639985733666,442.17538575211074,"[21, 0, 233]",233,a,1.6555772870779037,colour,0.5
003,76,0,1,6,26,276,442.68424609687645,443.23136972414795,"[34, 0, 220]",220,a,0.024191178963519633,colour,0.5
003,76,0,1,6,27,277,443.74673915526364,445.72735722514335,"[12, 0, 242]",242,a,1.4571901636663824,colour,0.5
003,76,0,1,6,28,278,446.2469624658115,446.935363633791,"[52, 0, 202]",202,a,0.1651311939349398,colour,0.5
003,76,0,1,6,29,279,447.45018758869264,447.9993800870143,"[53, 0, 201]",201,a,0.025774044450372458,colour,0.5
003,76,0,1,6,30,280,448.51272633322515,449.11948685068637,"[87, 0, 167]",167,l,0.08338026655837893,colour,0.5
003,76,0,1,6,31,281,449.6378361177631,450.2393380085705,"[15, 0, 239]",239,a,0.07835203967988491,colour,0.5
003,76,0,1,6,32,282,450.74726021301467,451.43135783006437,"[11, 0, 243]",243,a,0.16075793222989887,colour,0.5
003,76,0,1,6,33,283,451.95050817902666,452.90338809625246,"[56, 0, 198]",198,l,0.4294988786568865,colour,0.5
003,76,0,1,6,34,284,453.4194345480064,454.0794004567433,"[74, 0, 180]",180,l,0.13663961470592767,colour,0.5
003,76,0,1,6,35,285,454.592711256817,455.1913747023791,"[40, 0, 214]",214,a,0.07525247475132346,colour,0.5
003,76,0,1,6,36,286,455.70213732135016,456.30337257881183,"[67, 0, 187]",187,l,0.07783728349022567,colour,0.5
003,76,0,1,6,37,287,456.8116752380738,457.49538058484904,"[19, 0, 235]",235,a,0.16083039983641356,colour,0.5
003,76,0,1,6,38,288,458.01448327850085,458.60735483048484,"[63, 0, 191]",191,l,0.06936015048995614,colour,0.5
003,76,0,1,6,39,289,459.12495776009746,459.8313462509541,"[68, 0, 186]",186,l,0.18402633094228804,colour,0.5
003,76,0,1,6,40,290,460.3442903808318,460.87142161722295,"[1, 0, 253]",253,a,0.003578874981030822,colour,0.5
003,76,0,1,6,41,291,461.3913344513858,461.99935409321915,"[72, 0, 182]",182,l,0.0845547141507268,colour,0.5
003,76,0,1,6,42,292,462.51651827874593,463.1754566443851,"[84, 0, 170]",170,l,0.13562191766686738,colour,0.5
003,76,0,1,6,43,293,463.6883991988143,465.9753917385824,"[24, 0, 230]",230,a,1.76357723667752,colour,0.5
003,76,0,1,6,44,294,466.48697198112495,467.08737189194653,"[83, 0, 171]",171,l,0.07713072444312274,colour,0.5
003,76,0,1,6,45,295,467.59647602704354,468.15939955879,"[27, 0, 227]",227,a,0.03959133010357618,colour,0.5
003,76,0,1,6,46,296,468.67463153775316,469.23139768722467,"[22, 0, 232]",232,a,0.03326380648650229,colour,0.5
003,76,0,1,6,47,297,469.75289693137165,470.5193484533811,"[39, 0, 215]",215,a,0.24316461256239563,colour,0.5
003,76,0,1,6,48,298,471.03418579907157,471.6553102597827,"[35, 0, 219]",219,a,0.09770009911153466,colour,0.5
003,76,0,1,6,49,299,472.1765672889305,472.97530312335584,"[57, 0, 197]",197,l,0.28191508224699646,colour,0.5
003,76,0,1,6,50,300,473.4827901283279,474.12732004607096,"[49, 0, 205]",205,a,0.12118944525718689,colour,0.5
003,76,0,1,7,1,301,479.66187212150544,484.375329747214,"[62, 0, 192]",192,a,4.18964217544999,colour,0.5
003,76,0,1,7,2,302,484.8818313506199,485.48729257134255,"[18, 0, 236]",236,a,0.08203173917718232,colour,0.5
003,76,0,1,7,3,303,486.00690253823996,486.6153502902016,"[77, 0, 177]",177,l,0.08513091027271003,colour,0.5
003,76,0,1,7,4,304,487.1319914488122,489.6553358597448,"[94, 0, 160]",160,l,1.9999610092490911,colour,0.5
003,76,0,1,7,5,305,490.1635294238804,490.7594087747857,"[12, 0, 242]",242,a,0.0726204045349732,colour,0.5
003,76,0,1,7,6,306,491.2729645468062,492.00733773759566,"[15, 0, 239]",239,a,0.21097442915197462,colour,0.5
003,76,0,1,7,7,307,492.5230313036591,494.63125535135623,"[7, 0, 247]",247,a,1.5848973598331213,colour,0.5
003,76,0,1,7,8,308,495.14826278644614,495.6793600481469,"[69, 0, 185]",185,l,0.007751275436021388,colour,0.5
003,76,0,1,7,9,309,496.21071724803187,497.78327778796665,"[44, 0, 210]",210,a,1.049055440002121,colour,0.5
003,76,0,1,7,10,310,498.3047719121678,498.9672879712889,"[14, 0, 240]",240,a,0.1394780600676313,colour,0.5
003,76,0,1,7,11,311,499.4780324733583,500.75131209671963,"[2, 0, 252]",252,a,0.7499442708212882,colour,0.5
003,76,0,1,7,12,312,501.25951196230017,501.8153013746487,"[86, 0, 168]",168,l,0.03251589369028807,colour,0.5
003,76,0,1,7,13,313,502.3220278638182,502.88727744773496,"[6, 0, 248]",248,a,0.04185673000756651,colour,0.5
003,76,0,1,7,14,314,503.40287491551135,504.063307531178,"[91, 0, 163]",163,l,0.13707520789466798,colour,0.5
003,76,0,1,7,15,315,504.57492558285594,505.11142758792266,"[63, 0, 191]",191,a,0.012959095882251859,colour,0.5
003,76,0,1,7,16,316,505.62172192451544,506.35126302356366,"[3, 0, 251]",251,a,0.20660274289548397,colour,0.5
003,76,0,1,7,17,317,506.87198009039275,507.60730402439367,"[50, 0, 204]",204,a,0.21194840932730585,colour,0.5
003,76,0,1,7,18,318,508.1221011978341,508.7112918688217,"[72, 0, 182]",182,a,0.0657828509574756,colour,0.5
003,76,0,1,7,19,319,509.2323271628702,510.079274819931,"[31, 0, 223]",223,a,0.3246788384858519,colour,0.5
003,76,0,1,7,20,320,510.59106616373174,511.1433133286191,"[32, 0, 222]",222,a,0.02887439716141671,colour,0.5
003,76,0,1,7,21,321,511.65352259459905,512.2553308972856,"[52, 0, 202]",202,a,0.07848358410410583,colour,0.5
003,76,0,1,7,22,322,512.7643066387391,513.5512838185532,"[19, 0, 235]",235,a,0.2635260367533192,colour,0.5
003,76,0,1,7,23,323,514.0496178516187,514.6632990242215,"[74, 0, 180]",180,l,0.09449774061795324,colour,0.5
003,76,0,1,7,24,324,515.1705560233677,517.8712593528908,"[66, 0, 188]",188,l,2.1775912875309587,colour,0.5
003,76,0,1,7,25,325,518.3909173688153,519.0632575128693,"[65, 0, 189]",189,l,0.14893114240840077,colour,0.5
003,76,0,1,7,26,326,519.5784103288315,520.2793003411498,"[23, 0, 231]",231,a,0.1775873489677906,colour,0.5
003,76,0,1,7,27,327,520.7973581624683,522.095290551777,"[96, 0, 158]",158,l,0.774622636847198,colour,0.5
003,76,0,1,7,28,328,522.610040857573,523.2312921365956,"[59, 0, 195]",195,a,0.09830504597630352,colour,0.5
003,76,0,1,7,29,329,523.7506023868918,524.2792574120685,"[41, 0, 213]",213,a,0.005472091026604176,colour,0.5
003,76,0,1,7,30,330,524.7976007713005,525.7192652731901,"[61, 0, 193]",193,l,0.39819248497951776,colour,0.5
003,76,0,1,7,31,331,526.2353121187771,526.7832671541255,"[33, 0, 221]",221,a,0.024599596858024597,colour,0.5
003,76,0,1,7,32,332,527.29781817412,527.9192659821128,"[34, 0, 220]",220,a,0.09801753878127784,colour,0.5
003,76,0,1,7,33,333,528.4385053401347,529.0392384444131,"[45, 0, 209]",209,a,0.07727565965615213,colour,0.5
003,76,0,1,7,34,334,529.5495083625428,530.1512953976635,"[54, 0, 200]",200,a,0.07830832281615585,colour,0.5
003,76,0,1,7,35,335,530.6589860208333,531.5833550605457,"[9, 0, 245]",245,a,0.40090962580870837,colour,0.5
003,76,0,1,7,36,336,532.0965843346203,532.6712799116503,"[75, 0, 179]",179,l,0.05121371406130493,colour,0.5
003,76,0,1,7,37,337,533.1905314789619,534.0631744114216,"[56, 0, 198]",198,a,0.3493327861651778,colour,0.5
003,76,0,1,7,38,338,534.5811956049874,536.6792623744113,"[80, 0, 174]",174,l,1.5747388999443501,colour,0.5
003,76,0,1,7,39,339,537.1907996877562,537.8712691990659,"[87, 0, 167]",167,l,0.15709477430209517,colour,0.5
003,76,0,1,7,40,340,538.3797384550562,539.0712746341014,"[81, 0, 173]",173,l,0.1680767652578652,colour,0.5
003,76,0,1,7,41,341,539.5830084764166,540.1592865251005,"[71, 0, 183]",183,a,0.05293954547960311,colour,0.5
003,76,0,1,7,42,342,540.6767520025605,541.3912824637955,"[22, 0, 232]",232,a,0.19097022293135524,colour,0.5
003,76,0,1,7,43,343,541.9112713100621,542.5832396637416,"[25, 0, 229]",229,a,0.14861252123955637,colour,0.5
003,76,0,1,7,44,344,543.0988800605992,543.895269362838,"[64, 0, 190]",190,l,0.27298542065545917,colour,0.5
003,76,0,1,7,45,345,544.412894741632,545.19125300413,"[28, 0, 226]",226,a,0.25489451631437987,colour,0.5
003,76,0,1,7,46,346,545.7099177414784,546.3751651197672,"[30, 0, 224]",224,a,0.1420077303191647,colour,0.5
003,76,0,1,7,47,347,546.8818853074918,547.4152676614467,"[37, 0, 217]",217,a,0.010673609911464155,colour,0.5
003,76,0,1,7,48,348,547.9281720129075,548.4952336804708,"[73, 0, 181]",181,l,0.04381847498007119,colour,0.5
003,76,0,1,7,49,349,549.0064015665557,549.7271988991415,"[10, 0, 244]",244,a,0.19740014628041536,colour,0.5
003,76,0,1,7,50,350,550.2408121726476,550.9031234320719,"[36, 0, 218]",218,a,0.13892746390774846,colour,0.5
003,76,0,1,8,1,351,555.9592909361236,556.7272201668238,"[96, 0, 158]",158,l,0.24243284738622606,colour,0.5
003,76,0,1,8,2,352,557.2428767114179,558.055189585546,"[44, 0, 210]",210,a,0.2890157246729359,colour,0.5
003,76,0,1,8,3,353,558.5711096128216,559.2312232136028,"[73, 0, 181]",181,l,0.1370917494641617,colour,0.5
003,76,0,1,8,4,354,559.7430090435082,560.4712110674009,"[10, 0, 244]",244,a,0.20484540378674865,colour,0.5
003,76,0,1,8,5,355,560.9773763265694,561.6472687200876,"[79, 0, 175]",175,l,0.14641604432836175,colour,0.5
003,76,0,1,8,6,356,562.1651544307824,562.8393842460355,"[13, 0, 241]",241,a,0.1509385734098032,colour,0.5
003,76,0,1,8,7,357,563.3526828369359,563.9112138085766,"[5, 0, 249]",249,a,0.03521609911695123,colour,0.5
003,76,0,1,8,8,358,564.4307808462763,566.3191460955422,"[45, 0, 209]",209,a,1.364864875562489,colour,0.5
003,76,0,1,8,9,359,566.8387458223151,569.335083451937,"[47, 0, 207]",207,a,1.972917600418441,colour,0.5
003,76,0,1,8,10,360,569.8546414311277,570.6712590378011,"[60, 0, 194]",194,a,0.29351856152061373,colour,0.5
003,76,0,1,8,11,361,571.182821951108,573.4391339177964,"[23, 0, 231]",231,a,1.7329809465445578,colour,0.5
003,76,0,1,8,12,362,573.9498658168595,574.5031755771488,"[39, 0, 215]",215,a,0.0299334479495883,colour,0.5
003,76,0,1,8,13,363,575.0125022351276,576.8872171893017,"[49, 0, 205]",205,a,1.351701767416671,colour,0.5
003,76,0,1,8,14,364,577.4032656103373,578.0312603138154,"[83, 0, 171]",171,l,0.10470976331271231,colour,0.5
003,76,0,1,8,15,365,578.5439433241263,579.3112160140881,"[71, 0, 183]",183,l,0.24470966879744083,colour,0.5
003,76,0,1,8,16,366,579.8253767330898,580.4631955215009,"[0, 0, 254]",254,a,0.11487176781520247,colour,0.5
003,76,0,1,8,17,367,580.9817078405758,582.9671820268268,"[80, 0, 174]",174,l,1.462166796787642,colour,0.5
003,76,0,1,8,18,368,583.4818728619721,584.0711289112223,"[50, 0, 204]",204,a,0.0659262107219547,colour,0.5
003,76,0,1,8,19,369,584.5912556034746,586.0951156843221,"[8, 0, 246]",246,a,0.9805763221811503,colour,0.5
003,76,0,1,8,20,370,586.6081070756773,587.2871441703755,"[1, 0, 253]",253,a,0.15590496663935483,colour,0.5
003,76,0,1,8,21,371,587.7957047985401,589.8471091338433,"[25, 0, 229]",229,a,1.527785414014943,colour,0.5
003,76,0,1,8,22,372,590.3668313466478,590.9431716229301,"[26, 0, 228]",228,a,0.052990745403803885,colour,0.5
003,76,0,1,8,23,373,591.4604716852773,592.0071132456651,"[90, 0, 164]",164,l,0.02314079273492098,colour,0.5
003,76,0,1,8,24,374,592.515495067928,593.1350476908265,"[28, 0, 226]",226,a,0.09619088284671307,colour,0.5
003,76,0,1,8,25,375,593.6561436371412,594.199203959317,"[41, 0, 213]",213,a,0.01963123446330428,colour,0.5
003,76,0,1,8,26,376,594.7188312553335,595.2551646945067,"[33, 0, 221]",221,a,0.019993572495877743,colour,0.5
003,76,0,1,8,27,377,595.7744765201351,596.359091098886,"[51, 0, 203]",203,a,0.06128986016847193,colour,0.5
003,76,0,1,8,28,378,596.8682743969839,598.815161953331,"[55, 0, 199]",199,a,1.4320742351701483,colour,0.5
003,76,0,1,8,29,379,599.3301639264682,600.0151138253277,"[17, 0, 237]",237,a,0.16145976504776627,colour,0.5
003,76,0,1,8,30,380,600.5334536400624,601.1512182039442,"[61, 0, 193]",193,l,0.09436737769283354,colour,0.5
003,76,0,1,8,31,381,601.6585106492275,604.2952042208053,"[92, 0, 162]",162,l,2.113268422312103,colour,0.5
003,76,0,1,8,32,382,604.8164277730975,607.399097148329,"[89, 0, 165]",165,l,2.059152853791602,colour,0.5
003,76,0,1,8,33,383,607.9103733419906,608.4791407549055,"[97, 0, 157]",157,l,0.0453406882006675,colour,0.5
003,76,0,1,8,34,384,608.9886154987616,609.567095144419,"[81, 0, 173]",173,l,0.05529237911105156,colour,0.5
003,76,0,1,8,35,385,610.0824759971583,610.727111465414,"[54, 0, 200]",200,a,0.12144308176357299,colour,0.5
003,76,0,1,8,36,386,611.2387322740396,611.8631481025368,"[93, 0, 161]",161,l,0.10103085148148239,colour,0.5
003,76,0,1,8,37,387,612.3793591817375,614.3510861868272,"[52, 0, 202]",202,a,1.448225449770689,colour,0.5
003,76,0,1,8,38,388,614.8654906962765,615.4790627735201,"[34, 0, 220]",220,a,0.09022569714579731,colour,0.5
003,76,0,1,8,39,389,615.9924610073213,616.5991443310631,"[27, 0, 227]",227,a,0.08334718353580683,colour,0.5
003,76,0,1,8,40,390,617.117430976592,617.7591358397622,"[18, 0, 236]",236,a,0.12049036927055568,colour,0.5
003,76,0,1,8,41,391,618.2715226780856,618.8711557715433,"[15, 0, 239]",239,a,0.07640329166315496,colour,0.5
003,76,0,1,8,42,392,619.3835201605689,620.3832369856536,"[53, 0, 201]",201,a,0.47642322024330497,colour,0.5
003,76,0,1,8,43,393,620.8991810374428,621.4952372250846,"[78, 0, 176]",176,l,0.07296620099805295,colour,0.5
003,76,0,1,8,44,394,622.0087024125969,623.0791720262496,"[68, 0, 186]",186,l,0.5469869629014283,colour,0.5
003,76,0,1,8,45,395,623.5869595356053,624.2791215352481,"[87, 0, 167]",167,l,0.16897552087903023,colour,0.5
003,76,0,1,8,46,396,624.7901889907662,625.5351629300276,"[69, 0, 185]",185,l,0.2216594605706632,colour,0.5
003,76,0,1,8,47,397,626.0558390369406,626.6470887326868,"[77, 0, 177]",177,l,0.06781903270166367,colour,0.5
003,76,0,1,8,48,398,627.1654049166245,629.1431231012102,"[7, 0, 247]",247,a,1.4531749075977132,colour,0.5
003,76,0,1,8,49,399,629.6510823271237,631.7670655272668,"[22, 0, 232]",232,a,1.5925407216418535,colour,0.5
003,76,0,1,8,50,400,632.2764843450859,632.8232294868212,"[21, 0, 233]",233,a,0.023516915272921324,colour,0.5
003,76,0,1,9,1,401,638.2609802187653,638.7911598202772,"[91, 0, 163]",163,l,0.006166834617033601,colour,0.5
003,76,0,1,9,2,402,639.3086914637825,639.8631177764619,"[56, 0, 198]",198,a,0.03097123117186129,colour,0.5
003,76,0,1,9,3,403,640.3711872791173,640.9670961684315,"[24, 0, 230]",230,a,0.07278266886714846,colour,0.5
003,76,0,1,9,4,404,641.4806960512651,643.4391796038253,"[90, 0, 164]",164,l,1.4350182310445234,colour,0.5
003,76,0,1,9,5,405,643.9497764138505,644.5831195408246,"[84, 0, 170]",170,l,0.11001250066328794,colour,0.5
003,76,0,1,9,6,406,645.0904734260403,646.7350628144341,"[47, 0, 207]",207,a,1.1212599435821176,colour,0.5
003,76,0,1,9,7,407,647.2468234382104,648.687120775925,"[81, 0, 173]",173,l,0.916984434472397,colour,0.5
003,76,0,1,9,8,408,649.2001625795383,649.9190694531426,"[77, 0, 177]",177,l,0.19550259818788618,colour,0.5
003,76,0,1,9,9,409,650.4345767302439,651.0391108384356,"[55, 0, 199]",199,a,0.0811258943285793,colour,0.5
003,76,0,1,9,10,410,651.5597522868775,652.0871249507181,"[34, 0, 220]",220,a,0.004049520590342581,colour,0.5
003,76,0,1,9,11,411,652.6066734775668,653.2070635423297,"[96, 0, 158]",158,l,0.07699760468676686,colour,0.5
003,76,0,1,9,12,412,653.7160873329267,654.2951049717376,"[99, 0, 155]",155,l,0.05556649575009942,colour,0.5
003,76,0,1,9,13,413,654.8100159665337,655.3510869744932,"[88, 0, 166]",166,l,0.016045270138420165,colour,0.5
003,76,0,1,9,14,414,655.8584786689607,656.415103821666,"[17, 0, 237]",237,a,0.03325986803974956,colour,0.5
003,76,0,1,9,15,415,656.9366530842381,658.9911439876305,"[86, 0, 168]",168,l,1.5310177049832419,colour,0.5
003,76,0,1,9,16,416,659.4982592024608,660.1590888146311,"[73, 0, 181]",181,l,0.13750016747508198,colour,0.5
003,76,0,1,9,17,417,660.6702488238225,661.3671023125062,"[51, 0, 203]",203,a,0.17366897908505052,colour,0.5
003,76,0,1,9,18,418,661.8735231774626,663.3991278683534,"[33, 0, 221]",221,a,1.0002890827599913,colour,0.5
003,76,0,1,9,19,419,663.9069488544483,664.4551212926162,"[23, 0, 231]",231,l,0.025065909954719245,colour,0.5
003,76,0,1,9,20,420,664.9691709470935,665.4950934713706,"[46, 0, 208]",208,a,0.002428452018648386,colour,0.5
003,76,0,1,9,21,421,666.0162977252621,668.1990231841337,"[0, 0, 254]",254,a,1.6596988814417273,colour,0.5
003,76,0,1,9,22,422,668.7194992174627,669.2711095339619,"[50, 0, 204]",204,a,0.028232822543941438,colour,0.5
003,76,0,1,9,23,423,669.7820954634808,670.5751213241601,"[62, 0, 192]",192,l,0.26959440985228866,colour,0.5
003,76,0,1,9,24,424,671.0947647679131,671.6230747841764,"[43, 0, 211]",211,a,0.0049734823405742645,colour,0.5
003,76,0,1,9,25,425,672.1417395215249,672.7589227692224,"[19, 0, 235]",235,a,0.0938049660762772,colour,0.5
003,76,0,1,9,26,426,673.2667823522352,673.7911877832375,"[27, 0, 227]",227,a,0.0009739801753312349,colour,0.5
003,76,0,1,9,27,427,674.3137074814877,677.0630968238693,"[11, 0, 243]",243,a,2.225974826957099,colour,0.5
003,76,0,1,9,28,428,677.5822515051113,678.1910072444007,"[32, 0, 222]",222,a,0.08542944525834173,colour,0.5
003,76,0,1,9,29,429,678.7072872465942,679.3510653129779,"[61, 0, 193]",193,l,0.12066917517222464,colour,0.5
003,76,0,1,9,30,430,679.8637026371434,680.4150931878248,"[4, 0, 250]",250,a,0.028044958249665797,colour,0.5
003,76,0,1,9,31,431,680.9264225506922,681.5110430371715,"[37, 0, 217]",217,a,0.06139344163239002,colour,0.5
003,76,0,1,9,32,432,682.0200447724201,682.5669864431256,"[29, 0, 225]",225,a,0.02246180293150246,colour,0.5
003,76,0,1,9,33,433,683.0838194044773,683.6230314612621,"[1, 0, 253]",253,a,0.016374131315387785,colour,0.5
003,76,0,1,9,34,434,684.1307780105853,684.7030943662394,"[52, 0, 202]",202,l,0.04887939104810357,colour,0.5
003,76,0,1,9,35,435,685.2090130781289,685.7590893659508,"[93, 0, 161]",161,a,0.02671415393706411,colour,0.5
003,76,0,1,9,36,436,686.2715612748871,688.2950049348874,"[59, 0, 195]",195,a,1.5004367748042569,colour,0.5
003,76,0,1,9,37,437,688.8044182388112,689.3830621181987,"[83, 0, 171]",171,l,0.055520021938718855,colour,0.5
003,76,0,1,9,38,438,689.8983149710111,690.6230082242982,"[35, 0, 219]",219,a,0.2013153654988855,colour,0.5
003,76,0,1,9,39,439,691.1327240016544,693.7910176420119,"[39, 0, 215]",215,a,2.1349468663102016,colour,0.5
003,76,0,1,9,40,440,694.3067943094065,696.8550526059698,"[18, 0, 236]",236,a,2.0248410241911188,colour,0.5
003,76,0,1,9,41,441,697.3695350968046,700.1750750079518,"[95, 0, 159]",159,l,2.282253395533189,colour,0.5
003,76,0,1,9,42,442,700.6836509960704,702.3589823974762,"[75, 0, 179]",179,l,1.151983839692548,colour,0.5
003,76,0,1,9,43,443,702.8714247680036,704.4231378783006,"[89, 0, 165]",165,l,1.029040206107311,colour,0.5
003,76,0,1,9,44,444,704.9347358437954,705.4790485950653,"[13, 0, 241]",241,a,0.02157840714789927,colour,0.5
003,76,0,1,9,45,445,705.9966330139432,708.5670451261103,"[64, 0, 190]",190,l,2.047066519735381,colour,0.5
003,76,0,1,9,46,446,709.0749661490554,709.7190348735312,"[16, 0, 238]",238,a,0.12081214122008532,colour,0.5
003,76,0,1,9,47,447,710.2312870166497,712.6310044717975,"[31, 0, 223]",223,a,1.8764750503469259,colour,0.5
003,76,0,1,9,48,448,713.1391070574755,713.6790430024266,"[10, 0, 244]",244,a,0.01660728780552745,colour,0.5
003,76,0,1,9,49,449,714.1868364193942,716.5829048949527,"[25, 0, 229]",229,a,1.8728945998009294,colour,0.5
003,76,0,1,9,50,450,717.0921315160813,717.8790263822302,"[63, 0, 191]",191,l,0.26121731381863356,colour,0.5
003,76,0,1,10,1,451,725.9083938739495,726.606964529492,"[29, 0, 225]",225,a,0.1743861718568951,colour,0.5
003,76,0,1,10,2,452,727.1280392081244,730.1669046807801,"[15, 0, 239]",239,a,2.515537997125648,colour,0.5
003,76,0,1,10,3,453,730.6765239658998,732.1990078241797,"[11, 0, 243]",243,a,0.999181194929406,colour,0.5
003,76,0,1,10,4,454,732.707931971876,733.3029614039697,"[69, 0, 185]",185,l,0.07143020303919911,colour,0.5
003,76,0,1,10,5,455,733.8173643379705,735.3429686349118,"[89, 0, 165]",165,l,1.0021263724192977,colour,0.5
003,76,0,1,10,6,456,735.8488172423095,736.4309478367213,"[64, 0, 190]",190,l,0.057033964432775974,colour,0.5
003,76,0,1,10,7,457,736.9448112022365,739.0390056816395,"[71, 0, 183]",183,l,1.5732296836795285,colour,0.5
003,76,0,1,10,8,458,739.5536094768904,740.1030185903655,"[80, 0, 174]",174,l,0.02626359462738037,colour,0.5
003,76,0,1,10,9,459,740.6162545598345,741.2389933937229,"[21, 0, 233]",233,a,0.10005765908863395,colour,0.5
003,76,0,1,10,10,460,741.756955904304,742.4070185651071,"[87, 0, 167]",167,l,0.12676787446253002,colour,0.5
003,76,0,1,10,11,461,742.9273177618161,743.582950974931,"[56, 0, 198]",198,a,0.1321631654864177,colour,0.5
003,76,0,1,10,12,462,744.0993759122211,746.1833000796614,"[50, 0, 204]",204,a,1.5604868088848889,colour,0.5
003,76,0,1,10,13,463,746.6957692317665,748.7670269304654,"[44, 0, 210]",210,a,1.548619452980347,colour,0.5
003,76,0,1,10,14,464,749.2741366314003,749.9588982721325,"[73, 0, 181]",181,l,0.16126953775528818,colour,0.5
003,76,0,1,10,15,465,750.4772203637986,751.0389367586467,"[39, 0, 215]",215,a,0.03814827965106815,colour,0.5
003,76,0,1,10,16,466,751.5555944588268,752.1508759520948,"[99, 0, 155]",155,l,0.07196150079835206,colour,0.5
003,76,0,1,10,17,467,752.6650075264042,753.2069887116086,"[19, 0, 235]",235,a,0.019156650523655117,colour,0.5
003,76,0,1,10,18,468,753.7274954648456,754.4149561296217,"[76, 0, 178]",178,l,0.16433168738149107,colour,0.5
003,76,0,1,10,19,469,754.9307308278512,755.4629387342138,"[13, 0, 241]",241,a,0.008922572364099324,colour,0.5
003,76,0,1,10,20,470,755.977674467722,756.5349274103064,"[67, 0, 187]",187,l,0.03390538087114692,colour,0.5
003,76,0,1,10,21,471,757.0560162673937,757.6228699844796,"[22, 0, 232]",232,a,0.043549478403292596,colour,0.5
003,76,0,1,10,22,472,758.1341792612802,760.3349448182853,"[83, 0, 171]",171,l,1.677795693394728,colour,0.5
003,76,0,1,10,23,473,760.8546201635618,763.3988888040185,"[68, 0, 186]",186,l,2.0212168568978086,colour,0.5
003,76,0,1,10,24,474,763.9171849018894,764.6069259326905,"[32, 0, 222]",222,a,0.16623593086842448,colour,0.5
003,76,0,1,10,25,475,765.12049076322,767.6869230654556,"[47, 0, 207]",207,a,2.0432643342064694,colour,0.5
003,76,0,1,10,26,476,768.1987455229973,768.7510419186438,"[36, 0, 218]",218,a,0.02882989263162017,colour,0.5
003,76,0,1,10,27,477,769.2613768213196,769.8309390145587,"[94, 0, 160]",160,l,0.04627213312778622,colour,0.5
003,76,0,1,10,28,478,770.33967214718,771.0229560791049,"[75, 0, 179]",179,l,0.15997024101670831,colour,0.5
003,76,0,1,10,29,479,771.542815744062,773.7588814154733,"[88, 0, 166]",166,l,1.6926696667214856,colour,0.5
003,76,0,1,10,30,480,774.277271248633,774.8309256238863,"[55, 0, 199]",199,a,0.030077989329583943,colour,0.5
003,76,0,1,10,31,481,775.342418432585,775.8708966210252,"[24, 0, 230]",230,a,0.004933703923597932,colour,0.5
003,76,0,1,10,32,482,776.3895586015424,777.1348940910539,"[65, 0, 189]",189,l,0.22199856175575405,colour,0.5
003,76,0,1,10,33,483,777.6552066784352,778.4949335700367,"[0, 0, 254]",254,a,0.31897162180393934,colour,0.5
003,76,0,1,10,34,484,779.0125270474236,779.5749145551817,"[45, 0, 209]",209,a,0.039096659864299,colour,0.5
003,76,0,1,10,35,485,780.0905955182388,780.6389266762417,"[96, 0, 158]",158,l,0.024948544101789594,colour,0.5
003,76,0,1,10,36,486,781.165876743733,781.7748865134781,"[17, 0, 237]",237,a,0.0825283785816282,colour,0.5
003,76,0,1,10,37,487,782.2938584503718,782.9509410153842,"[54, 0, 200]",200,a,0.13055036775767803,colour,0.5
003,76,0,1,10,38,488,783.4690858764807,784.0869449633174,"[93, 0, 161]",161,l,0.09414249181281775,colour,0.5
003,76,0,1,10,39,489,784.6075064610923,785.1750222325791,"[60, 0, 194]",194,a,0.04451400623656809,colour,0.5
003,76,0,1,10,40,490,785.6858002116205,786.2869385830127,"[12, 0, 242]",242,a,0.07802908634766936,colour,0.5
003,76,0,1,10,41,491,786.797360919416,787.4149565234547,"[25, 0, 229]",229,a,0.09638977481517941,colour,0.5
003,76,0,1,10,42,492,787.9224801561795,788.5028805867769,"[38, 0, 216]",216,a,0.056852795416489244,colour,0.5
003,76,0,1,10,43,493,789.0163371098461,789.606909784954,"[10, 0, 244]",244,a,0.0670809659641236,colour,0.5
003,76,0,1,10,44,494,790.1241783396108,790.6948519652942,"[27, 0, 227]",227,a,0.047109448933042586,colour,0.5
003,76,0,1,10,45,495,791.2024145886535,791.9268774423981,"[33, 0, 221]",221,a,0.20104164292570204,colour,0.5
003,76,0,1,10,46,496,792.4367826594971,793.1268541266909,"[46, 0, 208]",208,a,0.1642273182515055,colour,0.5
003,76,0,1,10,47,497,793.6427170464303,794.2388602738502,"[86, 0, 168]",168,l,0.07280236121732742,colour,0.5
003,76,0,1,10,48,498,794.75389533001,795.3349337906111,"[97, 0, 157]",157,l,0.058010307722724974,colour,0.5
003,76,0,1,10,49,499,795.8477790652541,796.4068897776306,"[7, 0, 247]",247,a,0.03577260300517082,colour,0.5
003,76,0,1,10,50,500,796.926065726555,797.5109177941922,"[31, 0, 223]",223,a,0.06157815514598042,colour,0.5
003,76,0,1,11,1,501,802.9736930824583,803.886852488271,"[23, 0, 231]",231,l,0.3889977652579546,colour,0.5
003,76,0,1,11,2,502,804.396486345795,805.05485954287,"[3, 0, 251]",251,a,0.13498782622627914,colour,0.5
003,76,0,1,11,3,503,805.5684543056414,806.2309199525043,"[86, 0, 168]",168,l,0.13903222687076777,colour,0.5
003,76,0,1,11,4,504,806.7404155702097,807.5348407643614,"[34, 0, 220]",220,a,0.2708988266531378,colour,0.5
003,76,0,1,11,5,505,808.052985625458,809.7348410793347,"[25, 0, 229]",229,a,1.1588107595453039,colour,0.5
003,76,0,1,11,6,506,810.2563753759023,811.0628876917763,"[99, 0, 155]",155,a,0.28310449584387243,colour,0.5
003,76,0,1,11,7,507,811.5703045923728,812.1908382846741,"[97, 0, 157]",157,a,0.09727356443181634,colour,0.5
003,76,0,1,11,8,508,812.711024053744,813.3348810153548,"[32, 0, 222]",222,a,0.10041566472500563,colour,0.5
003,76,0,1,11,9,509,813.8516860137461,818.4309119967511,"[64, 0, 190]",190,l,4.055784686119296,colour,0.5
003,76,0,1,11,10,510,818.9473381156567,819.8628342075972,"[2, 0, 252]",252,a,0.39204770571086556,colour,0.5
003,76,0,1,11,11,511,820.3693732263055,822.0708650347078,"[1, 0, 253]",253,a,1.1782155327964574,colour,0.5
003,76,0,1,11,12,512,822.5882797060767,823.2787733757868,"[71, 0, 183]",183,l,0.1672878925455734,colour,0.5
003,76,0,1,11,13,513,823.7914654443739,825.950840978534,"[41, 0, 213]",213,a,1.6360523909097537,colour,0.5
003,76,0,1,11,14,514,826.4649327745428,827.0468254862353,"[62, 0, 192]",192,a,0.05851246090605855,colour,0.5
003,76,0,1,11,15,515,827.5587696421426,830.3587220655754,"[30, 0, 224]",224,a,2.276515458826907,colour,0.5
003,76,0,1,11,16,516,830.8715137771796,831.4868384674191,"[74, 0, 180]",180,l,0.09208858688361943,colour,0.5
003,76,0,1,11,17,517,831.9973238190869,832.798865803401,"[53, 0, 201]",201,l,0.27883087715599686,colour,0.5
003,76,0,1,11,18,518,833.3092838075245,835.1108340626815,"[37, 0, 217]",217,a,1.2785878744907677,colour,0.5
003,76,0,1,11,19,519,835.6218676473945,836.2628891883651,"[51, 0, 203]",203,a,0.11813359707593918,colour,0.5
003,76,0,1,11,20,520,836.7782192350132,838.5748519337503,"[50, 0, 204]",204,a,1.2735856412909925,colour,0.5
003,76,0,1,11,21,521,839.0908507301938,839.6228392645717,"[15, 0, 239]",239,a,0.008436172967776656,colour,0.5
003,76,0,1,11,22,522,840.1379042529734,842.1668873515446,"[70, 0, 184]",184,a,1.5057300598127767,colour,0.5
003,76,0,1,11,23,523,842.6857576762559,843.2468147736508,"[56, 0, 198]",198,a,0.03780012018978596,colour,0.5
003,76,0,1,11,24,524,843.7639494207688,844.4068114022957,"[42, 0, 212]",212,a,0.11948251829016954,colour,0.5
003,76,0,1,11,25,525,844.920299826772,845.7188162892126,"[63, 0, 191]",191,l,0.2751811099005863,colour,0.5
003,76,0,1,11,26,526,846.2329226573929,846.7828110809205,"[79, 0, 175]",175,l,0.026493206503801048,colour,0.5
003,76,0,1,11,27,527,847.2967772401171,849.1668270931114,"[75, 0, 179]",179,l,1.3471969614038244,colour,0.5
003,76,0,1,11,28,528,849.6876564059639,850.2867995554116,"[7, 0, 247]",247,a,0.07604449824430048,colour,0.5
003,76,0,1,11,29,529,850.7970797135495,851.350829005707,"[40, 0, 214]",214,a,0.03042181662749499,colour,0.5
003,76,0,1,11,30,530,851.8596791103482,852.4628001005622,"[98, 0, 156]",156,l,0.07985810528043658,colour,0.5
003,76,0,1,11,31,531,852.9691154148895,853.6068140805,"[31, 0, 223]",223,a,0.11154652934055775,colour,0.5
003,76,0,1,11,32,532,854.1282081679674,854.6868305117823,"[85, 0, 169]",169,l,0.03524366836063564,colour,0.5
003,76,0,1,11,33,533,855.2064448108431,855.7749329871731,"[29, 0, 225]",225,l,0.045195359154604375,colour,0.5
003,76,0,1,11,34,534,856.2845766908722,856.9588537674863,"[35, 0, 219]",219,a,0.15081411821302027,colour,0.5
003,76,0,1,11,35,535,857.4721909553045,860.0388091526693,"[60, 0, 194]",194,a,2.0435518415179104,colour,0.5
003,76,0,1,11,36,536,860.5519746238133,861.0948277831776,"[92, 0, 162]",162,l,0.01946542551741004,colour,0.5
003,76,0,1,11,37,537,861.61456456827,864.5907991364365,"[21, 0, 233]",233,a,2.4532721875002608,colour,0.5
003,76,0,1,11,38,538,865.0991904110415,865.654810469714,"[13, 0, 241]",241,a,0.0327651979168877,colour,0.5
003,76,0,1,11,39,539,866.1618043800117,866.7827965086326,"[68, 0, 186]",186,l,0.09777808061335236,colour,0.5
003,76,0,1,11,40,540,867.3025313245598,867.9186874228762,"[66, 0, 188]",188,l,0.09223824820946902,colour,0.5
003,76,0,1,11,41,541,868.4281917051412,869.0548749028239,"[14, 0, 240]",240,a,0.10340219584759325,colour,0.5
003,76,0,1,11,42,542,869.5689091973472,871.3428047951311,"[6, 0, 248]",248,a,1.2502940057311207,colour,0.5
003,76,0,1,11,43,543,871.8503209447954,872.4468119379599,"[58, 0, 196]",196,l,0.07344944949727505,colour,0.5
003,76,0,1,11,44,544,872.9597919078078,873.5187974633882,"[5, 0, 249]",249,a,0.03563948324881494,colour,0.5
003,76,0,1,11,45,545,874.0379950738279,875.6706911124056,"[91, 0, 163]",163,l,1.1096942733274773,colour,0.5
003,76,0,1,11,46,546,876.1788901903201,877.5269071382936,"[20, 0, 234]",234,l,0.8247619399335235,colour,0.5
003,76,0,1,11,47,547,878.0398095205892,879.5908022872172,"[80, 0, 174]",174,l,1.0277105834102258,colour,0.5
003,76,0,1,11,48,548,880.1024573603645,881.6708525891881,"[9, 0, 245]",245,a,1.0449645657790825,colour,0.5
003,76,0,1,11,49,549,882.1807790739695,882.7827815425117,"[87, 0, 167]",167,l,0.07869232224766165,colour,0.5
003,76,0,1,11,50,550,883.2902212861227,883.9428159804083,"[17, 0, 237]",237,a,0.1293322033016011,colour,0.5
003,76,0,1,12,1,551,888.7429676897591,889.5906542012235,"[1, 0, 253]",253,a,0.3242802668828517,colour,0.5
003,76,0,1,12,2,552,890.1032084239414,893.0466974864248,"[47, 0, 207]",207,a,2.420184823917225,colour,0.5
003,76,0,1,12,3,553,893.5579299632227,894.1908146538772,"[43, 0, 211]",211,a,0.10948277823626995,colour,0.5
003,76,0,1,12,4,554,894.6986695107771,896.8867461499758,"[12, 0, 242]",242,a,1.6646377053111792,colour,0.5
003,76,0,1,12,5,555,897.4020167258568,899.5507568531903,"[42, 0, 212]",212,a,1.6253618457121775,colour,0.5
003,76,0,1,12,6,556,900.0599283358315,900.6228081507143,"[56, 0, 198]",198,a,0.03989695420023054,colour,0.5
003,76,0,1,12,7,557,901.1380527328001,901.9107337107416,"[66, 0, 188]",188,l,0.2495086775161326,colour,0.5
003,76,0,1,12,8,558,902.4193664126797,903.0707437301753,"[98, 0, 156]",156,l,0.12794704816769809,colour,0.5
003,76,0,1,12,9,559,903.5913713941118,904.1747398453299,"[86, 0, 168]",168,l,0.058766491361893713,colour,0.5
003,76,0,1,12,10,560,904.6863669554004,905.2627194409724,"[73, 0, 181]",181,l,0.05303288693539798,colour,0.5
003,76,0,1,12,11,561,905.7801549861906,906.3112034110818,"[29, 0, 225]",225,a,0.007611460285261273,colour,0.5
003,76,0,1,12,12,562,906.8428784443531,907.4947516134707,"[99, 0, 155]",155,l,0.12883123173378408,colour,0.5
003,76,0,1,12,13,563,908.014662872185,909.0147609396372,"[53, 0, 201]",201,a,0.47678043809719384,colour,0.5
003,76,0,1,12,14,564,909.5303383213468,910.2947485414334,"[78, 0, 176]",176,a,0.2410398154752329,colour,0.5
003,76,0,1,12,15,565,910.8116504257778,911.3667171314592,"[63, 0, 191]",191,a,0.03185541450511664,colour,0.5
003,76,0,1,12,16,566,911.8742703025928,912.422728278907,"[79, 0, 175]",175,a,0.02507339313160628,colour,0.5
003,76,0,1,12,17,567,912.9367854164448,913.7186922278488,"[91, 0, 163]",163,l,0.25627927749883384,colour,0.5
003,76,0,1,12,18,568,914.2363916495815,914.9346484100679,"[14, 0, 240]",240,a,0.17497182032093406,colour,0.5
003,76,0,1,12,19,569,915.4552567756036,917.9987530848011,"[45, 0, 209]",209,a,2.020129843032919,colour,0.5
003,76,0,1,12,20,570,918.517969599925,921.3507195166312,"[41, 0, 213]",213,a,2.30938029976096,colour,0.5
003,76,0,1,12,21,571,921.8619527810952,922.4387983613415,"[26, 0, 228]",228,a,0.05196123302448541,colour,0.5
003,76,0,1,12,22,572,922.957288231235,923.654706494417,"[36, 0, 218]",218,a,0.1740068985382095,colour,0.5
003,76,0,1,12,23,573,924.1761966802878,924.71871900931,"[25, 0, 229]",229,a,0.01914325973484665,colour,0.5
003,76,0,1,12,24,574,925.2387255786452,925.7747376398183,"[55, 0, 199]",199,a,0.012748782406561077,colour,0.5
003,76,0,1,12,25,575,926.2857775260927,926.870679218322,"[20, 0, 234]",234,a,0.06154625362250954,colour,0.5
003,76,0,1,12,26,576,927.3795754029416,927.9112457101,"[64, 0, 190]",190,l,0.008336923900060356,colour,0.5
003,76,0,1,12,27,577,928.4435788593255,929.0787120145978,"[96, 0, 158]",158,l,0.11186003044713289,colour,0.5
003,76,0,1,12,28,578,929.6000505698612,930.2067441334948,"[4, 0, 250]",250,a,0.08335309126414359,colour,0.5
003,76,0,1,12,29,579,930.7250937944045,932.4467292303452,"[7, 0, 247]",247,a,1.1983087480766699,colour,0.5
003,76,0,1,12,30,580,932.9582377929473,934.7346945687896,"[97, 0, 157]",157,l,1.2530844018328935,colour,0.5
003,76,0,1,12,31,581,935.2421343124006,935.9027863001684,"[48, 0, 206]",206,a,0.13716579240281135,colour,0.5
003,76,0,1,12,32,582,936.4141392937163,937.2947323938133,"[75, 0, 179]",179,l,0.3572467198828235,colour,0.5
003,76,0,1,12,33,583,937.8049070013221,939.8786987026688,"[23, 0, 231]",231,a,1.5506552410079166,colour,0.5
003,76,0,1,12,34,584,940.398825394921,942.2226952746278,"[85, 0, 169]",169,l,1.300390773685649,colour,0.5
003,76,0,1,12,35,585,942.7429645389784,943.3986879427684,"[69, 0, 185]",185,l,0.13257512799464166,colour,0.5
003,76,0,1,12,36,586,943.9147887452273,944.47066952975,"[68, 0, 186]",186,l,0.03254425060003996,colour,0.5
003,76,0,1,12,37,587,944.9773341851542,945.6306756106205,"[61, 0, 193]",193,a,0.12992533470969647,colour,0.5
003,76,0,1,12,38,588,946.1493352280231,946.7986688805977,"[21, 0, 233]",233,a,0.12606289074756205,colour,0.5
003,76,0,1,12,39,589,947.3056746063521,947.8306999503402,"[0, 0, 254]",254,a,0.0016013762215152383,colour,0.5
003,76,0,1,12,40,590,948.3526446339674,949.0627612674143,"[65, 0, 189]",189,l,0.18708217912353575,colour,0.5
003,76,0,1,12,41,591,949.572805118165,950.1506577616092,"[90, 0, 164]",164,l,0.05434990662615746,colour,0.5
003,76,0,1,12,42,592,950.6667936162557,952.7666488386458,"[54, 0, 200]",200,l,1.5765202637994662,colour,0.5
003,76,0,1,12,43,593,953.2764130589785,955.1746476854896,"[27, 0, 227]",227,a,1.3749020309187472,colour,0.5
003,76,0,1,12,44,594,955.6827605111757,958.0066764708608,"[46, 0, 208]",208,a,1.8005014442605898,colour,0.5
003,76,0,1,12,45,595,958.5267074586591,959.2147234455915,"[70, 0, 184]",184,l,0.1649878341704607,colour,0.5
003,76,0,1,12,46,596,959.7299073754111,962.1506447646534,"[9, 0, 245]",245,a,1.89727679383941,colour,0.5
003,76,0,1,12,47,597,962.6676793750376,963.3187298006378,"[24, 0, 230]",230,a,0.12756344256922603,colour,0.5
003,76,0,1,12,48,598,963.8396599380067,964.4147005237173,"[38, 0, 216]",216,a,0.051718624075874686,colour,0.5
003,76,0,1,12,49,599,964.9334385164548,965.4866537537891,"[81, 0, 173]",173,l,0.029954715631902218,colour,0.5
003,76,0,1,12,50,600,965.996085962397,966.6306842752965,"[39, 0, 215]",215,a,0.11155086162034422,colour,0.5
003,76,0,1,13,1,601,971.4488540274324,972.1746185409138,"[98, 0, 156]",156,l,0.20155797456391156,colour,0.5
003,76,0,1,13,2,602,972.6840810754802,973.3026616874849,"[74, 0, 180]",180,l,0.09521650883834809,colour,0.5
003,76,0,1,13,3,603,973.8092952290317,974.5027699162019,"[50, 0, 204]",204,a,0.17026497144252062,colour,0.5
003,76,0,1,13,4,604,975.0123880198225,975.5427432764554,"[34, 0, 220]",220,a,0.0070230548735708,colour,0.5
003,76,0,1,13,5,605,976.0749803273939,976.6306700968416,"[36, 0, 218]",218,a,0.03231345699168742,colour,0.5
003,76,0,1,13,6,606,977.1375509734498,977.6706454263767,"[20, 0, 234]",234,a,0.009910337161272764,colour,0.5
003,76,0,1,13,7,607,978.1845146995038,978.7346362796379,"[76, 0, 178]",178,l,0.02674093539826572,colour,0.5
003,76,0,1,13,8,608,979.2471274870913,982.6145192760741,"[64, 0, 190]",190,l,2.844069827347994,colour,0.5
003,76,0,1,13,9,609,983.124198425794,985.894627788337,"[60, 0, 194]",194,l,2.2473834867123514,colour,0.5
003,76,0,1,13,10,610,986.4044695963385,986.9826881223125,"[53, 0, 201]",201,a,0.05516634846571833,colour,0.5
003,76,0,1,13,11,611,987.4982592024608,988.2385857634945,"[31, 0, 223]",223,a,0.21501607284881175,colour,0.5
003,76,0,1,13,12,612,988.7502660427708,989.5027195039438,"[68, 0, 186]",186,l,0.22920160403009504,colour,0.5
003,76,0,1,13,13,613,990.0159483841853,990.5826410184382,"[23, 0, 231]",231,a,0.043295841896906495,colour,0.5
003,76,0,1,13,14,614,991.0941121657379,991.7186465417035,"[57, 0, 197]",197,l,0.10107456834521145,colour,0.5
003,76,0,1,13,15,615,992.2348454117309,992.8866260270588,"[7, 0, 247]",247,a,0.1287489178357646,colour,0.5
003,76,0,1,13,16,616,993.4069047437515,995.6306949091377,"[49, 0, 205]",205,a,1.700773434014991,colour,0.5
003,76,0,1,13,17,617,996.1427950278157,996.7665913371602,"[30, 0, 224]",224,a,0.10039951698854566,colour,0.5
003,76,0,1,13,18,618,997.2835290614748,998.2066251920769,"[70, 0, 184]",184,l,0.39965955982916057,colour,0.5
003,76,0,1,13,19,619,998.7210907476256,1001.7427183854161,"[32, 0, 222]",222,l,2.4984447036404163,colour,0.5
003,76,0,1,13,20,620,1002.254024117603,1006.750613020733,"[8, 0, 246]",246,a,3.973422116599977,colour,0.5
003,76,0,1,13,21,621,1007.2699433572125,1007.9585835894104,"[83, 0, 171]",171,l,0.16529582138173282,colour,0.5
003,76,0,1,13,22,622,1008.4732011692831,1009.0946470079944,"[65, 0, 189]",189,l,0.09806204319465905,colour,0.5
003,76,0,1,13,23,623,1009.613924175268,1010.2385755234864,"[97, 0, 157]",157,l,0.10144557093735784,colour,0.5
003,76,0,1,13,24,624,1010.7546881412854,1011.334611624945,"[6, 0, 248]",248,a,0.05687878932803869,colour,0.5
003,76,0,1,13,25,625,1011.8484300920973,1014.0225673535606,"[29, 0, 225]",225,a,1.651179607026279,colour,0.5
003,76,0,1,13,26,626,1014.536147150211,1015.1825911576161,"[69, 0, 185]",185,l,0.12357063591480255,colour,0.5
003,76,0,1,13,27,627,1015.6926137406845,1016.462579940795,"[66, 0, 188]",188,l,0.24701445328537375,colour,0.5
003,76,0,1,13,28,628,1016.9738521961262,1017.5186363805551,"[51, 0, 203]",203,a,0.021377546014264226,colour,0.5
003,76,0,1,13,29,629,1018.0363740052562,1020.1825501975836,"[61, 0, 193]",193,a,1.6230334303108975,colour,0.5
003,76,0,1,13,30,630,1020.7011869719718,1023.542615670478,"[26, 0, 228]",228,a,2.318015364697203,colour,0.5
003,76,0,1,13,31,631,1024.0534995939815,1024.5985850703437,"[4, 0, 250]",250,l,0.027241907082498074,colour,0.5
003,76,0,1,13,32,632,1025.110471330816,1026.0545381648699,"[71, 0, 183]",183,l,0.4207102139480412,colour,0.5
003,76,0,1,13,33,633,1026.563757302938,1027.1185880950652,"[82, 0, 172]",172,l,0.038538580760359764,colour,0.5
003,76,0,1,13,34,634,1027.6349567124853,1029.5985949164024,"[19, 0, 235]",235,a,1.4403540514176711,colour,0.5
003,76,0,1,13,35,635,1030.1194234415889,1030.9265647289576,"[54, 0, 200]",200,l,0.283848864142783,colour,0.5
003,76,0,1,13,36,636,1031.4477110875305,1032.0545551002724,"[12, 0, 242]",242,a,0.0835571032948792,colour,0.5
003,76,0,1,13,37,637,1032.5727334382245,1033.2226464377018,"[94, 0, 160]",160,l,0.12652841629460454,colour,0.5
003,76,0,1,13,38,638,1033.729050367372,1034.7905552672455,"[40, 0, 214]",214,l,0.538134888978675,colour,0.5
003,76,0,1,13,39,639,1035.3073098533787,1035.9266096273204,"[1, 0, 253]",253,a,0.09586399095132947,colour,0.5
003,76,0,1,13,40,640,1036.4339595740894,1037.0625860061264,"[84, 0, 170]",170,l,0.1052705995971337,colour,0.5
003,76,0,1,13,41,641,1037.5747302355012,1038.262602075003,"[44, 0, 210]",210,l,0.16451876400969923,colour,0.5
003,76,0,1,13,42,642,1038.7779628414428,1039.558566811611,"[42, 0, 212]",212,l,0.2572670422960073,colour,0.5
003,76,0,1,13,43,643,1040.0748617799254,1040.8865610425128,"[39, 0, 215]",215,a,0.2882922302233055,colour,0.5
003,76,0,1,13,44,644,1041.4033105087,1042.1584744154243,"[93, 0, 161]",161,l,0.23206486168783158,colour,0.5
003,76,0,1,13,45,645,1042.6703086883062,1043.5025867780205,"[5, 0, 249]",249,a,0.3090372601291165,colour,0.5
003,76,0,1,13,46,646,1044.0141508728266,1044.6465893364511,"[81, 0, 173]",173,l,0.10908538813237101,colour,0.5
003,76,0,1,13,47,647,1045.1557139515644,1045.8705409785034,"[14, 0, 240]",240,a,0.19140778540167958,colour,0.5
003,76,0,1,13,48,648,1046.3902017513756,1046.9345700348495,"[67, 0, 187]",187,l,0.02082064817659557,colour,0.5
003,76,0,1,13,49,649,1047.4528570742114,1049.718533901847,"[27, 0, 227]",227,a,1.7423619551118463,colour,0.5
003,76,0,1,13,50,650,1050.2341762679862,1050.8305337474449,"[24, 0, 230]",230,a,0.07310877298004925,colour,0.5
003,76,0,1,14,1,651,1055.7183168929769,1056.50251509808,"[15, 0, 239]",239,a,0.25999009085353464,colour,0.5
003,76,0,1,14,2,652,1057.0160551163135,1057.5506339733256,"[90, 0, 164]",164,l,0.011055640177801251,colour,0.5
003,76,0,1,14,3,653,1058.0630574392853,1058.7345149752218,"[86, 0, 168]",168,l,0.1480635005282238,colour,0.5
003,76,0,1,14,4,654,1059.2506307438016,1059.8866134240525,"[50, 0, 204]",204,a,0.11259691556915641,colour,0.5
003,76,0,1,14,5,655,1060.4070146266604,1063.4065282273805,"[83, 0, 171]",171,l,2.476193608250469,colour,0.5
003,76,0,1,14,6,656,1063.9228779402329,1064.486522997031,"[99, 0, 155]",155,l,0.040349876624532044,colour,0.5
003,76,0,1,14,7,657,1065.0010874078143,1066.8945293269353,"[42, 0, 212]",212,a,1.3700935698579997,colour,0.5
003,76,0,1,14,8,658,1067.4075467120856,1070.2065172784496,"[19, 0, 235]",235,a,2.2756029185838997,colour,0.5
003,76,0,1,14,9,659,1070.720226650359,1073.9985203220276,"[60, 0, 194]",194,a,2.754991796100512,colour,0.5
003,76,0,1,14,10,660,1074.517489108257,1075.1825340499636,"[40, 0, 214]",214,a,0.14167178014758974,colour,0.5
003,76,0,1,14,11,661,1075.6894062620122,1076.2945366525091,"[96, 0, 158]",158,l,0.08175013959407806,colour,0.5
003,76,0,1,14,12,662,1076.81451250182,1079.0704833982745,"[93, 0, 161]",161,l,1.7325465348549187,colour,0.5
003,76,0,1,14,13,663,1079.5803354461677,1080.2064889215399,"[30, 0, 224]",224,a,0.10268027696292847,colour,0.5
003,76,0,1,14,14,664,1080.7210619968828,1082.6465030842228,"[82, 0, 172]",172,l,1.402386153000407,colour,0.5
003,76,0,1,14,15,665,1083.1587690119632,1083.7825192413293,"[6, 0, 248]",248,a,0.10031129559502006,colour,0.5
003,76,0,1,14,16,666,1084.2995081656845,1086.4305279973196,"[43, 0, 211]",211,a,1.608504859614186,colour,0.5
003,76,0,1,14,17,667,1086.940223294776,1087.4705210499233,"[29, 0, 225]",225,a,0.00545358017552644,colour,0.5
003,76,0,1,14,18,668,1087.9886099849828,1088.7105207190616,"[47, 0, 207]",207,a,0.19869314145762473,colour,0.5
003,76,0,1,14,19,669,1089.2231753723463,1090.9025555066764,"[5, 0, 249]",249,a,1.1567135317018256,colour,0.5
003,76,0,1,14,20,670,1091.4106324925087,1092.0464139175601,"[3, 0, 251]",251,a,0.11233855283353478,colour,0.5
003,76,0,1,14,21,671,1092.5670435506618,1094.7185366587946,"[10, 0, 244]",244,a,1.627942716004327,colour,0.5
003,76,0,1,14,22,672,1095.2391379349865,1096.6145177006256,"[12, 0, 242]",242,a,0.851996757904999,colour,0.5
003,76,0,1,14,23,673,1097.1324908450479,1098.4624830548419,"[84, 0, 170]",170,l,0.8082653228193521,colour,0.5
003,76,0,1,14,24,674,1098.9746138935443,1099.694449848961,"[95, 0, 159]",159,l,0.19652817223686725,colour,0.5
003,76,0,1,14,25,675,1100.209110357915,1100.8144392465474,"[70, 0, 184]",184,a,0.08189349935855716,colour,0.5
003,76,0,1,14,26,676,1101.3342784316046,1102.0384286978515,"[27, 0, 227]",227,a,0.18085508607327938,colour,0.5
003,76,0,1,14,27,677,1102.553089994588,1103.6704205404967,"[87, 0, 167]",167,l,0.5940656919265166,colour,0.5
003,76,0,1,14,28,678,1104.1781383390771,1104.7184354404453,"[22, 0, 232]",232,a,0.016829022904857993,colour,0.5
003,76,0,1,14,29,679,1105.2268267150503,1107.518496565288,"[7, 0, 247]",247,a,1.7681868056533858,colour,0.5
003,76,0,1,14,30,680,1108.03964410536,1108.5984755812678,"[33, 0, 221]",221,a,0.035437834332697093,colour,0.5
003,76,0,1,14,31,681,1109.1178634191165,1109.7024756347528,"[67, 0, 187]",187,l,0.06160336115863174,colour,0.5
003,76,0,1,14,32,682,1110.2116971359355,1110.7744615540141,"[68, 0, 186]",186,l,0.03962992690503597,colour,0.5
003,76,0,1,14,33,683,1111.2899664680008,1111.8224792109104,"[79, 0, 175]",175,l,0.00947513768915087,colour,0.5
003,76,0,1,14,34,684,1112.336815585033,1112.9104655019473,"[71, 0, 183]",183,l,0.050346466014161706,colour,0.5
003,76,0,1,14,35,685,1113.4306378802285,1114.054458608036,"[56, 0, 198]",198,a,0.10067205817904323,colour,0.5
003,76,0,1,14,36,686,1114.572891370277,1116.838425231981,"[54, 0, 200]",200,a,1.7422008722787723,colour,0.5
003,76,0,1,14,37,687,1117.3543874007883,1118.2784307301044,"[76, 0, 178]",178,l,0.4010238411137834,colour,0.5
003,76,0,1,14,38,688,1118.7919853206258,1119.4784125344595,"[11, 0, 243]",243,a,0.16313675977289677,colour,0.5
003,76,0,1,14,39,689,1119.9952021727804,1120.582444883301,"[1, 0, 253]",253,a,0.06406765326391906,colour,0.5
003,76,0,1,14,40,690,1121.0889409728115,1121.6784463264048,"[53, 0, 201]",201,a,0.06607114593498409,colour,0.5
003,76,0,1,14,41,691,1122.1984950371552,1122.8305223259376,"[34, 0, 220]",220,a,0.10784634982701391,colour,0.5
003,76,0,1,14,42,692,1123.3391940186266,1123.9744161829585,"[97, 0, 157]",157,l,0.11188169184606522,colour,0.5
003,76,0,1,14,43,693,1124.495564904646,1125.0624324062373,"[89, 0, 165]",165,l,0.04353411844931543,colour,0.5
003,76,0,1,14,44,694,1125.5737298675813,1126.1264701272594,"[45, 0, 209]",209,a,0.041617665672674775,colour,0.5
003,76,0,1,14,45,695,1126.6361102862284,1127.2064416600624,"[24, 0, 230]",230,a,0.046896378393284976,colour,0.5
003,76,0,1,14,46,696,1127.7239630635595,1128.3583526383154,"[16, 0, 238]",238,a,0.11118104052729905,colour,0.5
003,76,0,1,14,47,697,1128.864657712751,1129.446462990716,"[41, 0, 213]",213,a,0.06683835701551288,colour,0.5
003,76,0,1,14,48,698,1129.9657874194672,1130.5504090874456,"[8, 0, 246]",246,a,0.06118864181917161,colour,0.5
003,76,0,1,14,49,699,1131.0596936038928,1132.6383559938986,"[75, 0, 179]",179,l,1.0556688954820856,colour,0.5
003,76,0,1,14,50,700,1133.1472951077158,1133.7984321793774,"[88, 0, 166]",166,l,0.12793759594205767,colour,0.5
003,76,0,1,15,1,701,1138.4137805004138,1143.4143882042263,"[40, 0, 214]",214,a,4.476376746431924,colour,0.5
003,76,0,1,15,2,702,1143.922132784268,1144.590551801375,"[94, 0, 160]",160,l,0.15117409313097596,colour,0.5
003,76,0,1,15,3,703,1145.1036054203287,1147.270407701144,"[10, 0, 244]",244,l,1.6436555804684758,colour,0.5
003,76,0,1,15,4,704,1147.7819414698752,1148.3503682062728,"[48, 0, 206]",206,a,0.04506617784500122,colour,0.5
003,76,0,1,15,5,705,1148.8601446358953,1150.2223876811331,"[56, 0, 198]",198,a,0.8388387698214501,colour,0.5
003,76,0,1,15,6,706,1150.7292342932196,1151.3024163215887,"[5, 0, 249]",249,a,0.04986991279292852,colour,0.5
003,76,0,1,15,7,707,1151.8230026316596,1152.3663926026784,"[53, 0, 201]",201,a,0.020466187153942883,colour,0.5
003,76,0,1,15,8,708,1152.87682084681,1154.8783863830613,"[41, 0, 213]",213,a,1.47807934100274,colour,0.5
003,76,0,1,15,9,709,1155.39282003697,1156.1343879994238,"[75, 0, 179]",179,l,0.2183204375905916,colour,0.5
003,76,0,1,15,10,710,1156.642895458499,1157.4623999533942,"[7, 0, 247]",247,a,0.29614039172884077,colour,0.5
003,76,0,1,15,11,711,1157.9710960645461,1158.598508270341,"[59, 0, 195]",195,l,0.10443879757076502,colour,0.5
003,76,0,1,15,12,712,1159.1117466029245,1161.0784071780508,"[87, 0, 167]",167,l,1.4430861583678052,colour,0.5
003,76,0,1,15,13,713,1161.59675368818,1164.1023277851054,"[62, 0, 192]",192,a,1.9823482335777953,colour,0.5
003,76,0,1,15,14,714,1164.612474429654,1165.254391575465,"[85, 0, 169]",169,l,0.1188878114335239,colour,0.5
003,76,0,1,15,15,715,1165.768739764928,1166.4304350498132,"[60, 0, 194]",194,l,0.1389002886135131,colour,0.5
003,76,0,1,15,16,716,1166.9408345430857,1167.566392917768,"[35, 0, 219]",219,a,0.10217064071912318,colour,0.5
003,76,0,1,15,17,717,1168.0816158383386,1169.9503730899887,"[4, 0, 250]",250,a,1.3454459238564596,colour,0.5
003,76,0,1,15,18,718,1170.456776625826,1171.1424031513743,"[78, 0, 176]",176,l,0.16230377624742687,colour,0.5
003,76,0,1,15,19,719,1171.6614459805423,1172.3023796939524,"[95, 0, 159]",159,l,0.1176708284765482,colour,0.5
003,76,0,1,15,20,720,1172.8161512934603,1174.2543919694144,"[73, 0, 181]",181,l,0.9148430959321558,colour,0.5
003,76,0,1,15,21,721,1174.7694349024678,1175.3183836103417,"[46, 0, 208]",208,a,0.025636986130848527,colour,0.5
003,76,0,1,15,22,722,1175.8319641947746,1178.2784185208147,"[63, 0, 191]",191,a,1.9235628376482055,colour,0.5
003,76,0,1,15,23,723,1178.785463631153,1179.3904530248838,"[88, 0, 166]",166,l,0.08249765855725855,colour,0.5
003,76,0,1,15,24,724,1179.910348529811,1180.4543592013652,"[91, 0, 163]",163,l,0.02051502396352589,colour,0.5
003,76,0,1,15,25,725,1180.9729987325845,1181.518376048538,"[21, 0, 233]",233,a,0.022385396878235042,colour,0.5
003,76,0,1,15,26,726,1182.0355811940972,1182.606437564129,"[81, 0, 173]",173,l,0.04745800234377384,colour,0.5
003,76,0,1,15,27,727,1183.1138048401335,1183.7503503257176,"[50, 0, 204]",204,l,0.11322667472995818,colour,0.5
003,76,0,1,15,28,728,1184.270142643014,1184.9103749174392,"[15, 0, 239]",239,a,0.11699026334099472,colour,0.5
003,76,0,1,15,29,729,1185.4264682368375,1186.174348756671,"[58, 0, 196]",196,a,0.224587308941409,colour,0.5
003,76,0,1,15,30,730,1186.6935534563381,1187.2223545981105,"[47, 0, 207]",207,a,0.0054240417666733265,colour,0.5
003,76,0,1,15,31,731,1187.7398086540634,1188.3263377163094,"[22, 0, 232]",232,a,0.06317480513826013,colour,0.5
003,76,0,1,15,32,732,1188.833699872368,1189.4543469921919,"[42, 0, 212]",212,a,0.09791316965129226,colour,0.5
003,76,0,1,15,33,733,1189.9744260291336,1190.5823665080825,"[44, 0, 210]",210,a,0.0845913419034332,colour,0.5
003,76,0,1,15,34,734,1191.0995110013755,1191.6703405898297,"[3, 0, 251]",251,a,0.04746824223548174,colour,0.5
003,76,0,1,15,35,735,1192.1777799396077,1193.7743296157569,"[86, 0, 168]",168,l,1.0732328344602138,colour,0.5
003,76,0,1,15,36,736,1194.2871095119044,1194.918275066535,"[17, 0, 237]",237,a,0.10810746939387172,colour,0.5
003,76,0,1,15,37,737,1195.4291101531126,1196.6783502280014,"[12, 0, 242]",242,a,0.7258673070464283,colour,0.5
003,76,0,1,15,38,738,1197.1967254888732,1197.7823416170431,"[9, 0, 245]",245,a,0.062190191238187253,colour,0.5
003,76,0,1,15,39,739,1198.2906127686147,1199.0703813922592,"[51, 0, 203]",203,a,0.25637143733911216,colour,0.5
003,76,0,1,15,40,740,1199.5875916577643,1202.3742785733193,"[55, 0, 199]",199,a,2.263546910486184,colour,0.5
003,76,0,1,15,41,741,1202.88627077837,1205.7663365190383,"[99, 0, 155]",155,l,2.3568174281390384,colour,0.5
003,76,0,1,15,42,742,1206.2770199751249,1206.8223819310078,"[72, 0, 182]",182,l,0.021995883551426232,colour,0.5
003,76,0,1,15,43,743,1207.3395728981122,1209.1823497301666,"[89, 0, 165]",165,l,1.319535214919597,colour,0.5
003,76,0,1,15,44,744,1209.69918032852,1210.2623003892368,"[61, 0, 193]",193,a,0.039773680618964136,colour,0.5
003,76,0,1,15,45,745,1210.7773472608533,1213.430335800629,"[16, 0, 238]",238,a,2.129793396452442,colour,0.5
003,76,0,1,15,46,746,1213.9509327445412,1214.4783191930037,"[34, 0, 220]",220,a,0.003947908408008516,colour,0.5
003,76,0,1,15,47,747,1214.9979228583397,1217.2222616506042,"[37, 0, 217]",217,a,1.701006590621546,colour,0.5
003,76,0,1,15,48,748,1217.7324866703711,1218.310334587586,"[31, 0, 223]",223,a,0.05469373380765319,colour,0.5
003,76,0,1,15,49,749,1218.829190733959,1219.438285180484,"[49, 0, 205]",205,a,0.08784647576976568,colour,0.5
003,76,0,1,15,50,750,1219.9522379488917,1220.48629102204,"[30, 0, 224]",224,a,0.010735837509855628,colour,0.5
003,76,0,1,16,1,751,1225.3769846864743,1226.1903495222796,"[0, 0, 254]",254,a,0.28965729917399585,colour,0.5
003,76,0,1,16,2,752,1226.7059292669874,1227.8382854168303,"[82, 0, 172]",172,l,0.6090621512848884,colour,0.5
003,76,0,1,16,3,753,1228.3480677540647,1230.8943111364497,"[77, 0, 177]",177,l,2.023009642143734,colour,0.5
003,76,0,1,16,4,754,1231.4107565538725,1231.9982911039842,"[85, 0, 169]",169,l,0.0641231854679063,colour,0.5
003,76,0,1,16,5,755,1232.5045544307213,1233.1423082345864,"[47, 0, 207]",207,a,0.11479693709407002,colour,0.5
003,76,0,1,16,6,756,1233.6614404667635,1236.4142692628084,"[94, 0, 160]",160,l,2.2297911909408867,colour,0.5
003,76,0,1,16,7,757,1236.933664977667,1238.598381058313,"[78, 0, 176]",176,l,1.1412582423072308,colour,0.5
003,76,0,1,16,8,758,1239.1148894908838,1239.7262977804057,"[8, 0, 246]",246,a,0.0883234228240326,colour,0.5
003,76,0,1,16,9,759,1240.2307494173292,1241.5021913569653,"[46, 0, 208]",208,a,0.7477497630752623,colour,0.5
003,76,0,1,16,10,760,1242.0123671460897,1242.5823428772856,"[4, 0, 250]",250,a,0.046801855438388884,colour,0.5
003,76,0,1,16,11,761,1243.0998095362447,1244.5583249904448,"[49, 0, 205]",205,a,0.9316855096258223,colour,0.5
003,76,0,1,16,12,762,1245.0687878929311,1245.646267958451,"[84, 0, 170]",170,l,0.05440937739331275,colour,0.5
003,76,0,1,16,13,763,1246.1626176713035,1248.3343276622472,"[93, 0, 161]",161,l,1.6487251610960811,colour,0.5
003,76,0,1,16,14,764,1248.850900291698,1250.430320046842,"[23, 0, 231]",231,a,1.0566318480996415,colour,0.5
003,76,0,1,16,15,765,1250.9441932585323,1252.3182721521007,"[1, 0, 253]",253,a,0.8506364151835442,colour,0.5
003,76,0,1,16,16,766,1252.836404804024,1254.8862416337943,"[3, 0, 251]",251,a,1.5266168741509318,colour,0.5
003,76,0,1,16,17,767,1255.399096754496,1257.3902572835796,"[73, 0, 181]",181,l,1.4677133244695142,colour,0.5
003,76,0,1,16,18,768,1257.899258231162,1258.4382485528477,"[19, 0, 235]",235,a,0.015879067359492183,colour,0.5
003,76,0,1,16,19,769,1258.946231015725,1259.702199942898,"[10, 0, 244]",244,a,0.23286161141004413,colour,0.5
003,76,0,1,16,20,770,1260.2120055169798,1260.8063039716799,"[6, 0, 248]",248,a,0.07102020981255919,colour,0.5
003,76,0,1,16,21,771,1261.321401255438,1262.1742562028812,"[65, 0, 189]",189,l,0.3296909178607166,colour,0.5
003,76,0,1,16,22,772,1262.680892501492,1263.4782628730172,"[91, 0, 163]",163,l,0.2739467977080494,colour,0.5
003,76,0,1,16,23,773,1263.9935484151356,1264.5662680687383,"[44, 0, 210]",210,a,0.04775417421478778,colour,0.5
003,76,0,1,16,24,774,1265.073222200619,1267.1582637079991,"[80, 0, 174]",174,l,1.5615935150999576,colour,0.5
003,76,0,1,16,25,775,1267.667301677051,1269.5741268639686,"[39, 0, 215]",215,a,1.3834264252800494,colour,0.5
003,76,0,1,16,26,776,1270.0893446645932,1270.6543914179783,"[11, 0, 243]",243,a,0.04162987496238202,colour,0.5
003,76,0,1,16,27,777,1271.1675399537198,1271.7022346012527,"[38, 0, 216]",216,a,0.011262802872806787,colour,0.5
003,76,0,1,16,28,778,1272.214474141365,1272.75033142115,"[53, 0, 201]",201,a,0.012517595081590116,colour,0.5
003,76,0,1,16,29,779,1273.2615422364324,1273.9342392045073,"[74, 0, 180]",180,a,0.14941990480292588,colour,0.5
003,76,0,1,16,30,780,1274.4491399594117,1274.9902188442647,"[71, 0, 183]",183,l,0.01773132325615734,colour,0.5
003,76,0,1,16,31,781,1275.5116062363377,1276.8542294686195,"[57, 0, 197]",197,l,0.8196033501299098,colour,0.5
003,76,0,1,16,32,782,1277.3712361160433,1278.214226018521,"[98, 0, 156]",156,l,0.31987392203882337,colour,0.5
003,76,0,1,16,33,783,1278.730628112913,1279.5022236523218,"[61, 0, 193]",193,l,0.2482125316746533,colour,0.5
003,76,0,1,16,34,784,1280.0119989004452,1280.6543012273032,"[79, 0, 175]",175,l,0.11893428524490446,colour,0.5
003,76,0,1,16,35,785,1281.1682843219023,1281.8462170735002,"[72, 0, 182]",182,l,0.1544737316435203,colour,0.5
003,76,0,1,16,36,786,1282.35741883039,1282.9422350581735,"[17, 0, 237]",237,a,0.06152065366040915,colour,0.5
003,76,0,1,16,37,787,1283.4512450641487,1284.1662166324677,"[59, 0, 195]",195,l,0.19154090527445078,colour,0.5
003,76,0,1,16,38,788,1284.685862833052,1285.294221575954,"[22, 0, 232]",232,l,0.0850718334550038,colour,0.5
003,76,0,1,16,39,789,1285.8107713623904,1286.5742103592493,"[87, 0, 167]",167,l,0.23984173708595335,colour,0.5
003,76,0,1,16,40,790,1287.0922209190903,1287.7422398630297,"[9, 0, 245]",245,a,0.126774963689968,colour,0.5
003,76,0,1,16,41,791,1288.2496992988745,1290.4062596246367,"[41, 0, 213]",213,a,1.633245847071521,colour,0.5
003,76,0,1,16,42,792,1290.9217704463517,1291.5821924282936,"[95, 0, 159]",159,l,0.13579520978964865,colour,0.5
003,76,0,1,16,43,793,1292.0951893334277,1292.6382291755872,"[96, 0, 158]",158,l,0.019858877174556255,colour,0.5
003,76,0,1,16,44,794,1293.1575981089845,1293.734229043359,"[69, 0, 185]",185,a,0.053192394436337054,colour,0.5
003,76,0,1,16,45,795,1294.2515188655816,1294.9181734543527,"[37, 0, 217]",217,a,0.14327355020213872,colour,0.5
003,76,0,1,16,46,796,1295.439142188523,1296.0541801592335,"[30, 0, 224]",224,a,0.09166677831672132,colour,0.5
003,76,0,1,16,47,797,1296.5641247609165,1297.1662028478459,"[76, 0, 178]",178,l,0.07660178979858756,colour,0.5
003,76,0,1,16,48,798,1297.6760166927706,1298.5101801214041,"[28, 0, 226]",226,a,0.31084382999688387,colour,0.5
003,76,0,1,16,49,799,1299.0198112219805,1299.5902331803227,"[12, 0, 242]",242,a,0.04714292578864843,colour,0.5
003,76,0,1,16,50,800,1300.0980336864013,1300.6862031156197,"[36, 0, 218]",218,a,0.06496207660529763,colour,0.5
