id,age,condition,counterbalance,block,trialinblock,trial,tstart,tend,trialstim,trialintensity,response,RT,trialtype,colourfreq
125,23,0,2,Practice,1,NA,5.119945853948593e-06,1.335685906233266,"[47, 0, 207]",207,a,0.811410031397827,colour,0.5
125,23,0,2,Practice,2,NA,1.8444785164901987,2.711625622701831,"[78, 0, 176]",176,a,0.34387278149370104,colour,0.5
125,23,0,2,Practice,3,NA,3.2193623319035396,4.175683243898675,"[29, 0, 225]",225,a,0.432919375016354,colour,0.5
125,23,0,2,Practice,4,NA,4.688197697978467,5.6636583402287215,"[43, 0, 211]",211,a,0.4523355851415545,colour,0.5
125,23,0,2,Practice,5,NA,6.172583676525392,7.087665769737214,"[36, 0, 218]",218,a,0.3917081254767254,colour,0.5
125,23,0,2,Practice,6,NA,7.594748300965875,8.527623565169051,"[63, 0, 191]",191,a,0.4098711177939549,colour,0.5
125,23,0,2,Practice,7,NA,9.047552956501022,10.111662014038302,"[91, 0, 163]",163,l,0.5407965297345072,colour,0.5
125,23,0,2,Practice,8,NA,10.625696319621056,11.631675688317046,"[96, 0, 158]",158,l,0.4826113086892292,colour,0.5
125,23,0,2,Practice,9,NA,12.141341061098501,12.703636458143592,"[70, 0, 184]",184,a,0.038997835479676723,colour,0.5
125,23,0,2,Practice,10,NA,13.2194540980272,14.00769574928563,"[6, 0, 248]",248,a,0.2649212465621531,colour,0.5
125,23,0,2,1,1,1,3.9698727562790737,5.000022843130864,"[12, 0, 242]",242,a,0.5059604642447084,colour,0.5
125,23,0,2,1,2,2,5.517649023444392,6.36803759180475,"[35, 0, 219]",219,a,0.32711266831029207,colour,0.5
125,23,0,2,1,3,3,6.87699837423861,7.7999995274003595,"[72, 0, 182]",182,a,0.3997197392163798,colour,0.5
125,23,0,2,1,4,4,8.314476121915504,9.151953239459544,"[84, 0, 170]",170,a,0.31440483580809087,colour,0.5
125,23,0,2,1,5,5,9.658190577290952,10.503989265416749,"[5, 0, 249]",249,a,0.32245937874540687,colour,0.5
125,23,0,2,1,6,6,11.01764154038392,11.87199731869623,"[97, 0, 157]",157,l,0.3310822412604466,colour,0.5
125,23,0,2,1,7,7,12.392600974184461,13.095976312528364,"[55, 0, 199]",199,a,0.1800600535934791,colour,0.5
125,23,0,2,1,8,8,13.611357571207918,14.44798437540885,"[33, 0, 221]",221,a,0.3132796180434525,colour,0.5
125,23,0,2,1,9,9,14.954968051286414,15.720228792983107,"[10, 0, 244]",244,a,0.24194466939661652,colour,0.5
125,23,0,2,1,10,10,16.236364266485907,17.04797003942076,"[8, 0, 246]",246,a,0.2881951774470508,colour,0.5
125,23,0,2,1,11,11,17.56448557425756,18.38402655464597,"[0, 0, 254]",254,a,0.29648484638892114,colour,0.5
125,23,0,2,1,12,12,18.8926379957702,19.75197119882796,"[17, 0, 237]",237,a,0.33670793648343533,colour,0.5
125,23,0,2,1,13,13,20.26764626649674,21.087986360304058,"[65, 0, 189]",189,a,0.2970980644458905,colour,0.5
125,23,0,2,1,14,14,21.595767574268393,22.39194640237838,"[60, 0, 194]",194,a,0.2729076541727409,colour,0.5
125,23,0,2,1,15,15,22.908282343414612,23.703996039461344,"[67, 0, 187]",187,a,0.27240038057789207,colour,0.5
125,23,0,2,1,16,16,24.220715192728676,25.039965514908545,"[61, 0, 193]",193,a,0.2959267667029053,colour,0.5
125,23,0,2,1,17,17,25.548852648120373,26.319990752497688,"[46, 0, 208]",208,a,0.2477747704833746,colour,0.5
125,23,0,2,1,18,18,26.83018978650216,27.55196363700088,"[22, 0, 232]",232,a,0.1986247687600553,colour,0.5
125,23,0,2,1,19,19,28.064484786591493,28.807991448789835,"[51, 0, 203]",203,a,0.22046273737214506,colour,0.5
125,23,0,2,1,20,20,29.314567888039164,30.239986073691398,"[77, 0, 177]",177,a,0.4024171900236979,colour,0.5
125,23,0,2,1,21,21,30.751988921896555,31.599988420959562,"[3, 0, 251]",251,a,0.3246629466302693,colour,0.5
125,23,0,2,1,22,22,32.11139262339566,32.95999273750931,"[86, 0, 168]",168,l,0.3253253954462707,colour,0.5
125,23,0,2,1,23,23,33.470618700492196,34.2240030184621,"[4, 0, 250]",250,a,0.22998632572125643,colour,0.5
125,23,0,2,1,24,24,34.736403257236816,35.495985922403634,"[15, 0, 239]",239,a,0.23625871585682034,colour,0.5
125,23,0,2,1,25,25,36.001887703547254,36.78397984453477,"[13, 0, 241]",241,a,0.2585500010754913,colour,0.5
125,23,0,2,1,26,26,37.298792783520184,38.11195621697698,"[75, 0, 179]",179,l,0.2897469303570688,colour,0.5
125,23,0,2,1,27,27,38.626902275835164,39.51193353137933,"[82, 0, 172]",172,l,0.3616584693081677,colour,0.5
125,23,0,2,1,28,28,40.03319372807164,40.83198729925789,"[49, 0, 205]",205,a,0.27557320334017277,colour,0.5
125,23,0,2,1,29,29,41.345672263531014,42.01602047053166,"[42, 0, 212]",212,a,0.14701401768252254,colour,0.5
125,23,0,2,1,30,30,42.53314292198047,43.248016198165715,"[16, 0, 238]",238,a,0.19138706231024116,colour,0.5
125,23,0,2,1,31,31,43.76759152195882,44.55196954472922,"[68, 0, 186]",186,l,0.26113047963008285,colour,0.5
125,23,0,2,1,32,32,45.064474152750336,45.63996338809375,"[26, 0, 228]",228,a,0.05234172905329615,colour,0.5
125,23,0,2,1,33,33,46.158154343487695,46.95199530222453,"[29, 0, 225]",225,a,0.27046265872195363,colour,0.5
125,23,0,2,1,34,34,47.47061318659689,48.319975786376745,"[62, 0, 192]",192,a,0.3259571243543178,colour,0.5
125,23,0,2,1,35,35,48.830036580446176,49.47194832423702,"[34, 0, 220]",220,a,0.11860827449709177,colour,0.5
125,23,0,2,1,36,36,49.98630046355538,50.808001294964924,"[1, 0, 253]",253,a,0.29833513451740146,colour,0.5
125,23,0,2,1,37,37,51.314380811178125,52.11991938762367,"[43, 0, 211]",211,a,0.28238831320777535,colour,0.5
125,23,0,2,1,38,38,52.626932601910084,53.415969034307636,"[96, 0, 158]",158,l,0.2657235107617453,colour,0.5
125,23,0,2,1,39,39,53.92376048816368,54.67191650159657,"[24, 0, 230]",230,a,0.22486435947939754,colour,0.5
125,23,0,2,1,40,40,55.18938632507343,55.80800444574561,"[90, 0, 164]",164,l,0.09530677448492497,colour,0.5
125,23,0,2,1,41,41,56.31437096511945,57.00794465991203,"[64, 0, 190]",190,a,0.17038404697086662,colour,0.5
125,23,0,2,1,42,42,57.51761633425485,59.26399492099881,"[95, 0, 159]",159,l,1.2235288280062377,colour,0.5
125,23,0,2,1,43,43,59.78312322963029,60.62405437591951,"[83, 0, 171]",171,l,0.31756032921839505,colour,0.5
125,23,0,2,1,44,44,61.142572617391124,61.95194646529853,"[92, 0, 162]",162,l,0.28605462482664734,colour,0.5
125,23,0,2,1,45,45,62.470623426605016,63.25597621803172,"[11, 0, 243]",243,a,0.262052079080604,colour,0.5
125,23,0,2,1,46,46,63.76753638347145,64.67197991069406,"[50, 0, 204]",204,a,0.38118101784493774,colour,0.5
125,23,0,2,1,47,47,65.18946233729366,66.06399247911759,"[9, 0, 245]",245,a,0.3512538478244096,colour,0.5
125,23,0,2,1,48,48,66.57998971280176,67.38395566237159,"[80, 0, 174]",174,l,0.28074282489251345,colour,0.5
125,23,0,2,1,49,49,67.89248990966007,68.74396431131754,"[58, 0, 196]",196,a,0.3287101073656231,colour,0.5
125,23,0,2,1,50,50,69.25188967271242,70.29591258824803,"[98, 0, 156]",156,l,0.5207785230595618,colour,0.5
125,23,0,2,2,1,51,75.03230481781065,75.80001134274062,"[77, 0, 177]",177,l,0.24353462527506053,colour,0.5
125,23,0,2,2,2,52,76.31415119906887,77.09593929105904,"[73, 0, 181]",181,l,0.2585149488877505,colour,0.5
125,23,0,2,2,3,53,77.61124768818263,78.27200299012475,"[40, 0, 214]",214,a,0.13741205423139036,colour,0.5
125,23,0,2,2,4,54,78.7830444604624,79.43195208942052,"[6, 0, 248]",248,a,0.12585661478806287,colour,0.5
125,23,0,2,2,5,55,79.93931661429815,80.66391355241649,"[39, 0, 215]",215,a,0.20126393029931933,colour,0.5
125,23,0,2,2,6,56,81.17369904823136,81.96798426506575,"[58, 0, 196]",196,a,0.27099041221663356,colour,0.5
125,23,0,2,2,7,57,82.48618782358244,83.19195971428417,"[67, 0, 187]",187,a,0.18242273526266217,colour,0.5
125,23,0,2,2,8,58,83.70497632201295,84.35992869816255,"[49, 0, 205]",205,a,0.13168002071324736,colour,0.5
125,23,0,2,2,9,59,84.87677545740735,85.61595139000565,"[88, 0, 166]",166,l,0.21581732481718063,colour,0.5
125,23,0,2,2,10,60,86.12679908820428,86.83991738688201,"[44, 0, 210]",210,a,0.18977977707982063,colour,0.5
125,23,0,2,2,11,61,87.36118900508154,88.05592572700698,"[68, 0, 186]",186,a,0.17143640341237187,colour,0.5
125,23,0,2,2,12,62,88.56434772815555,89.23196106916294,"[53, 0, 201]",201,a,0.14448158850427717,colour,0.5
125,23,0,2,2,13,63,89.75171322980896,90.43998339551035,"[24, 0, 230]",230,a,0.16481900424696505,colour,0.5
125,23,0,2,2,14,64,90.95487116510049,91.71197496401146,"[75, 0, 179]",179,l,0.23377788031939417,colour,0.5
125,23,0,2,2,15,65,92.22051196824759,92.79193750140257,"[17, 0, 237]",237,a,0.04805826081428677,colour,0.5
125,23,0,2,2,16,66,93.29871992196422,94.69594149652403,"[85, 0, 169]",169,l,0.8740425604628399,colour,0.5
125,23,0,2,2,17,67,95.20491291279905,95.87992976943497,"[28, 0, 226]",226,a,0.1517531657591462,colour,0.5
125,23,0,2,2,18,68,96.39243555895519,97.1439294165466,"[45, 0, 209]",209,a,0.2280789299402386,colour,0.5
125,23,0,2,2,19,69,97.65797553746961,98.33590134000406,"[93, 0, 161]",161,l,0.15458216099068522,colour,0.5
125,23,0,2,2,20,70,98.84545486059505,99.4479126954684,"[4, 0, 250]",250,a,0.07908307947218418,colour,0.5
125,23,0,2,2,21,71,99.95485422981437,100.62397757603321,"[41, 0, 213]",213,a,0.14573086774908006,colour,0.5
125,23,0,2,2,22,72,101.14243831590284,101.91191242134664,"[82, 0, 172]",172,l,0.24618520843796432,colour,0.5
125,23,0,2,2,23,73,102.42361752211582,103.20798569871113,"[84, 0, 170]",170,l,0.26101587049197406,colour,0.5
125,23,0,2,2,24,74,103.72050645435229,104.39192316541448,"[22, 0, 232]",232,a,0.1481620785780251,colour,0.5
125,23,0,2,2,25,75,104.9079920790391,105.56792069831863,"[34, 0, 220]",220,a,0.13664641766808927,colour,0.5
125,23,0,2,2,26,76,106.07985147286672,106.84793175756931,"[96, 0, 158]",158,l,0.2447027723537758,colour,0.5
125,23,0,2,2,27,77,107.36106454976834,107.9999322585063,"[79, 0, 175]",175,l,0.11545199330430478,colour,0.5
125,23,0,2,2,28,78,108.51737096824218,109.08792295120656,"[9, 0, 245]",245,a,0.04727844591252506,colour,0.5
125,23,0,2,2,29,79,109.59549778979272,110.33593363536056,"[56, 0, 198]",198,a,0.21705754555296153,colour,0.5
125,23,0,2,2,30,80,110.84545486059505,111.6319151467178,"[78, 0, 176]",176,l,0.2629516231827438,colour,0.5
125,23,0,2,2,31,81,112.14236309134867,112.8079386735335,"[15, 0, 239]",239,a,0.14226896211039275,colour,0.5
125,23,0,2,2,32,82,113.31424060207792,114.27193406701554,"[66, 0, 188]",188,a,0.4344833370996639,colour,0.5
125,23,0,2,2,33,83,114.78295938973315,115.4959043962881,"[43, 0, 211]",211,a,0.18963011563755572,colour,0.5
125,23,0,2,2,34,84,116.01732606976293,116.79192017216701,"[76, 0, 178]",178,l,0.2513052053982392,colour,0.5
125,23,0,2,2,35,85,117.298684081994,117.95989663910586,"[59, 0, 195]",195,a,0.13808080460876226,colour,0.5
125,23,0,2,2,36,86,118.47042807901744,119.11991229839623,"[51, 0, 203]",203,a,0.12606180855073035,colour,0.5
125,23,0,2,2,37,87,119.62669432512484,120.43191821873188,"[50, 0, 204]",204,a,0.28190388274379075,colour,0.5
125,23,0,2,2,38,88,120.9390137467999,121.60798073618207,"[3, 0, 251]",251,a,0.14612707670312375,colour,0.5
125,23,0,2,2,39,89,122.12665178976022,123.63996535737533,"[64, 0, 190]",190,a,0.9899907998042181,colour,0.5
125,23,0,2,2,40,90,124.15790070674848,124.91991182579659,"[37, 0, 217]",217,a,0.23864857282023877,colour,0.5
125,23,0,2,2,41,91,125.43903225753456,126.27193012856878,"[57, 0, 197]",197,a,0.30945340485777706,colour,0.5
125,23,0,2,2,42,92,126.78292276209686,127.55197151389439,"[47, 0, 207]",207,a,0.24566454405430704,colour,0.5
125,23,0,2,2,43,93,128.06416301440913,128.72789894230664,"[25, 0, 229]",229,a,0.14046829857397825,colour,0.5
125,23,0,2,2,44,94,129.23597357142717,129.8799155909801,"[7, 0, 247]",247,a,0.1203935780795291,colour,0.5
125,23,0,2,2,45,95,130.39224533142988,131.18398709129542,"[29, 0, 225]",225,a,0.2683480998966843,colour,0.5
125,23,0,2,2,46,96,131.70477388519794,132.47989416576456,"[60, 0, 194]",194,a,0.25175694667268544,colour,0.5
125,23,0,2,2,47,97,132.98597987287212,133.57594649051316,"[27, 0, 227]",227,a,0.06651703140232712,colour,0.5
125,23,0,2,2,48,98,134.09529929142445,134.9599616236519,"[72, 0, 182]",182,a,0.3411603645654395,colour,0.5
125,23,0,2,2,49,99,135.47039223904721,136.26389567181468,"[30, 0, 224]",224,a,0.2701605788897723,colour,0.5
125,23,0,2,2,50,100,136.78284399292897,137.46391189831775,"[12, 0, 242]",242,a,0.15777349448762834,colour,0.5
125,23,0,2,3,1,101,142.32897083333228,143.10389025253244,"[74, 0, 180]",180,l,0.250851888791658,colour,0.5
125,23,0,2,3,2,102,143.61114489438478,144.159978243988,"[27, 0, 227]",227,a,0.025636612554080784,colour,0.5
125,23,0,2,3,3,103,144.67349542980082,145.31993403867818,"[23, 0, 231]",231,a,0.12309733033180237,colour,0.5
125,23,0,2,3,4,104,145.82976915908512,146.53592701884918,"[79, 0, 175]",175,l,0.18285163352265954,colour,0.5
125,23,0,2,3,5,105,147.04841429763474,147.75189912505448,"[84, 0, 170]",170,l,0.18025382584892213,colour,0.5
125,23,0,2,3,6,106,148.26723469758872,149.0558761024149,"[80, 0, 174]",174,l,0.26532336324453354,colour,0.5
125,23,0,2,3,7,107,149.56415553134866,150.23988485522568,"[42, 0, 212]",212,a,0.15265231591183692,colour,0.5
125,23,0,2,3,8,108,150.7516659682151,151.3838946162723,"[7, 0, 247]",247,a,0.10892714792862535,colour,0.5
125,23,0,2,3,9,109,151.892237848253,152.4798799873097,"[76, 0, 178]",178,l,0.06499284773599356,colour,0.5
125,23,0,2,3,10,110,152.9858818053035,153.7119332163129,"[81, 0, 173]",173,l,0.20263215096201748,colour,0.5
125,23,0,2,3,11,111,154.22033158678096,154.87987778172828,"[55, 0, 199]",199,a,0.1361789226066321,colour,0.5
125,23,0,2,3,12,112,155.39218979910947,156.07989834051114,"[92, 0, 162]",162,l,0.16443185356911272,colour,0.5
125,23,0,2,3,13,113,156.5952807806898,157.41593595116865,"[73, 0, 181]",181,l,0.29723630438093096,colour,0.5
125,23,0,2,3,14,114,157.9234497436555,158.58390729816165,"[12, 0, 242]",242,a,0.13704144523944706,colour,0.5
125,23,0,2,3,15,115,159.0954020852223,159.75992176646832,"[2, 0, 252]",252,a,0.14123157190624624,colour,0.5
125,23,0,2,3,16,116,160.26729850051925,161.03994700417388,"[40, 0, 214]",214,a,0.24951990193221718,colour,0.5
125,23,0,2,3,17,117,161.548555294401,162.3678835980827,"[46, 0, 208]",208,a,0.2961662249872461,colour,0.5
125,23,0,2,3,18,118,162.87660649756435,163.567878162954,"[25, 0, 229]",229,a,0.16800639918074012,colour,0.5
125,23,0,2,3,19,119,164.0797313498333,164.74389578204136,"[52, 0, 202]",202,a,0.14093815663363785,colour,0.5
125,23,0,2,3,20,120,165.2514725899091,165.84786244062707,"[29, 0, 225]",225,a,0.07296231994405389,colour,0.5
125,23,0,2,3,21,121,166.36094442673493,167.2159098786069,"[61, 0, 193]",193,a,0.3316734040854499,colour,0.5
125,23,0,2,3,22,122,167.7359751467593,168.31989386642817,"[8, 0, 246]",246,a,0.0605215149698779,colour,0.5
125,23,0,2,3,23,123,168.8296167406952,169.39997376990505,"[35, 0, 219]",219,a,0.04692044004332274,colour,0.5
125,23,0,2,3,24,124,169.9078109099064,170.56785847072024,"[58, 0, 196]",196,a,0.13685082376468927,colour,0.5
125,23,0,2,3,25,125,171.07962855603546,171.65589563711546,"[24, 0, 230]",230,a,0.05293525487650186,colour,0.5
125,23,0,2,3,26,126,172.1733827899443,173.1918990620179,"[94, 0, 160]",160,l,0.4951872028177604,colour,0.5
125,23,0,2,3,27,127,173.70458759611938,174.49588431010488,"[11, 0, 243]",243,a,0.2678896632278338,colour,0.5
125,23,0,2,3,28,128,175.01720082678366,175.97590726346243,"[62, 0, 192]",192,l,0.43546165036968887,colour,0.5
125,23,0,2,3,29,129,176.48585581150837,177.27189271326642,"[56, 0, 198]",198,a,0.2626314264489338,colour,0.5
125,23,0,2,3,30,130,177.78270890377462,178.37590072560124,"[5, 0, 249]",249,a,0.0698052509687841,colour,0.5
125,23,0,2,3,31,131,178.892206734512,179.59990059328265,"[9, 0, 245]",245,a,0.18515878287144005,colour,0.5
125,23,0,2,3,32,132,180.11086998996325,180.887890183134,"[48, 0, 206]",206,a,0.2537001824239269,colour,0.5
125,23,0,2,3,33,133,181.40780500217807,182.16789454699028,"[14, 0, 240]",240,a,0.23667894944082946,colour,0.5
125,23,0,2,3,34,134,182.68903422681615,183.47191090893466,"[89, 0, 165]",165,l,0.2596441050991416,colour,0.5
125,23,0,2,3,35,135,183.98582902993076,184.96787516982295,"[65, 0, 189]",189,l,0.4585997045505792,colour,0.5
125,23,0,2,3,36,136,185.48578767606523,186.27990314539056,"[82, 0, 172]",172,l,0.27063752617686987,colour,0.5
125,23,0,2,3,37,137,186.7983461621916,187.49595795932692,"[44, 0, 210]",210,a,0.1748360813362524,colour,0.5
125,23,0,2,3,38,138,188.01720515906345,188.7758744955063,"[93, 0, 161]",161,l,0.23550016852095723,colour,0.5
125,23,0,2,3,39,139,189.28272583917715,190.1758679576451,"[75, 0, 179]",179,l,0.36986109835561365,colour,0.5
125,23,0,2,3,40,140,190.68906967295334,191.55184784636367,"[83, 0, 171]",171,l,0.3396546917501837,colour,0.5
125,23,0,2,3,41,141,192.06402201764286,192.9439183101058,"[87, 0, 167]",167,l,0.3566711985040456,colour,0.5
125,23,0,2,3,42,142,193.45449819311034,194.4478760677157,"[32, 0, 222]",222,a,0.46985739620868117,colour,0.5
125,23,0,2,3,43,143,194.95448322687298,195.7438961759908,"[34, 0, 220]",220,a,0.26593343063723296,colour,0.5
125,23,0,2,3,44,144,196.2514335991582,196.99990941549186,"[95, 0, 159]",159,l,0.22469776263460517,colour,0.5
125,23,0,2,3,45,145,197.51720161444973,198.12791603524238,"[6, 0, 248]",248,a,0.08741922222543508,colour,0.5
125,23,0,2,3,46,146,198.64209527603816,199.4798567503458,"[22, 0, 232]",232,a,0.3144765157485381,colour,0.5
125,23,0,2,3,47,147,199.9858050053008,200.60792008391581,"[18, 0, 236]",236,a,0.09863752941600978,colour,0.5
125,23,0,2,3,48,148,201.12640839302912,201.8878535554977,"[36, 0, 218]",218,a,0.23796052404213697,colour,0.5
125,23,0,2,3,49,149,202.4086135678226,203.19985868805088,"[78, 0, 176]",176,l,0.2687868442153558,colour,0.5
125,23,0,2,3,50,150,203.72022603603546,204.56789234140888,"[64, 0, 190]",190,l,0.3243651990778744,colour,0.5
125,23,0,2,4,1,151,210.65683968586382,211.34384796919767,"[50, 0, 204]",204,a,0.16286198375746608,colour,0.5
125,23,0,2,4,2,152,211.86080894374754,212.49590085167438,"[86, 0, 168]",168,l,0.11178646935150027,colour,0.5
125,23,0,2,4,3,153,213.01697082072496,213.74390365905128,"[83, 0, 171]",171,l,0.20357186743058264,colour,0.5
125,23,0,2,4,4,154,214.25143556843977,214.84787780069746,"[64, 0, 190]",190,a,0.07301155070308596,colour,0.5
125,23,0,2,4,5,155,215.36071442079265,215.94388443930075,"[74, 0, 180]",180,a,0.059685773914679885,colour,0.5
125,23,0,2,4,6,156,216.45447377464734,217.23186654609162,"[16, 0, 238]",238,a,0.253919554525055,colour,0.5
125,23,0,2,4,7,157,217.75138397456612,218.4638981136959,"[18, 0, 236]",236,a,0.18917916214559227,colour,0.5
125,23,0,2,4,8,158,218.9702098884154,219.6718625446083,"[6, 0, 248]",248,a,0.17842244228813797,colour,0.5
125,23,0,2,4,9,159,220.1888392730616,220.80789259355515,"[43, 0, 211]",211,a,0.0958014449570328,colour,0.5
125,23,0,2,4,10,160,221.32948637765367,222.07989400823135,"[79, 0, 175]",175,l,0.22710337350144982,colour,0.5
125,23,0,2,4,11,161,222.5950208423892,223.15998690854758,"[33, 0, 221]",221,a,0.04137469548732042,colour,0.5
125,23,0,2,4,12,162,223.67330638377462,224.391875510104,"[69, 0, 185]",185,l,0.19544406922068447,colour,0.5
125,23,0,2,4,13,163,224.90763604233507,225.56789667380508,"[44, 0, 210]",210,a,0.13690556841902435,colour,0.5
125,23,0,2,4,14,164,226.0794721991988,226.82385004870594,"[10, 0, 244]",244,a,0.22095662029460073,colour,0.5
125,23,0,2,4,15,165,227.34514687303454,227.91183640901,"[5, 0, 249]",249,a,0.04329075594432652,colour,0.5
125,23,0,2,4,16,166,228.4232106792042,229.25591123348568,"[27, 0, 227]",227,a,0.3093013804173097,colour,0.5
125,23,0,2,4,17,167,229.7670645561302,230.63985783734825,"[60, 0, 194]",194,a,0.3495410119649023,colour,0.5
125,23,0,2,4,18,168,231.15757854073308,231.99186038633343,"[71, 0, 183]",183,a,0.31089724402409047,colour,0.5
125,23,0,2,4,19,169,232.50133434997406,233.18383506685495,"[98, 0, 156]",156,l,0.159149985993281,colour,0.5
125,23,0,2,4,20,170,233.7044123345986,234.29585981287528,"[20, 0, 234]",234,a,0.0680514550767839,colour,0.5
125,23,0,2,4,21,171,234.81384439312387,235.6158852238441,"[57, 0, 197]",197,a,0.27878147223964334,colour,0.5
125,23,0,2,4,22,172,236.12627487932332,236.87188074027654,"[59, 0, 195]",195,a,0.22215745644643903,colour,0.5
125,23,0,2,4,23,173,237.39195349160582,238.24783699819818,"[25, 0, 229]",229,a,0.33252529276069254,colour,0.5
125,23,0,2,4,24,174,238.76699720846955,239.6798702199012,"[90, 0, 164]",164,l,0.3895526067353785,colour,0.5
125,23,0,2,4,25,175,240.1888558146311,240.95988679293077,"[37, 0, 217]",217,a,0.2477913120528683,colour,0.5
125,23,0,2,4,26,176,241.4701232422376,242.3598948273575,"[84, 0, 170]",170,l,0.3665043496293947,colour,0.5
125,23,0,2,4,27,177,242.8763079623459,243.59988011338282,"[55, 0, 199]",199,a,0.20021078642457724,colour,0.5
125,23,0,2,4,28,178,244.11066558386665,244.76784752181266,"[48, 0, 206]",206,a,0.13409626542124897,colour,0.5
125,23,0,2,4,29,179,245.28257342078723,246.1678138085408,"[96, 0, 158]",158,l,0.3618829615879804,colour,0.5
125,23,0,2,4,30,180,246.68877862079535,247.31184838199988,"[26, 0, 228]",228,a,0.0997777134180069,colour,0.5
125,23,0,2,4,31,181,247.82939421769697,248.56786871072836,"[46, 0, 208]",208,a,0.21509461756795645,colour,0.5
125,23,0,2,4,32,182,249.07934498705436,249.71187965327408,"[38, 0, 216]",216,a,0.10918748006224632,colour,0.5
125,23,0,2,4,33,183,250.22001729777548,251.0238918751711,"[40, 0, 214]",214,a,0.28054826508741826,colour,0.5
125,23,0,2,4,34,184,251.53244266391266,252.33588873699773,"[28, 0, 226]",226,a,0.2800811637425795,colour,0.5
125,23,0,2,4,35,185,252.8450208423892,253.6478584234137,"[15, 0, 239]",239,a,0.2795431702397764,colour,0.5
125,23,0,2,4,36,186,254.15753954998218,254.91182892594952,"[45, 0, 209]",209,a,0.23099338973406702,colour,0.5
125,23,0,2,4,37,187,255.42321461765096,256.4718415919924,"[67, 0, 187]",187,a,0.5253172034863383,colour,0.5
125,23,0,2,4,38,188,256.9856403777376,257.83184551470913,"[2, 0, 252]",252,a,0.3228165969485417,colour,0.5
125,23,0,2,4,39,189,258.3449861839181,259.1918124159565,"[88, 0, 166]",166,l,0.3234814088791609,colour,0.5
125,23,0,2,4,40,190,259.70428472862113,260.6399184897309,"[58, 0, 196]",196,l,0.41217354114633054,colour,0.5
125,23,0,2,4,41,191,261.15754939615726,262.73587432224303,"[75, 0, 179]",179,l,1.0553853703895584,colour,0.5
125,23,0,2,4,42,192,263.25120989466086,263.91186476591974,"[41, 0, 213]",213,a,0.13727460196241736,colour,0.5
125,23,0,2,4,43,193,264.42320201464463,265.22383051388897,"[65, 0, 189]",189,a,0.27732896839734167,colour,0.5
125,23,0,2,4,44,194,265.73553758393973,266.4958480763016,"[17, 0, 237]",237,a,0.2368766600266099,colour,0.5
125,23,0,2,4,45,195,267.016842033132,267.71990938391536,"[36, 0, 218]",218,a,0.17977018293458968,colour,0.5
125,23,0,2,4,46,196,268.23562462395057,268.98383301880676,"[51, 0, 203]",203,a,0.22478637797757983,colour,0.5
125,23,0,2,4,47,197,269.501220528502,270.35182295530103,"[72, 0, 182]",182,l,0.3274009635206312,colour,0.5
125,23,0,2,4,48,198,270.86057027312927,271.4958622547565,"[52, 0, 202]",202,a,0.11193573696073145,colour,0.5
125,23,0,2,4,49,199,272.01686723926105,272.7438516713446,"[54, 0, 200]",200,a,0.20384913496673107,colour,0.5
125,23,0,2,4,50,200,273.2512425838504,274.27981610549614,"[39, 0, 215]",215,a,0.5053326737834141,colour,0.5
125,23,0,2,5,1,201,279.6566459136084,280.2398486214224,"[30, 0, 224]",224,a,0.05909854976925999,colour,0.5
125,23,0,2,5,2,202,280.75122643623035,281.9678101851605,"[53, 0, 201]",201,a,0.6933007596526295,colour,0.5
125,23,0,2,5,3,203,282.4856517992448,283.2718182763783,"[80, 0, 174]",174,l,0.262950835400261,colour,0.5
125,23,0,2,5,4,204,283.7824627500959,284.5997840149794,"[82, 0, 172]",172,l,0.29399455862585455,colour,0.5
125,23,0,2,5,5,205,285.11052104237024,285.73579318996053,"[84, 0, 170]",170,l,0.10184461681637913,colour,0.5
125,23,0,2,5,6,206,286.25107756245416,287.07983847591095,"[72, 0, 182]",182,l,0.3053987610619515,colour,0.5
125,23,0,2,5,7,207,287.59493892244063,288.39184715319425,"[22, 0, 232]",232,a,0.2736142138019204,colour,0.5
125,23,0,2,5,8,208,288.907375316252,289.7918536121724,"[65, 0, 189]",189,a,0.3611567096086219,colour,0.5
125,23,0,2,5,9,209,290.2980117870029,291.09587391256355,"[87, 0, 167]",167,l,0.2747158007696271,colour,0.5
125,23,0,2,5,10,210,291.6106061130995,292.4397971063154,"[93, 0, 161]",161,l,0.3060151298996061,colour,0.5
125,23,0,2,5,11,211,292.9541701193666,293.6317694237223,"[15, 0, 239]",239,a,0.15409261046443135,colour,0.5
125,23,0,2,5,12,212,294.1417711408576,294.79182525526267,"[68, 0, 186]",186,a,0.12671007891185582,colour,0.5
125,23,0,2,5,13,213,295.29800115316175,295.99979165557306,"[63, 0, 191]",191,a,0.17873121751472354,colour,0.5
125,23,0,2,5,14,214,296.5168357315706,297.3279153263429,"[34, 0, 220]",220,a,0.2878430791897699,colour,0.5
125,23,0,2,5,15,215,297.8449176547583,298.41589932353236,"[18, 0, 236]",236,a,0.04765968874562532,colour,0.5
125,23,0,2,5,16,216,298.9230192700634,299.91180017520674,"[90, 0, 164]",164,l,0.465471921954304,colour,0.5
125,23,0,2,5,17,217,300.42300233477727,301.19978700811043,"[24, 0, 230]",230,a,0.2534213394392282,colour,0.5
125,23,0,2,5,18,218,301.7199176547583,302.527794100577,"[55, 0, 199]",199,a,0.28458873042836785,colour,0.5
125,23,0,2,5,19,219,303.04796216241084,303.67186845233664,"[4, 0, 250]",250,a,0.10084424808155745,colour,0.5
125,23,0,2,5,20,220,304.18855846091174,304.9917678325437,"[48, 0, 206]",206,a,0.27983540389686823,colour,0.5
125,23,0,2,5,21,221,305.5011023747502,306.2558045012411,"[54, 0, 200]",200,a,0.23137226945254952,colour,0.5
125,23,0,2,5,22,222,306.7667045809794,307.4238538296195,"[89, 0, 165]",165,l,0.13386192708276212,colour,0.5
125,23,0,2,5,23,223,307.93862187012564,308.5518293355126,"[43, 0, 211]",211,a,0.08995519601739943,colour,0.5
125,23,0,2,5,24,224,309.06358091020957,309.6558282894548,"[52, 0, 202]",202,a,0.06898526381701231,colour,0.5
125,23,0,2,5,25,225,310.17297988547944,311.20781831420027,"[17, 0, 237]",237,a,0.511458947090432,colour,0.5
125,23,0,2,5,26,226,311.71988496545237,312.3997945699375,"[8, 0, 246]",246,a,0.15663173515349627,colour,0.5
125,23,0,2,5,27,227,312.90735916863196,313.7518002697034,"[71, 0, 183]",183,a,0.3211553548462689,colour,0.5
125,23,0,2,5,28,228,314.26670418703,314.8078043720452,"[27, 0, 227]",227,a,0.01782507251482457,colour,0.5
125,23,0,2,5,29,229,315.32921147323214,315.9277974088909,"[97, 0, 157]",157,l,0.0751903064083308,colour,0.5
125,23,0,2,5,30,230,316.43860769167077,317.0718434037408,"[92, 0, 162]",162,l,0.10992475971579552,colour,0.5
125,23,0,2,5,31,231,317.57902163953986,318.31981903570704,"[86, 0, 168]",168,l,0.2172690408769995,colour,0.5
125,23,0,2,5,32,232,318.8291457009036,319.50380730850156,"[14, 0, 240]",240,a,0.1513356890063733,colour,0.5
125,23,0,2,5,33,233,320.0167097009253,320.6237861668924,"[46, 0, 208]",208,a,0.08375054749194533,colour,0.5
125,23,0,2,5,34,234,321.1416825255146,321.96781845600344,"[28, 0, 226]",226,a,0.30278756271582097,colour,0.5
125,23,0,2,5,35,235,322.48538555938285,323.2157763649011,"[88, 0, 166]",166,l,0.207037711632438,colour,0.5
125,23,0,2,5,36,236,323.735469448613,324.31989347259514,"[21, 0, 233]",233,a,0.061052813194692135,colour,0.5
125,23,0,2,5,37,237,324.8291496394668,325.46379847067874,"[39, 0, 215]",215,a,0.11133433424402028,colour,0.5
125,23,0,2,5,38,238,325.9697774455417,326.57582715526223,"[7, 0, 247]",247,a,0.08275136037264019,colour,0.5
125,23,0,2,5,39,239,327.0948699993314,327.8478006068617,"[47, 0, 207]",207,a,0.22960193210747093,colour,0.5
125,23,0,2,5,40,240,328.3604347901419,329.1118900508154,"[45, 0, 209]",209,a,0.22812894824892282,colour,0.5
125,23,0,2,5,41,241,329.62603305792436,330.4238120819209,"[5, 0, 249]",249,a,0.27437236707191914,colour,0.5
125,23,0,2,5,42,242,330.93852655938827,331.70378139347304,"[76, 0, 178]",178,l,0.24195727240294218,colour,0.5
125,23,0,2,5,43,243,332.2198054086184,332.8718059095554,"[36, 0, 218]",218,a,0.12874626240227371,colour,0.5
125,23,0,2,5,44,244,333.39171048859134,334.43981443555094,"[10, 0, 244]",244,a,0.5247646376956254,colour,0.5
125,23,0,2,5,45,245,334.95408071635757,335.6957524504978,"[96, 0, 158]",158,l,0.21824105258565396,colour,0.5
125,23,0,2,5,46,246,336.204038574826,336.775789030944,"[49, 0, 205]",205,a,0.048274482251144946,colour,0.5
125,23,0,2,5,47,247,337.28222368564457,337.9677747390233,"[59, 0, 195]",195,a,0.16235471016261727,colour,0.5
125,23,0,2,5,48,248,338.48533869173843,339.31981273414567,"[81, 0, 173]",173,l,0.31102288083638996,colour,0.5
125,23,0,2,5,49,249,339.8290921378648,340.3757833595155,"[42, 0, 212]",212,a,0.023368847672827542,colour,0.5
125,23,0,2,5,50,250,340.8917388455011,341.5597779339878,"[83, 0, 171]",171,l,0.1454504495486617,colour,0.5
125,23,0,2,6,1,251,351.57833477226086,353.77577170170844,"[56, 0, 198]",198,a,1.673394211451523,colour,0.5
125,23,0,2,6,2,252,354.28224810410757,354.94383875315543,"[66, 0, 188]",188,a,0.13838721660431474,colour,0.5
125,23,0,2,6,3,253,355.454048027168,356.1517882180633,"[24, 0, 230]",230,a,0.17439103545621037,colour,0.5
125,23,0,2,6,4,254,356.67286645795684,357.2478058843408,"[41, 0, 213]",213,a,0.05163595709018409,colour,0.5
125,23,0,2,6,5,255,357.76657500560395,358.4718124474166,"[75, 0, 179]",179,a,0.1819717816542834,colour,0.5
125,23,0,2,6,6,256,358.9853083656635,359.6717735354323,"[15, 0, 239]",239,a,0.16301479598041624,colour,0.5
125,23,0,2,6,7,257,360.1883965902962,360.8477935176343,"[25, 0, 229]",229,a,0.13606431346852332,colour,0.5
125,23,0,2,6,8,258,361.3603505071951,362.0717815699754,"[51, 0, 203]",203,a,0.1881429535569623,colour,0.5
125,23,0,2,6,9,259,362.5790779594099,363.3677792289527,"[98, 0, 156]",156,l,0.2653997694142163,colour,0.5
125,23,0,2,6,10,260,363.8759389286861,364.6397306252038,"[14, 0, 240]",240,a,0.2404602641472593,colour,0.5
125,23,0,2,6,11,261,365.1572264424758,365.9357263148995,"[46, 0, 208]",208,a,0.2552137322491035,colour,0.5
125,23,0,2,6,12,262,366.45405944867525,367.09574945725035,"[93, 0, 161]",161,l,0.11835857620462775,colour,0.5
125,23,0,2,6,13,263,367.6102717379108,368.27177731634583,"[27, 0, 227]",227,a,0.13815760449506342,colour,0.5
125,23,0,2,6,14,264,368.78211459028535,369.4077695560409,"[21, 0, 233]",233,a,0.10237315797712654,colour,0.5
125,23,0,2,6,15,265,369.9227404271951,370.6637690109201,"[72, 0, 182]",182,a,0.21763374214060605,colour,0.5
125,23,0,2,6,16,266,371.1727880825056,371.9916776418686,"[59, 0, 195]",195,a,0.29557388077955693,colour,0.5
125,23,0,2,6,17,267,372.5008227440994,373.2078187080333,"[68, 0, 186]",186,a,0.1835897007258609,colour,0.5
125,23,0,2,6,18,268,373.7196915871464,374.2797960193129,"[33, 0, 221]",221,a,0.036879338207654655,colour,0.5
125,23,0,2,6,19,269,374.7978325871518,375.47180181357544,"[58, 0, 196]",196,a,0.1510304583935067,colour,0.5
125,23,0,2,6,20,270,375.9851913934108,376.5917586166179,"[95, 0, 159]",159,l,0.08302429562900215,colour,0.5
125,23,0,2,6,21,271,377.1103052148828,377.79185951990075,"[57, 0, 197]",197,a,0.1583363002864644,colour,0.5
125,23,0,2,6,22,272,378.3133847748395,378.88775627559517,"[77, 0, 177]",177,a,0.05107787752058357,colour,0.5
125,23,0,2,6,23,273,379.40707363025285,380.119796507759,"[20, 0, 234]",234,a,0.1892299682367593,colour,0.5
125,23,0,2,6,24,274,380.6258810333675,381.5917621612316,"[76, 0, 178]",178,a,0.44262216321658343,colour,0.5
125,23,0,2,6,25,275,382.11030679021496,382.92776550736744,"[39, 0, 215]",215,a,0.29416785086505115,colour,0.5
125,23,0,2,6,26,276,383.43837532261387,384.2557938673999,"[48, 0, 206]",206,a,0.2941225585527718,colour,0.5
125,23,0,2,6,27,277,384.76644149189815,385.55176750174724,"[16, 0, 238]",238,a,0.26196897751651704,colour,0.5
125,23,0,2,6,28,278,386.06331309489906,386.831770683988,"[4, 0, 250]",250,a,0.24518838431686163,colour,0.5
125,23,0,2,6,29,279,387.34463920560665,387.95973201154266,"[23, 0, 231]",231,a,0.09178697352763265,colour,0.5
125,23,0,2,6,30,280,388.4696238456527,389.1997976419516,"[47, 0, 207]",207,a,0.20680652395822108,colour,0.5
125,23,0,2,6,31,281,389.719540350372,390.34376998769585,"[7, 0, 247]",247,a,0.10092380503192544,colour,0.5
125,23,0,2,6,32,282,390.8601996641373,391.6317426421447,"[82, 0, 172]",172,l,0.2482324194861576,colour,0.5
125,23,0,2,6,33,283,392.14153286407236,392.73576207610313,"[31, 0, 223]",223,a,0.0709875765023753,colour,0.5
125,23,0,2,6,34,284,393.2509011195507,393.9437651040498,"[43, 0, 211]",211,a,0.16959162906277925,colour,0.5
125,23,0,2,6,35,285,394.4540354240453,395.20774702809285,"[83, 0, 171]",171,l,0.2304750884650275,colour,0.5
125,23,0,2,6,36,286,395.71986448555253,396.35975737520494,"[64, 0, 190]",190,a,0.11676546954549849,colour,0.5
125,23,0,2,6,37,287,396.87583534722216,398.30377138976473,"[5, 0, 249]",249,a,0.9045616809744388,colour,0.5
125,23,0,2,6,38,288,398.81330403650645,399.4717738504987,"[60, 0, 194]",194,a,0.13515531702432781,colour,0.5
125,23,0,2,6,39,289,399.9851248334162,400.81583252723794,"[10, 0, 244]",244,a,0.30714901234023273,colour,0.5
125,23,0,2,6,40,290,401.3289019103395,402.031850319705,"[81, 0, 173]",173,l,0.17963194311596453,colour,0.5
125,23,0,2,6,41,291,402.5477183718467,403.21576809405815,"[0, 0, 254]",254,a,0.14487976662348956,colour,0.5
125,23,0,2,6,42,292,403.735129559529,404.2957656837534,"[80, 0, 174]",174,l,0.03724837186746299,colour,0.5
125,23,0,2,6,43,293,404.81326740875375,405.47979727969505,"[42, 0, 212]",212,a,0.1434032383840531,colour,0.5
125,23,0,2,6,44,294,406.0008054149803,406.8877342202468,"[45, 0, 209]",209,a,0.3636304560350254,colour,0.5
125,23,0,2,6,45,295,407.4070866272086,408.2797719947994,"[12, 0, 242]",242,a,0.349425615160726,colour,0.5
125,23,0,2,6,46,296,408.7976439349586,409.59176964429207,"[69, 0, 185]",185,l,0.27119403053075075,colour,0.5
125,23,0,2,6,47,297,410.11017760878894,410.9117800890235,"[96, 0, 158]",158,l,0.27829664782620966,colour,0.5
125,23,0,2,6,48,298,411.4226573257474,412.2557493627537,"[99, 0, 155]",155,l,0.3098173184553161,colour,0.5
125,23,0,2,6,49,299,412.766341848881,413.6077731794212,"[78, 0, 176]",176,l,0.31799474137369543,colour,0.5
125,23,0,2,6,50,300,414.12579320569057,414.7677770233713,"[94, 0, 160]",160,l,0.11864962836261839,colour,0.5
125,23,0,2,7,1,301,425.51562662469223,426.19971808511764,"[39, 0, 215]",215,a,0.16003298852592707,colour,0.5
125,23,0,2,7,2,302,426.71950332878623,427.38376897946,"[38, 0, 216]",216,a,0.1409283105749637,colour,0.5
125,23,0,2,7,3,303,427.8913587841671,430.05576425010804,"[1, 0, 253]",253,a,1.641760113183409,colour,0.5
125,23,0,2,7,4,304,430.5632823749911,431.1997318697395,"[90, 0, 164]",164,l,0.11313539161346853,colour,0.5
125,23,0,2,7,5,305,431.7194418888539,432.35974319675006,"[11, 0, 243]",243,a,0.11691749398596585,colour,0.5
125,23,0,2,7,6,306,432.8757254641969,433.5037419301225,"[54, 0, 200]",200,a,0.10472441813908517,colour,0.5
125,23,0,2,7,7,307,434.01633279037196,434.7117264472181,"[46, 0, 208]",208,a,0.17209609516430646,colour,0.5
125,23,0,2,7,8,308,435.2195261719171,435.9677014837507,"[88, 0, 166]",166,l,0.22488838410936296,colour,0.5
125,23,0,2,7,9,309,436.4850815103855,437.3277471540496,"[41, 0, 213]",213,a,0.3193409066880122,colour,0.5
125,23,0,2,7,10,310,437.8445754025597,438.431701603462,"[26, 0, 228]",228,a,0.06384006072767079,colour,0.5
125,23,0,2,7,11,311,438.9380956919631,439.63172452524304,"[56, 0, 198]",198,a,0.1702489578165114,colour,0.5
125,23,0,2,7,12,312,440.1413355473196,440.73570221150294,"[94, 0, 160]",160,l,0.07111360714770854,colour,0.5
125,23,0,2,7,13,313,441.2506821411662,442.32780229253694,"[61, 0, 193]",193,a,0.5537556359777227,colour,0.5
125,23,0,2,7,14,314,442.8443942335434,443.5357430927688,"[60, 0, 194]",194,a,0.1679410208016634,colour,0.5
125,23,0,2,7,15,315,444.0474828520091,444.77576855092775,"[43, 0, 211]",211,a,0.20500389114022255,colour,0.5
125,23,0,2,7,16,316,445.2818593780976,446.0557378624799,"[69, 0, 185]",185,a,0.250634879572317,colour,0.5
125,23,0,2,7,17,317,446.5630665473873,447.1598573332885,"[81, 0, 173]",173,a,0.07346919970586896,colour,0.5
125,23,0,2,7,18,318,447.6725025442429,448.66373435256537,"[73, 0, 181]",181,l,0.46800041280221194,colour,0.5
125,23,0,2,7,19,319,449.1724659166066,449.9517247300828,"[92, 0, 162]",162,l,0.2560384456301108,colour,0.5
125,23,0,2,7,20,320,450.469387538149,451.1996822451474,"[65, 0, 189]",189,a,0.20685024093836546,colour,0.5
125,23,0,2,7,21,321,451.71944346418604,452.51171140233055,"[48, 0, 206]",206,a,0.26902472716756165,colour,0.5
125,23,0,2,7,22,322,453.031964141177,453.75970396969933,"[95, 0, 159]",159,l,0.2045584514271468,colour,0.5
125,23,0,2,7,23,323,454.2663863534108,455.3757191626355,"[3, 0, 251]",251,a,0.5861325275618583,colour,0.5
125,23,0,2,7,24,324,455.8913375164848,456.6557538526831,"[7, 0, 247]",247,a,0.24191749410238117,colour,0.5
125,23,0,2,7,25,325,457.17254980583675,457.9037487830501,"[5, 0, 249]",249,a,0.20789117563981563,colour,0.5
125,23,0,2,7,26,326,458.4227337318007,459.4317114496371,"[63, 0, 191]",191,a,0.48590740526560694,colour,0.5
125,23,0,2,7,27,327,459.9380878150696,460.5117744177114,"[25, 0, 229]",229,a,0.05033114564139396,colour,0.5
125,23,0,2,7,28,328,461.0318739503855,461.94370878406335,"[72, 0, 182]",182,l,0.38863376423250884,colour,0.5
125,23,0,2,7,29,329,462.453796753427,463.3116951758275,"[82, 0, 172]",172,l,0.3345638392493129,colour,0.5
125,23,0,2,7,30,330,463.82879045198206,464.3757278273115,"[13, 0, 241]",241,a,0.023711887537501752,colour,0.5
125,23,0,2,7,31,331,464.8912189688999,465.7837100600591,"[98, 0, 156]",156,l,0.3698819722048938,colour,0.5
125,23,0,2,7,32,332,466.29751002730336,467.0557150194654,"[33, 0, 221]",221,a,0.2350310981273651,colour,0.5
125,23,0,2,7,33,333,467.5629921104992,468.3517067707144,"[29, 0, 225]",225,a,0.2652981571154669,colour,0.5
125,23,0,2,7,34,334,468.8599393320037,469.43177249573637,"[24, 0, 230]",230,a,0.04853914678096771,colour,0.5
125,23,0,2,7,35,335,469.9379747812636,470.5997064273106,"[79, 0, 175]",175,l,0.13820092764217407,colour,0.5
125,23,0,2,7,36,336,471.1100204642862,472.1197594861733,"[22, 0, 232]",232,a,0.48642137413844466,colour,0.5
125,23,0,2,7,37,337,472.6255675320281,473.3196941865608,"[55, 0, 199]",199,a,0.17081806529313326,colour,0.5
125,23,0,2,7,38,338,473.82874476583675,474.6958052258706,"[42, 0, 212]",212,a,0.344389901147224,colour,0.5
125,23,0,2,7,39,339,475.2037620950723,476.0317810027627,"[50, 0, 204]",204,a,0.3047942075645551,colour,0.5
125,23,0,2,7,40,340,476.5474068396725,477.34369673230685,"[91, 0, 163]",163,l,0.27305140788666904,colour,0.5
125,23,0,2,7,41,341,477.8599960458232,479.1117151832441,"[52, 0, 202]",202,a,0.7283810096560046,colour,0.5
125,23,0,2,7,42,342,479.6255655627465,480.4557061184896,"[31, 0, 223]",223,a,0.3067177510820329,colour,0.5
125,23,0,2,7,43,343,480.9693182212068,481.9756934051402,"[53, 0, 201]",201,a,0.48301539465319365,colour,0.5
125,23,0,2,7,44,344,482.48585778067354,483.2876879039686,"[35, 0, 219]",219,a,0.27941989654209465,colour,0.5
125,23,0,2,7,45,345,483.79751317808405,484.48772303492296,"[28, 0, 226]",226,a,0.16732780262827873,colour,0.5
125,23,0,2,7,46,346,485.0005923443241,485.599744630279,"[2, 0, 252]",252,a,0.07630646566394717,colour,0.5
125,23,0,2,7,47,347,486.1099460273981,486.94366782403085,"[44, 0, 210]",210,a,0.31039351504296064,colour,0.5
125,23,0,2,7,48,348,487.453756581177,488.255778901279,"[78, 0, 176]",176,l,0.27872003230731934,colour,0.5
125,23,0,2,7,49,349,488.7661287782248,489.67166522785556,"[76, 0, 178]",178,l,0.38247086328919977,colour,0.5
125,23,0,2,7,50,350,490.18800195667427,490.8557346329326,"[18, 0, 236]",236,a,0.1442854532506317,colour,0.5
125,23,0,2,8,1,351,501.32781686482485,502.1517535595922,"[90, 0, 164]",164,l,0.2997730659553781,colour,0.5
125,23,0,2,8,2,352,502.6724269258557,503.30367686680984,"[61, 0, 193]",193,a,0.1079771916847676,colour,0.5
125,23,0,2,8,3,353,503.8130433104234,504.6076932287542,"[55, 0, 199]",199,a,0.27141103975009173,colour,0.5
125,23,0,2,8,4,354,505.1254978212528,505.7436795607209,"[88, 0, 166]",166,l,0.09486409171950072,colour,0.5
125,23,0,2,8,5,355,506.2503847874468,507.05566106247716,"[83, 0, 171]",171,l,0.2818247196264565,colour,0.5
125,23,0,2,8,6,356,507.56301928590983,508.2877032639226,"[59, 0, 195]",195,a,0.20142107491847128,colour,0.5
125,23,0,2,8,7,357,508.79737454431597,509.5677013262175,"[44, 0, 210]",210,a,0.24742897390387952,colour,0.5
125,23,0,2,8,8,358,510.07937058701646,510.9037074291846,"[14, 0, 240]",240,a,0.3017407201696187,colour,0.5
125,23,0,2,8,9,359,511.42219849524554,512.343983058352,"[25, 0, 229]",229,a,0.39863666298333555,colour,0.5
125,23,0,2,8,10,360,512.8598337812582,513.567685178481,"[80, 0, 174]",174,l,0.1845648632152006,colour,0.5
125,23,0,2,8,11,361,514.0784915229306,514.8157214627136,"[93, 0, 161]",161,l,0.21387684589717537,colour,0.5
125,23,0,2,8,12,362,515.3286593012745,515.863695046748,"[24, 0, 230]",230,a,0.011801593122072518,colour,0.5
125,23,0,2,8,13,363,516.37544504588,517.1276769707911,"[9, 0, 245]",245,a,0.22883156943134964,colour,0.5
125,23,0,2,8,14,364,517.641042132047,518.2396694214549,"[41, 0, 213]",213,a,0.07529546320438385,colour,0.5
125,23,0,2,8,15,365,518.7504336243728,519.4237163773505,"[51, 0, 203]",203,a,0.1499020898481831,colour,0.5
125,23,0,2,8,16,366,519.937883408973,520.7437110684114,"[94, 0, 160]",160,l,0.2825903561897576,colour,0.5
125,23,0,2,8,17,367,521.2504174767528,522.0076729062712,"[37, 0, 217]",217,a,0.2338495603762567,colour,0.5
125,23,0,2,8,18,368,522.5160988458665,523.1597029457334,"[63, 0, 191]",191,a,0.12033686437644064,colour,0.5
125,23,0,2,8,19,369,523.6723008952104,524.4476893848041,"[76, 0, 178]",178,l,0.25225122331175953,colour,0.5
125,23,0,2,8,20,370,524.9536021936219,525.6717085508863,"[92, 0, 162]",162,l,0.1947556264931336,colour,0.5
125,23,0,2,8,21,371,526.1878357536625,526.8316706471378,"[36, 0, 218]",218,a,0.12046250107232481,colour,0.5
125,23,0,2,8,22,372,527.3441177536733,528.0716642038897,"[12, 0, 242]",242,a,0.20409371331334114,colour,0.5
125,23,0,2,8,23,373,528.5785179105587,529.3356811801204,"[46, 0, 208]",208,a,0.23380584339611232,colour,0.5
125,23,0,2,8,24,374,529.8441740736598,530.5116838330869,"[6, 0, 248]",248,a,0.14414091175422072,colour,0.5
125,23,0,2,8,25,375,531.0316467012744,531.8476517330855,"[35, 0, 219]",219,a,0.2931154945399612,colour,0.5
125,23,0,2,8,26,376,532.3597719474928,533.0157719537383,"[2, 0, 252]",252,a,0.1326465185265988,colour,0.5
125,23,0,2,8,27,377,533.5316285843728,534.2956392591586,"[82, 0, 172]",172,l,0.24080566689372063,colour,0.5
125,23,0,2,8,28,378,534.8128479629522,535.5836698090425,"[99, 0, 155]",155,l,0.24747505376581103,colour,0.5
125,23,0,2,8,29,379,536.0941071198322,536.6797091369517,"[19, 0, 235]",235,a,0.062278855475597084,colour,0.5
125,23,0,2,8,30,380,537.1878050336381,537.7596929420251,"[15, 0, 239]",239,a,0.04837294376920909,colour,0.5
125,23,0,2,8,31,381,538.2659550921526,539.0316805720795,"[27, 0, 227]",227,a,0.24235033069271594,colour,0.5
125,23,0,2,8,32,382,539.5472437874414,540.2556737443665,"[11, 0, 243]",243,a,0.18519383517559618,colour,0.5
125,23,0,2,8,33,383,540.7660555228358,541.4558329369174,"[16, 0, 238]",238,a,0.16647118784021586,colour,0.5
125,23,0,2,8,34,384,541.9690988491056,542.7117205396062,"[91, 0, 163]",163,l,0.21923630125820637,colour,0.5
125,23,0,2,8,35,385,543.2191622582031,543.8716373435454,"[13, 0, 241]",241,a,0.1290893021505326,colour,0.5
125,23,0,2,8,36,386,544.3909417013638,545.0397347211838,"[30, 0, 224]",224,a,0.12540211668238044,colour,0.5
125,23,0,2,8,37,387,545.5472335475497,546.2396985661471,"[56, 0, 198]",198,a,0.16919226932805032,colour,0.5
125,23,0,2,8,38,388,546.7503182275686,547.4077498638071,"[58, 0, 196]",196,a,0.13405688083730638,colour,0.5
125,23,0,2,8,39,389,547.9222016460262,548.5677064461634,"[31, 0, 223]",223,a,0.12229546008165926,colour,0.5
125,23,0,2,8,40,390,549.0784446551697,549.7036411843728,"[47, 0, 207]",207,a,0.10172528144903481,colour,0.5
125,23,0,2,8,41,391,550.2191244490677,550.8076917320723,"[52, 0, 202]",202,a,0.06523781991563737,colour,0.5
125,23,0,2,8,42,392,551.3284623782383,551.8636981975287,"[81, 0, 173]",173,l,0.012033962178975344,colour,0.5
125,23,0,2,8,43,393,552.3753769105533,552.9516365085728,"[43, 0, 211]",211,a,0.05292186408769339,colour,0.5
125,23,0,2,8,44,394,553.4691279936815,554.0236788045149,"[39, 0, 215]",215,a,0.031036633998155594,colour,0.5
125,23,0,2,8,45,395,554.5318723750534,555.5756475614617,"[66, 0, 188]",188,a,0.521338178194128,colour,0.5
125,23,0,2,8,46,396,556.0940968798241,556.7197132486617,"[54, 0, 200]",200,a,0.10214945347979665,colour,0.5
125,23,0,2,8,47,397,557.2346518244594,557.8796855849214,"[87, 0, 167]",167,l,0.12172517110593617,colour,0.5
125,23,0,2,8,48,398,558.3912894673413,559.1596883733291,"[85, 0, 169]",169,l,0.2457724577980116,colour,0.5
125,23,0,2,8,49,399,559.6721878614044,560.4876556872623,"[45, 0, 209]",209,a,0.29221595043782145,colour,0.5
125,23,0,2,8,50,400,561.000291445991,561.6796650261385,"[89, 0, 165]",165,l,0.15604844933841377,colour,0.5
125,23,0,2,9,1,401,566.2494675203925,567.9996479017427,"[42, 0, 212]",212,a,1.2260447156149894,colour,0.5
125,23,0,2,9,2,402,568.5159562736517,569.1356287199305,"[55, 0, 199]",199,a,0.09628311858978122,colour,0.5
125,23,0,2,9,3,403,569.6565482398728,570.191682052915,"[93, 0, 161]",161,l,0.011826011468656361,colour,0.5
125,23,0,2,9,4,404,570.7035817136057,571.2716485287528,"[5, 0, 249]",249,a,0.04488228727132082,colour,0.5
125,23,0,2,9,5,405,571.7815123999026,572.4236667527584,"[31, 0, 223]",223,a,0.11919943720567971,colour,0.5
125,23,0,2,9,6,406,572.9379086152185,573.5436873588478,"[40, 0, 214]",214,a,0.08272103418130428,colour,0.5
125,23,0,2,9,7,407,574.0628585967934,574.7916102154413,"[73, 0, 181]",181,l,0.20595857372973114,colour,0.5
125,23,0,2,9,8,408,575.3127187814098,575.871670820401,"[11, 0, 243]",243,a,0.035599338938482106,colour,0.5
125,23,0,2,9,9,409,576.3908708090894,576.9916418018984,"[86, 0, 168]",168,l,0.07741120352875441,colour,0.5
125,23,0,2,9,10,410,577.5001977107022,578.4076592791826,"[27, 0, 227]",227,a,0.38412540999706835,colour,0.5
125,23,0,2,9,11,411,578.9221110614017,579.6316382730147,"[53, 0, 201]",201,a,0.18623910227324814,colour,0.5
125,23,0,2,9,12,412,580.1408314245054,580.7116236534202,"[75, 0, 179]",179,a,0.04741629189811647,colour,0.5
125,23,0,2,9,13,413,581.218917679973,581.7836375924526,"[94, 0, 160]",160,l,0.041368787875398993,colour,0.5
125,23,0,2,9,14,414,582.2971051537897,583.031648670556,"[89, 0, 165]",165,l,0.21122862596530467,colour,0.5
125,23,0,2,9,15,415,583.5472083414206,584.2396316123195,"[34, 0, 220]",220,a,0.16921747545711696,colour,0.5
125,23,0,2,9,16,416,584.7502658460289,585.479649587418,"[85, 0, 169]",169,l,0.20611926284618676,colour,0.5
125,23,0,2,9,17,417,586.0001697476255,586.7838435738813,"[84, 0, 170]",170,l,0.2599698156118393,colour,0.5
125,23,0,2,9,18,418,587.2971433567582,587.9276615319541,"[10, 0, 244]",244,a,0.10728717350866646,colour,0.5
125,23,0,2,9,19,419,588.4376671876526,589.0956269712187,"[7, 0, 247]",247,a,0.1345239820657298,colour,0.5
125,23,0,2,9,20,420,589.6095734491246,590.2236383170821,"[8, 0, 246]",246,a,0.09073225408792496,colour,0.5
125,23,0,2,9,21,421,590.7345214615343,591.3436612862861,"[52, 0, 202]",202,a,0.0862837644526735,colour,0.5
125,23,0,2,9,22,422,591.859595504473,592.5276267160662,"[2, 0, 252]",252,a,0.14497468364425004,colour,0.5
125,23,0,2,9,23,423,593.0470378061291,593.6236498962389,"[81, 0, 173]",173,l,0.05330547003541142,colour,0.5
125,23,0,2,9,24,424,594.140814882936,594.8396436639596,"[35, 0, 219]",219,a,0.17539140407461673,colour,0.5
125,23,0,2,9,25,425,595.3595112215262,596.0476297565037,"[44, 0, 210]",210,a,0.16468115814495832,colour,0.5
125,23,0,2,9,26,426,596.562748319935,597.2316251185257,"[67, 0, 187]",187,l,0.14556230162270367,colour,0.5
125,23,0,2,9,27,427,597.7501193353673,598.3196965496754,"[13, 0, 241]",241,a,0.04626586812082678,colour,0.5
125,23,0,2,9,28,428,598.828513578279,600.1517374119721,"[97, 0, 157]",157,l,0.8001015335321426,colour,0.5
125,23,0,2,9,29,429,600.6720823106589,601.3836165610701,"[38, 0, 216]",216,a,0.188472208683379,colour,0.5
125,23,0,2,9,30,430,601.8907770738006,602.4796235936228,"[47, 0, 207]",207,a,0.06626103166490793,colour,0.5
125,23,0,2,9,31,431,603.0001201230334,603.5996532581048,"[87, 0, 167]",167,l,0.07644470559898764,colour,0.5
125,23,0,2,9,32,432,604.1095037384657,604.6796350938966,"[28, 0, 226]",226,a,0.046781412325799465,colour,0.5
125,23,0,2,9,33,433,605.1875683323015,605.807631473639,"[36, 0, 218]",218,a,0.09665884752757847,colour,0.5
125,23,0,2,9,34,434,606.3282607292058,607.0156675846083,"[61, 0, 193]",193,a,0.16410653688944876,colour,0.5
125,23,0,2,9,35,435,607.5313733723015,608.1116584694246,"[88, 0, 166]",166,l,0.057129713939502835,colour,0.5
125,23,0,2,9,36,436,608.6251319383737,610.2316637154436,"[57, 0, 197]",197,a,1.0831365416524932,colour,0.5
125,23,0,2,9,37,437,610.7500480492599,611.4876529304311,"[21, 0, 233]",233,a,0.21414623665623367,colour,0.5
125,23,0,2,9,38,438,612.0001484799432,614.135627538315,"[82, 0, 172]",172,l,1.6121763767441735,colour,0.5
125,23,0,2,9,39,439,614.6564422952943,615.4236183097819,"[99, 0, 155]",155,l,0.2438918435946107,colour,0.5
125,23,0,2,9,40,440,615.9375695138006,616.6876360737951,"[17, 0, 237]",237,a,0.22660909686237574,colour,0.5
125,23,0,2,9,41,441,617.2033056275686,617.935629034997,"[16, 0, 238]",238,a,0.2089529843069613,colour,0.5
125,23,0,2,9,42,442,618.4533489507157,619.0556138009997,"[30, 0, 224]",224,a,0.07883810729254037,colour,0.5
125,23,0,2,9,43,443,619.5625966892112,620.2316026693443,"[51, 0, 203]",203,a,0.1456587939755991,colour,0.5
125,23,0,2,9,44,444,620.7500992491841,621.7756539417896,"[48, 0, 206]",206,a,0.502501709270291,colour,0.5
125,23,0,2,9,45,445,622.2970252030063,622.9995833110297,"[92, 0, 162]",162,l,0.1792802386917174,colour,0.5
125,23,0,2,9,46,446,623.5157542306697,624.1356369906571,"[22, 0, 232]",232,a,0.0964847676223144,colour,0.5
125,23,0,2,9,47,447,624.6563942461507,625.4316429203609,"[58, 0, 196]",196,a,0.2519361465238035,colour,0.5
125,23,0,2,9,48,448,625.9531776276417,626.5516225664178,"[70, 0, 184]",184,a,0.07506191253196448,colour,0.5
125,23,0,2,9,49,449,627.0634280979866,627.8316288994392,"[20, 0, 234]",234,a,0.24576339940540493,colour,0.5
125,23,0,2,9,50,450,628.3437983446056,629.1916249452624,"[72, 0, 182]",182,a,0.3244380606338382,colour,0.5
125,23,0,2,10,1,451,636.7024060835829,637.9036542599788,"[63, 0, 191]",191,a,0.6771369291236624,colour,0.5
125,23,0,2,10,2,452,638.4219747907482,638.9836762681371,"[65, 0, 189]",189,a,0.03841454966459423,colour,0.5
125,23,0,2,10,3,453,639.5001098830253,640.1196232155198,"[90, 0, 164]",164,l,0.09616890316829085,colour,0.5
125,23,0,2,10,4,454,640.6406297753565,641.6395782068139,"[15, 0, 239]",239,a,0.47556264826562256,colour,0.5
125,23,0,2,10,5,455,642.1562630954431,642.9195955675095,"[55, 0, 199]",199,a,0.23994275054428726,colour,0.5
125,23,0,2,10,6,456,643.4375088615343,644.0795840515057,"[99, 0, 155]",155,l,0.11875596677418798,colour,0.5
125,23,0,2,10,7,457,644.5937778645894,645.2315912478371,"[2, 0, 252]",252,a,0.11445832008030266,colour,0.5
125,23,0,2,10,8,458,645.750014966121,646.4955975903431,"[41, 0, 213]",213,a,0.2222114133182913,colour,0.5
125,23,0,2,10,9,459,647.0156667969422,647.5916585797677,"[44, 0, 210]",210,a,0.052780079655349255,colour,0.5
125,23,0,2,10,10,460,648.1094805015018,648.8156651427271,"[70, 0, 184]",184,l,0.18301586725283414,colour,0.5
125,23,0,2,10,11,461,649.3281354862265,650.3676567428047,"[25, 0, 229]",229,a,0.5162264519603923,colour,0.5
125,23,0,2,10,12,462,650.8750185107347,651.6235998778138,"[76, 0, 178]",178,l,0.22522433463018388,colour,0.5
125,23,0,2,10,13,463,652.1406601015478,652.7755783234024,"[3, 0, 251]",251,a,0.1116198725067079,colour,0.5
125,23,0,2,10,14,464,653.2969161076471,653.8876200048253,"[16, 0, 238]",238,a,0.06739018787629902,colour,0.5
125,23,0,2,10,15,465,654.4062481292058,654.9836065573618,"[0, 0, 254]",254,a,0.05396161729004234,colour,0.5
125,23,0,2,10,16,466,655.4999862153782,656.1516720334766,"[43, 0, 211]",211,a,0.12836423178669065,colour,0.5
125,23,0,2,10,17,467,656.6718830246245,657.2796136686811,"[56, 0, 198]",198,a,0.08438503323122859,colour,0.5
125,23,0,2,10,18,468,657.7968775108457,658.7036340951454,"[74, 0, 180]",180,l,0.3837418040493503,colour,0.5
125,23,0,2,10,19,469,659.2187459630659,659.8876097649336,"[13, 0, 241]",241,a,0.14563437551259995,colour,0.5
125,23,0,2,10,20,470,660.4062800307292,661.0796309191501,"[1, 0, 253]",253,a,0.15008798521012068,colour,0.5
125,23,0,2,10,21,471,661.5936943693087,662.1435627460014,"[42, 0, 212]",212,a,0.026404218282550573,colour,0.5
125,23,0,2,10,22,472,662.6561981107807,663.3195941497106,"[72, 0, 182]",182,l,0.1400350680341944,colour,0.5
125,23,0,2,10,23,473,663.8281059477013,664.783684066264,"[83, 0, 171]",171,l,0.4323888645740226,colour,0.5
125,23,0,2,10,24,474,665.296841276926,665.8315954225836,"[75, 0, 179]",179,l,0.01144910091534257,colour,0.5
125,23,0,2,10,25,475,666.3438979876228,666.9356026472524,"[38, 0, 216]",216,a,0.06856581789907068,colour,0.5
125,23,0,2,10,26,476,667.4531138245948,668.0395850597415,"[64, 0, 190]",190,a,0.06309293501544744,colour,0.5
125,23,0,2,10,27,477,668.5468326123664,669.0956045220373,"[36, 0, 218]",218,a,0.025479468051344156,colour,0.5
125,23,0,2,10,28,478,669.6093040584819,670.1996137159877,"[22, 0, 232]",232,a,0.06696759129408747,colour,0.5
125,23,0,2,10,29,479,670.7187089415966,671.4716068598209,"[73, 0, 181]",181,l,0.22954167355783284,colour,0.5
125,23,0,2,10,30,480,671.9842953939224,672.7115937211784,"[87, 0, 167]",167,l,0.203991707181558,colour,0.5
125,23,0,2,10,31,481,673.21870067087,673.855612540734,"[51, 0, 203]",203,a,0.11360997601877898,colour,0.5
125,23,0,2,10,32,482,674.3749153231038,675.0555752040818,"[5, 0, 249]",249,a,0.1572981224162504,colour,0.5
125,23,0,2,10,33,483,675.562398584676,676.1755930532236,"[31, 0, 223]",223,a,0.08988784847315401,colour,0.5
125,23,0,2,10,34,484,676.6875832984224,677.4555726047838,"[50, 0, 204]",204,a,0.2449816153384745,colour,0.5
125,23,0,2,10,35,485,677.9687294216128,678.7275913486956,"[92, 0, 162]",162,l,0.23556318401824683,colour,0.5
125,23,0,2,10,36,486,679.2345261876471,679.8636477851542,"[81, 0, 173]",173,l,0.10590989433694631,colour,0.5
125,23,0,2,10,37,487,680.3749803077662,681.10361652961,"[93, 0, 161]",161,l,0.20530203264206648,colour,0.5
125,23,0,2,10,38,488,681.6249042954296,682.3116254651686,"[27, 0, 227]",227,a,0.163340900442563,colour,0.5
125,23,0,2,10,39,489,682.8279775539413,684.3915990302339,"[66, 0, 188]",188,a,1.0401959146838635,colour,0.5
125,23,0,2,10,40,490,684.906188264722,685.6555990711786,"[57, 0, 197]",197,a,0.2261959525058046,colour,0.5
125,23,0,2,10,41,491,686.1717629015911,687.1755737547064,"[11, 0, 243]",243,a,0.4803951376816258,colour,0.5
125,23,0,2,10,42,492,687.6873737723799,688.4716005583759,"[10, 0, 244]",244,a,0.2608441535849124,colour,0.5
125,23,0,2,10,43,493,688.9842784585198,689.7275783517398,"[71, 0, 183]",183,l,0.21997673157602549,colour,0.5
125,23,0,2,10,44,494,690.2342016586335,690.7755814741831,"[4, 0, 250]",250,a,0.01800466631539166,colour,0.5
125,23,0,2,10,45,495,691.2968192215776,691.9355790165719,"[53, 0, 201]",201,a,0.11540788260754198,colour,0.5
125,23,0,2,10,46,496,692.4530283600325,693.1836038792972,"[48, 0, 206]",206,a,0.20716689305845648,colour,0.5
125,23,0,2,10,47,497,693.7030090616317,694.2636432165746,"[7, 0, 247]",247,a,0.03787931299302727,colour,0.5
125,23,0,2,10,48,498,694.7810319078853,695.399608674692,"[77, 0, 177]",177,a,0.09531425754539669,colour,0.5
125,23,0,2,10,49,499,695.9060941354837,697.3435707016615,"[46, 0, 208]",208,a,0.9140907831024379,colour,0.5
125,23,0,2,10,50,500,697.8592170185875,698.7036569381598,"[29, 0, 225]",225,a,0.32101278263144195,colour,0.5
125,23,0,2,11,1,501,707.202228852897,708.1596036965493,"[57, 0, 197]",197,a,0.4333348824875429,colour,0.5
125,23,0,2,11,2,502,708.6717298185686,709.2555933997501,"[2, 0, 252]",252,a,0.0605553857749328,colour,0.5
125,23,0,2,11,3,503,709.7654139478691,710.399559837766,"[15, 0, 239]",239,a,0.11093418672680855,colour,0.5
125,23,0,2,11,4,504,710.9060823201435,711.671598667861,"[94, 0, 160]",160,l,0.24226171534974128,colour,0.5
125,23,0,2,11,5,505,712.1873209970072,712.7755499664927,"[61, 0, 193]",193,l,0.06485539558343589,colour,0.5
125,23,0,2,11,6,506,713.2966813754756,713.9275638582185,"[91, 0, 163]",163,l,0.10753293335437775,colour,0.5
125,23,0,2,11,7,507,714.437270190916,715.0475887964712,"[49, 0, 205]",205,a,0.08693518547806889,colour,0.5
125,23,0,2,11,8,508,715.562399372342,716.1915950130206,"[90, 0, 164]",164,l,0.10590989433694631,colour,0.5
125,23,0,2,11,9,509,716.7029381693574,717.3435789723881,"[55, 0, 199]",199,a,0.11728731531184167,colour,0.5
125,23,0,2,11,10,510,717.859176058555,718.6555746527156,"[29, 0, 225]",225,a,0.2730573156150058,colour,0.5
125,23,0,2,11,11,511,719.1716049694223,719.9115642615361,"[86, 0, 168]",168,l,0.21654278901405632,colour,0.5
125,23,0,2,11,12,512,720.4216668031877,721.2315601339797,"[22, 0, 232]",232,a,0.2864870677003637,colour,0.5
125,23,0,2,11,13,513,721.7498771201354,722.4955113381147,"[95, 0, 159]",159,l,0.2223717087181285,colour,0.5
125,23,0,2,11,14,514,723.0154872031417,723.6475472851889,"[17, 0, 237]",237,a,0.10897401568945497,colour,0.5
125,23,0,2,11,15,515,724.1559629847761,724.8235916857375,"[36, 0, 218]",218,a,0.14464779139962047,colour,0.5
125,23,0,2,11,16,516,725.3435691263294,725.9995943387039,"[12, 0, 242]",242,a,0.13282689999323338,colour,0.5
125,23,0,2,11,17,517,726.5154883847572,727.1596044842154,"[58, 0, 196]",196,a,0.12109738076105714,colour,0.5
125,23,0,2,11,18,518,727.6715202925261,728.2395363015821,"[71, 0, 183]",183,a,0.04451758600771427,colour,0.5
125,23,0,2,11,19,519,728.7497349417536,729.5115644978359,"[9, 0, 245]",245,a,0.23843510844744742,colour,0.5
125,23,0,2,11,20,520,730.0310642032418,730.7675860080635,"[93, 0, 161]",161,l,0.21337311703246087,colour,0.5
125,23,0,2,11,21,521,731.2809751940658,732.1275824477198,"[81, 0, 173]",173,l,0.3233549844007939,colour,0.5
125,23,0,2,11,22,522,732.640419461648,733.2715819687583,"[59, 0, 195]",195,a,0.10791063157375902,colour,0.5
125,23,0,2,11,23,523,733.7811559693655,735.1036295264494,"[41, 0, 213]",213,a,0.7993847338948399,colour,0.5
125,23,0,2,11,24,524,735.6246983140009,736.303638663725,"[60, 0, 194]",194,a,0.15556913882028311,colour,0.5
125,23,0,2,11,25,525,736.8123174523935,737.7115582750412,"[11, 0, 243]",243,a,0.3760566886048764,colour,0.5
125,23,0,2,11,26,526,738.2184710586444,738.9515545886243,"[48, 0, 206]",206,a,0.209736343822442,colour,0.5
125,23,0,2,11,27,527,739.4686301724287,740.1195657140343,"[35, 0, 219]",219,a,0.12823032424785197,colour,0.5
125,23,0,2,11,28,528,740.6404454555595,741.3755458705127,"[63, 0, 191]",191,a,0.2118883179500699,colour,0.5
125,23,0,2,11,29,529,741.890275314101,742.6235837300774,"[28, 0, 226]",226,a,0.20991475600749254,colour,0.5
125,23,0,2,11,30,530,743.1403462063754,743.7835387371015,"[56, 0, 198]",198,a,0.1198670060839504,colour,0.5
125,23,0,2,11,31,531,744.2965797632933,744.8555507068522,"[70, 0, 184]",184,a,0.03558949276339263,colour,0.5
125,23,0,2,11,32,532,745.3746703510405,746.0875586436596,"[89, 0, 165]",165,l,0.18940089736133814,colour,0.5
125,23,0,2,11,33,533,746.5935297417454,747.2155333618866,"[8, 0, 246]",246,a,0.09878758469130844,colour,0.5
125,23,0,2,11,34,534,747.7340701140929,748.4635704339016,"[43, 0, 211]",211,a,0.2061617982108146,colour,0.5
125,23,0,2,11,35,535,748.9840527848573,749.6315484761726,"[84, 0, 170]",170,l,0.1240606774808839,colour,0.5
125,23,0,2,11,36,536,750.140324151027,750.9195439737523,"[79, 0, 175]",175,l,0.25624797178898007,colour,0.5
125,23,0,2,11,37,537,751.4371697602328,752.0955285097007,"[96, 0, 158]",158,l,0.1349572124890983,colour,0.5
125,23,0,2,11,38,538,752.609047270962,753.2635400289437,"[0, 0, 254]",254,a,0.13107349793426692,colour,0.5
125,23,0,2,11,39,539,753.7809330525342,754.3435344678583,"[1, 0, 253]",253,a,0.03941216133534908,colour,0.5
125,23,0,2,11,40,540,754.8598215720849,755.3995629885467,"[24, 0, 230]",230,a,0.017088186810724437,colour,0.5
125,23,0,2,11,41,541,755.9059275386389,756.5435156420572,"[72, 0, 182]",182,a,0.1142641541082412,colour,0.5
125,23,0,2,11,42,542,757.0621957540279,757.695593730663,"[98, 0, 156]",156,a,0.11010041495319456,colour,0.5
125,23,0,2,11,43,543,758.2027845694683,759.1275556662586,"[46, 0, 208]",208,a,0.40146447671577334,colour,0.5
125,23,0,2,11,44,544,759.6403170617996,760.3755454766797,"[88, 0, 166]",166,l,0.21191903797443956,colour,0.5
125,23,0,2,11,45,545,760.8903355725342,761.4475444494747,"[16, 0, 238]",238,a,0.03390028770081699,colour,0.5
125,23,0,2,11,46,546,761.9684293109458,762.559523115633,"[14, 0, 240]",240,a,0.06770683999639004,colour,0.5
125,23,0,2,11,47,547,763.0777959909756,763.6955224445555,"[23, 0, 231]",231,a,0.0943008919712156,colour,0.5
125,23,0,2,11,48,548,764.2027613325045,764.9435536087258,"[19, 0, 235]",235,a,0.21744036383461207,colour,0.5
125,23,0,2,11,49,549,765.4528633386362,766.1195326308953,"[97, 0, 157]",157,l,0.143346524448134,colour,0.5
125,23,0,2,11,50,550,766.6402442002436,767.2955884530675,"[27, 0, 227]",227,a,0.13204038969706744,colour,0.5
125,23,0,2,12,1,551,782.2644293330377,783.9115485076327,"[7, 0, 247]",247,a,1.1232568379491568,colour,0.5
125,23,0,2,12,2,552,784.4214525510324,785.0795178853441,"[94, 0, 160]",160,l,0.13474808039609343,colour,0.5
125,23,0,2,12,3,553,785.5934659386985,786.23961507075,"[41, 0, 213]",213,a,0.1229527888353914,colour,0.5
125,23,0,2,12,4,554,786.7495561356191,787.4635086000198,"[95, 0, 159]",159,l,0.1905087858904153,colour,0.5
125,23,0,2,12,5,555,787.9839952833718,788.5595487155952,"[47, 0, 207]",207,a,0.052225938299670815,colour,0.5
125,23,0,2,12,6,556,789.0776888648979,789.7834887186764,"[58, 0, 196]",196,a,0.1825046552112326,colour,0.5
125,23,0,2,12,7,557,790.2964639725396,791.231541229412,"[57, 0, 197]",197,a,0.41180883976630867,colour,0.5
125,23,0,2,12,8,558,791.7495651941281,792.3754836427979,"[59, 0, 195]",195,a,0.10267248086165637,colour,0.5
125,23,0,2,12,9,559,792.8901540095685,793.5995681873756,"[92, 0, 162]",162,l,0.1860807762714103,colour,0.5
125,23,0,2,12,10,560,794.1089511725586,794.679527573986,"[8, 0, 246]",246,a,0.04724654438905418,colour,0.5
125,23,0,2,12,11,561,795.1871528248303,795.9755366544705,"[38, 0, 216]",216,a,0.2650925695197657,colour,0.5
125,23,0,2,12,12,562,796.4839409325505,797.2715221042745,"[17, 0, 237]",237,a,0.26430527155753225,colour,0.5
125,23,0,2,12,13,563,797.7808204125613,798.6875785723096,"[73, 0, 181]",181,a,0.3835866288281977,colour,0.5
125,23,0,2,12,14,564,799.2027581817238,799.8236653349595,"[81, 0, 173]",173,a,0.09664860751945525,colour,0.5
125,23,0,2,12,15,565,800.3433308495441,800.9675144068897,"[54, 0, 200]",200,a,0.1008584265364334,colour,0.5
125,23,0,2,12,16,566,801.4839503848925,802.0795454545878,"[90, 0, 164]",164,l,0.07228332967497408,colour,0.5
125,23,0,2,12,17,567,802.5932107265107,803.3114911636803,"[98, 0, 156]",156,l,0.1948639340698719,colour,0.5
125,23,0,2,12,18,568,803.8277258863673,804.3755147566553,"[26, 0, 228]",228,a,0.024505093228071928,colour,0.5
125,23,0,2,12,19,569,804.8901461325586,805.6235415885458,"[22, 0, 232]",232,a,0.21016563579905778,colour,0.5
125,23,0,2,12,20,570,806.1402079664404,806.7675162974047,"[15, 0, 239]",239,a,0.10408008622471243,colour,0.5
125,23,0,2,12,21,571,807.2807719695847,807.9354868566152,"[20, 0, 234]",234,a,0.13145277160219848,colour,0.5
125,23,0,2,12,22,572,808.4527203725884,809.1675010948675,"[68, 0, 186]",186,a,0.1915331791387871,colour,0.5
125,23,0,2,12,23,573,809.6870043448871,810.8154808229301,"[39, 0, 215]",215,a,0.6051182640949264,colour,0.5
125,23,0,2,12,24,574,811.3276758679422,812.3515452939318,"[4, 0, 250]",250,a,0.5005407504504547,colour,0.5
125,23,0,2,12,25,575,812.8588731910568,813.6155398209812,"[52, 0, 202]",202,a,0.23336394829675555,colour,0.5
125,23,0,2,12,26,576,814.1245021787472,814.7035415413557,"[65, 0, 189]",189,a,0.05574849632102996,colour,0.5
125,23,0,2,12,27,577,815.2183076125802,815.8795272589196,"[23, 0, 231]",231,a,0.13788348785601556,colour,0.5
125,23,0,2,12,28,578,816.3902315972373,817.0075169432675,"[0, 0, 254]",254,a,0.0939523383276537,colour,0.5
125,23,0,2,12,29,579,817.5152205694467,818.1035653295694,"[93, 0, 161]",161,l,0.06532210286241025,colour,0.5
125,23,0,2,12,30,580,818.6244348310865,819.27956286259,"[43, 0, 211]",211,a,0.13171310373581946,colour,0.5
125,23,0,2,12,31,581,819.7963611787418,820.4875572258607,"[74, 0, 180]",180,l,0.16825885442085564,colour,0.5
125,23,0,2,12,32,582,820.9994950895198,821.7355316762114,"[89, 0, 165]",165,l,0.21270436653867364,colour,0.5
125,23,0,2,12,33,583,822.2495482587256,822.9755067222286,"[5, 0, 249]",249,a,0.20265617570839822,colour,0.5
125,23,0,2,12,34,584,823.4838121449575,824.3994940655539,"[85, 0, 169]",169,l,0.3924465866293758,colour,0.5
125,23,0,2,12,35,585,824.905686111073,825.6555313296849,"[2, 0, 252]",252,a,0.2265519892098382,colour,0.5
125,23,0,2,12,36,586,826.1712300281506,827.2234961388167,"[46, 0, 208]",208,a,0.5288047092035413,colour,0.5
125,23,0,2,12,37,587,827.7338846126804,828.7434814561857,"[11, 0, 243]",243,a,0.4862016082042828,colour,0.5
125,23,0,2,12,38,588,829.2651225018781,829.9195073459996,"[87, 0, 167]",167,l,0.13122355320956558,colour,0.5
125,23,0,2,12,39,589,830.4370610587066,831.0874905083328,"[51, 0, 203]",203,a,0.12717836175579578,colour,0.5
125,23,0,2,12,40,590,831.608780243434,832.1514794428367,"[82, 0, 172]",172,l,0.019342560903169215,colour,0.5
125,23,0,2,12,41,591,832.6712312096497,833.6235648255097,"[29, 0, 225]",225,a,0.4292152541456744,colour,0.5
125,23,0,2,12,42,592,834.1401110803708,834.6720764029305,"[12, 0, 242]",242,a,0.008771736291237175,colour,0.5
125,23,0,2,12,43,593,835.1869641726371,835.8715203712927,"[71, 0, 183]",183,a,0.1613303170306608,colour,0.5
125,23,0,2,12,44,594,836.3899744157679,836.9754960883874,"[42, 0, 212]",212,a,0.06214416027069092,colour,0.5
125,23,0,2,12,45,595,837.4838227787986,838.0794851961546,"[56, 0, 198]",198,a,0.07233846804592758,colour,0.5
125,23,0,2,12,46,596,838.5931851265486,839.8955040124711,"[27, 0, 227]",227,a,0.7790236873552203,colour,0.5
125,23,0,2,12,47,597,840.4056112803519,842.3594934984576,"[31, 0, 223]",223,a,1.4305633887415752,colour,0.5
125,23,0,2,12,48,598,842.8744100187905,843.4554674478713,"[77, 0, 177]",177,l,0.05767164588905871,colour,0.5
125,23,0,2,12,49,599,843.9681292003952,844.6634736264823,"[67, 0, 187]",187,l,0.1719716398511082,colour,0.5
125,23,0,2,12,50,600,845.171252083499,845.7195025411202,"[49, 0, 205]",205,a,0.02494147454854101,colour,0.5
125,23,0,2,13,1,601,853.4517680531135,854.20748196973,"[52, 0, 202]",202,a,0.23157628159970045,colour,0.5
125,23,0,2,13,2,602,854.718142591184,855.2714961103629,"[87, 0, 167]",167,l,0.030711317202076316,colour,0.5
125,23,0,2,13,3,603,855.7806203388609,857.0074787401827,"[8, 0, 246]",246,a,0.7038030549883842,colour,0.5
125,23,0,2,13,4,604,857.5149803234963,859.1995180114172,"[9, 0, 245]",245,a,1.1614153877599165,colour,0.5
125,23,0,2,13,5,605,859.7180323143257,860.7354639347177,"[62, 0, 192]",192,a,0.4937087051803246,colour,0.5
125,23,0,2,13,6,606,861.2492867450928,862.1435024875682,"[40, 0, 214]",214,a,0.3708224763395265,colour,0.5
125,23,0,2,13,7,607,862.6556384557625,863.3435198955704,"[90, 0, 164]",164,l,0.16465398273430765,colour,0.5
125,23,0,2,13,8,608,863.858675086638,864.5034536349121,"[33, 0, 221]",221,a,0.12143293744884431,colour,0.5
125,23,0,2,13,9,609,865.0150130126858,865.7834635125473,"[78, 0, 176]",176,l,0.2454971595434472,colour,0.5
125,23,0,2,13,10,610,866.2962505080504,866.9354892197298,"[81, 0, 173]",173,l,0.11593563621863723,colour,0.5
125,23,0,2,13,11,611,867.4524403481046,868.1594721520087,"[28, 0, 226]",226,a,0.18369840225204825,colour,0.5
125,23,0,2,13,12,612,868.671228452702,869.3594871968962,"[63, 0, 191]",191,a,0.16496433329302818,colour,0.5
125,23,0,2,13,13,613,869.8743564557517,870.4554784755455,"[42, 0, 212]",212,a,0.05784296884667128,colour,0.5
125,23,0,2,13,14,614,870.968053975841,871.5115215686383,"[45, 0, 209]",209,a,0.020125920418649912,colour,0.5
125,23,0,2,13,15,615,872.0305514158681,872.8554928115336,"[75, 0, 179]",179,a,0.301673372508958,colour,0.5
125,23,0,2,13,16,616,873.374346609693,873.9514899979113,"[36, 0, 218]",218,a,0.05377650971058756,colour,0.5
125,23,0,2,13,17,617,874.4679511820432,875.1754654471297,"[6, 0, 248]",248,a,0.18411036510951817,colour,0.5
125,23,0,2,13,18,618,875.6868582280586,876.6874604185577,"[13, 0, 241]",241,a,0.4775771702406928,colour,0.5
125,23,0,2,13,19,619,877.2024096281966,878.375469464343,"[66, 0, 188]",188,a,0.6497492776252329,colour,0.5
125,23,0,2,13,20,620,878.8899062804412,879.7595543082571,"[61, 0, 193]",193,a,0.34635204158257693,colour,0.5
125,23,0,2,13,21,621,880.2806128558004,881.1114930541953,"[71, 0, 183]",183,a,0.30763147363904864,colour,0.5
125,23,0,2,13,22,622,881.6243560619187,882.3594635660993,"[94, 0, 160]",160,l,0.21180442871991545,colour,0.5
125,23,0,2,13,23,623,882.874272960471,883.5515213480685,"[15, 0, 239]",239,a,0.15390277677215636,colour,0.5
125,23,0,2,13,24,624,884.061850351165,884.6074419550132,"[67, 0, 187]",187,a,0.022253869916312397,colour,0.5
125,23,0,2,13,25,625,885.124233575887,885.8394699778873,"[23, 0, 231]",231,a,0.19187818816863,colour,0.5
125,23,0,2,13,26,626,886.3586219174322,887.3195323158288,"[21, 0, 233]",233,a,0.43751240614801645,colour,0.5
125,23,0,2,13,27,627,887.8273458251497,888.623447853257,"[22, 0, 232]",232,a,0.27278004807885736,colour,0.5
125,23,0,2,13,28,628,889.139854686684,889.9035404385068,"[25, 0, 229]",229,a,0.2403495933394879,colour,0.5
125,23,0,2,13,29,629,890.4211260527372,891.5194839516189,"[53, 0, 201]",201,a,0.5749985034344718,colour,0.5
125,23,0,2,13,30,630,892.0314399321796,893.2954860531026,"[4, 0, 250]",250,a,0.7415787865174934,colour,0.5
125,23,0,2,13,31,631,893.811859015841,894.5755077461945,"[77, 0, 177]",177,l,0.24030784575734288,colour,0.5
125,23,0,2,13,32,632,895.0930787881371,895.7674686419778,"[74, 0, 180]",180,l,0.15102494461461902,colour,0.5
125,23,0,2,13,33,633,896.280508092721,897.087452699081,"[50, 0, 204]",204,a,0.28358363546431065,colour,0.5
125,23,0,2,13,34,634,897.6086963543203,898.2475301922532,"[83, 0, 171]",171,a,0.11546971637289971,colour,0.5
125,23,0,2,13,35,635,898.7649665388744,899.4874831828056,"[31, 0, 223]",223,a,0.19935692835133523,colour,0.5
125,23,0,2,13,36,636,899.9992922588717,900.8154422260122,"[51, 0, 203]",203,a,0.2926613902673125,colour,0.5
125,23,0,2,13,37,637,901.327391905128,902.0794757438125,"[17, 0, 237]",237,a,0.22867600026074797,colour,0.5
125,23,0,2,13,38,638,902.5930425543338,903.1994750822196,"[95, 0, 159]",159,l,0.08305422787088901,colour,0.5
125,23,0,2,13,39,639,903.7180090773618,904.2557351842988,"[29, 0, 225]",225,a,0.014336779247969389,colour,0.5
125,23,0,2,13,40,640,904.7649362126831,905.3834294843255,"[20, 0, 234]",234,a,0.09530677448492497,colour,0.5
125,23,0,2,13,41,641,905.8899523604196,906.5034875056008,"[54, 0, 200]",200,a,0.09022734360769391,colour,0.5
125,23,0,2,13,42,642,907.0150346742012,907.6154263933422,"[93, 0, 161]",161,l,0.07730328966863453,colour,0.5
125,23,0,2,13,43,643,908.1242847758112,908.7675229927991,"[92, 0, 162]",162,l,0.11991623684298247,colour,0.5
125,23,0,2,13,44,644,909.2804954897147,909.911425233935,"[11, 0, 243]",243,a,0.1075104841729626,colour,0.5
125,23,0,2,13,45,645,910.4210736713139,911.0074243894778,"[5, 0, 249]",249,a,0.06290231365710497,colour,0.5
125,23,0,2,13,46,646,911.5149318804033,912.2074626713293,"[48, 0, 206]",206,a,0.1694159738253802,colour,0.5
125,23,0,2,13,47,647,912.7180433419999,913.4954735288629,"[96, 0, 158]",158,l,0.2541613760404289,colour,0.5
125,23,0,2,13,48,648,914.0149555112002,914.5914809552487,"[26, 0, 228]",228,a,0.05339172238018364,colour,0.5
125,23,0,2,13,49,649,915.1086447604466,915.6954444630537,"[89, 0, 165]",165,l,0.06335444876458496,colour,0.5
125,23,0,2,13,50,650,916.2023694558302,916.7754696218763,"[47, 0, 207]",207,a,0.049745102878659964,colour,0.5
125,23,0,2,14,1,651,933.5296688071685,935.319453546661,"[61, 0, 193]",193,a,1.2656758553348482,colour,0.5
125,23,0,2,14,2,652,935.8274293204304,936.3834231827641,"[20, 0, 234]",234,a,0.03277979604899883,colour,0.5
125,23,0,2,14,3,653,936.8898735912517,938.3754777350696,"[64, 0, 190]",190,a,0.962350299116224,colour,0.5
125,23,0,2,14,4,654,938.889805849758,940.1354124984937,"[67, 0, 187]",187,a,0.7222515856847167,colour,0.5
125,23,0,2,14,5,655,940.6553812744096,941.4234398975968,"[77, 0, 177]",177,a,0.24462242785375565,colour,0.5
125,23,0,2,14,6,656,941.9366538220784,942.5674260278465,"[65, 0, 189]",189,a,0.1073655488435179,colour,0.5
125,23,0,2,14,7,657,943.0773796958383,943.7194544918602,"[41, 0, 213]",213,a,0.11878983746282756,colour,0.5
125,23,0,2,14,8,658,944.2335608713329,944.8794374619611,"[96, 0, 158]",158,l,0.12254082597792149,colour,0.5
125,23,0,2,14,9,659,945.3897648897255,946.0234491922893,"[83, 0, 171]",171,l,0.1102741010254249,colour,0.5
125,23,0,2,14,10,660,946.5304671328049,947.1354373107897,"[62, 0, 192]",192,a,0.08166198257822543,colour,0.5
125,23,0,2,14,11,661,947.6553966343636,948.2554319229675,"[22, 0, 232]",232,a,0.0765837332000956,colour,0.5
125,23,0,2,14,12,662,948.7648479912896,949.3674212229671,"[85, 0, 169]",169,l,0.07927645777817816,colour,0.5
125,23,0,2,14,13,663,949.8741965543013,950.8394227164099,"[86, 0, 168]",168,l,0.441823837463744,colour,0.5
125,23,0,2,14,14,664,951.3585006128997,951.9274606705876,"[38, 0, 216]",216,a,0.04559160384815186,colour,0.5
125,23,0,2,14,15,665,952.4366187697742,953.0634340055985,"[54, 0, 200]",200,a,0.10343339119572192,colour,0.5
125,23,0,2,14,16,666,953.5773115605116,954.1994384544669,"[7, 0, 247]",247,a,0.09879034163895994,colour,0.5
125,23,0,2,14,17,667,954.7179373974213,955.3994097824907,"[75, 0, 179]",179,a,0.15818742651026696,colour,0.5
125,23,0,2,14,18,668,955.9053462221054,956.5354071421316,"[98, 0, 156]",156,l,0.10650814627297223,colour,0.5
125,23,0,2,14,19,669,957.0459570928942,957.7113877397496,"[90, 0, 164]",164,l,0.14201099297497422,colour,0.5
125,23,0,2,14,20,670,958.2179212498013,958.8553939561825,"[73, 0, 181]",181,l,0.11420035094488412,colour,0.5
125,23,0,2,14,21,671,959.374143779045,959.9034270108677,"[27, 0, 227]",227,a,0.005944710224866867,colour,0.5
125,23,0,2,14,22,672,960.4210287728347,961.5754608785501,"[51, 0, 203]",203,a,0.6311113071860746,colour,0.5
125,23,0,2,14,23,673,962.0928535081912,962.8794280097354,"[14, 0, 240]",240,a,0.26320092764217407,colour,0.5
125,23,0,2,14,24,674,963.3897227481939,963.991392891272,"[71, 0, 183]",183,l,0.07836864294949919,colour,0.5
125,23,0,2,14,25,675,964.4991654405603,965.5433967005229,"[84, 0, 170]",170,l,0.5211369228782132,colour,0.5
125,23,0,2,14,26,676,966.0616045913193,966.663387768087,"[42, 0, 212]",212,a,0.07842575060203671,colour,0.5
125,23,0,2,14,27,677,967.1709094374673,967.8154315921711,"[47, 0, 207]",207,a,0.12109265464823693,colour,0.5
125,23,0,2,14,28,678,968.3272398805711,969.1994203375652,"[17, 0, 237]",237,a,0.3488860462093726,colour,0.5
125,23,0,2,14,29,679,969.7178164867219,970.4874524627812,"[95, 0, 159]",159,l,0.2462458605878055,colour,0.5
125,23,0,2,14,30,680,970.9990870652255,971.6074604657479,"[44, 0, 210]",210,a,0.08513452194165438,colour,0.5
125,23,0,2,14,31,681,972.1241213297471,972.7434148961911,"[11, 0, 243]",243,a,0.09604129707440734,colour,0.5
125,23,0,2,14,32,682,973.2647038436262,973.9434248211328,"[45, 0, 209]",209,a,0.15549824654590338,colour,0.5
125,23,0,2,14,33,683,974.4522253082832,975.0554030934582,"[58, 0, 196]",196,a,0.07979121443349868,colour,0.5
125,23,0,2,14,34,684,975.5615931698121,976.1674660426797,"[28, 0, 226]",226,a,0.08250166208017617,colour,0.5
125,23,0,2,14,35,685,976.6865864744177,977.5513779881876,"[0, 0, 254]",254,a,0.34178224741481245,colour,0.5
125,23,0,2,14,36,686,978.0615888375323,979.1035117665306,"[18, 0, 236]",236,a,0.5185729858931154,colour,0.5
125,23,0,2,14,37,687,979.6240508313058,980.503443394904,"[10, 0, 244]",244,a,0.3560658573405817,colour,0.5
125,23,0,2,14,38,688,981.0145195237128,983.0714570408454,"[52, 0, 202]",202,a,1.5339270691620186,colour,0.5
125,23,0,2,14,39,689,983.577155597508,984.4154448253103,"[48, 0, 206]",206,a,0.3149105339543894,colour,0.5
125,23,0,2,14,40,690,984.9364442960359,985.8554018331924,"[9, 0, 245]",245,a,0.3954815632896498,colour,0.5
125,23,0,2,14,41,691,986.3741043943446,986.9754236206645,"[92, 0, 162]",162,l,0.07833280286286026,colour,0.5
125,23,0,2,14,42,692,987.4832493391586,988.1194361386588,"[35, 0, 219]",219,a,0.11323503463063389,colour,0.5
125,23,0,2,14,43,693,988.6396392529132,989.2474041616078,"[36, 0, 218]",218,a,0.08447719318792224,colour,0.5
125,23,0,2,14,44,694,989.7646510682534,990.5354209267534,"[29, 0, 225]",225,a,0.24751680146437138,colour,0.5
125,23,0,2,14,45,695,991.045937006711,991.6553785174619,"[4, 0, 250]",250,a,0.08616797369904816,colour,0.5
125,23,0,2,14,46,696,992.170897228294,992.799404426245,"[97, 0, 157]",157,l,0.10515331639908254,colour,0.5
125,23,0,2,14,47,697,993.3115203082561,993.8633823330747,"[53, 0, 201]",201,l,0.02850105392280966,colour,0.5
125,23,0,2,14,48,698,994.3740591021487,995.0954020852223,"[46, 0, 208]",208,a,0.19804699684027582,colour,0.5
125,23,0,2,14,49,699,995.6083627667977,996.3594344215235,"[56, 0, 198]",198,a,0.22774652391672134,colour,0.5
125,23,0,2,14,50,700,996.8740110528888,997.479417218361,"[31, 0, 223]",223,a,0.08201920078136027,colour,0.5
125,23,0,2,15,1,701,1002.0919752318878,1002.6473869899055,"[45, 0, 209]",209,a,0.031233950750902295,colour,0.5
125,23,0,2,15,2,702,1003.1551307883346,1003.6794555002125,"[4, 0, 250]",250,a,0.0007987195858731866,colour,0.5
125,23,0,2,15,3,703,1004.2020051483996,1004.8154319860041,"[55, 0, 199]",199,a,0.08992132532875985,colour,0.5
125,23,0,2,15,4,704,1005.3271461451659,1005.943411036511,"[88, 0, 166]",166,l,0.09301656042225659,colour,0.5
125,23,0,2,15,5,705,1006.4520728898933,1007.0554113641847,"[66, 0, 188]",188,l,0.07988731272052974,colour,0.5
125,23,0,2,15,6,706,1007.5614832867868,1008.1593878689455,"[78, 0, 176]",176,l,0.0745152544695884,colour,0.5
125,23,0,2,15,7,707,1008.6708594190422,1009.2553846614901,"[53, 0, 201]",201,a,0.061177662340924144,colour,0.5
125,23,0,2,15,8,708,1009.764644372859,1010.4234280821402,"[90, 0, 164]",164,l,0.13559091067872941,colour,0.5
125,23,0,2,15,9,709,1010.936484862119,1012.087396379211,"[7, 0, 247]",247,a,0.6275895369471982,colour,0.5
125,23,0,2,15,10,710,1012.6083285021596,1013.4314066128572,"[58, 0, 196]",196,a,0.29974037676583976,colour,0.5
125,23,0,2,15,11,711,1013.9521170005901,1014.9034447339363,"[75, 0, 179]",179,l,0.4287446081871167,colour,0.5
125,23,0,2,15,12,712,1015.4208275175188,1016.0233684539562,"[71, 0, 183]",183,a,0.07916145480703562,colour,0.5
125,23,0,2,15,13,713,1016.530274542165,1017.1274178201566,"[99, 0, 155]",155,l,0.0737988487817347,colour,0.5
125,23,0,2,15,14,714,1017.6395758436993,1018.255375209148,"[86, 0, 168]",168,l,0.09249904693569988,colour,0.5
125,23,0,2,15,15,715,1018.7647219605278,1019.3273789081722,"[44, 0, 210]",210,a,0.03959017968736589,colour,0.5
125,23,0,2,15,16,716,1019.8426668252796,1020.4153790530981,"[40, 0, 214]",214,a,0.04931778006721288,colour,0.5
125,23,0,2,15,17,717,1020.9362749422435,1021.5354295914294,"[21, 0, 233]",233,a,0.0763718441594392,colour,0.5
125,23,0,2,15,18,718,1022.0457774990937,1022.5833665477112,"[16, 0, 238]",238,a,0.014229653170332313,colour,0.5
125,23,0,2,15,19,719,1023.0926750960061,1023.9673166963039,"[13, 0, 241]",241,a,0.3517808137694374,colour,0.5
125,23,0,2,15,20,720,1024.4833497698419,1026.0155005939305,"[23, 0, 231]",231,a,1.0087768563535064,colour,0.5
125,23,0,2,15,21,721,1026.5301981359953,1027.1114091649652,"[50, 0, 204]",204,a,0.05795560881961137,colour,0.5
125,23,0,2,15,22,722,1027.6239374037832,1028.41536881309,"[81, 0, 173]",173,l,0.2680924938758835,colour,0.5
125,23,0,2,15,23,723,1028.9364667452173,1029.4793959506787,"[43, 0, 211]",211,a,0.01959698530845344,colour,0.5
125,23,0,2,15,24,724,1029.9989393729484,1030.671406077221,"[77, 0, 177]",177,a,0.14929044723976403,colour,0.5
125,23,0,2,15,25,725,1031.1863698591478,1031.991352719022,"[28, 0, 226]",226,a,0.28158486750908196,colour,0.5
125,23,0,2,15,26,726,1032.4988909298554,1033.103365649702,"[41, 0, 213]",213,a,0.08126419817563146,colour,0.5
125,23,0,2,15,27,727,1033.623868086841,1034.2153813374462,"[64, 0, 190]",190,a,0.06817394134122878,colour,0.5
125,23,0,2,15,28,728,1034.7332257083617,1035.3033739993116,"[24, 0, 230]",230,a,0.046726273954845965,colour,0.5
125,23,0,2,15,29,729,1035.811339926906,1036.5033504472813,"[76, 0, 178]",178,a,0.16866215271875262,colour,0.5
125,23,0,2,15,30,730,1037.014554182184,1037.7033867598511,"[14, 0, 240]",240,a,0.16562717594206333,colour,0.5
125,23,0,2,15,31,731,1038.2176416191505,1038.8953358402941,"[42, 0, 212]",212,a,0.15434152109082788,colour,0.5
125,23,0,2,15,32,732,1039.405097311479,1040.0953859374858,"[1, 0, 253]",253,a,0.1668248614296317,colour,0.5
125,23,0,2,15,33,733,1040.6083151113708,1041.2315400477964,"[46, 0, 208]",208,a,0.09962056879885495,colour,0.5
125,23,0,2,15,34,734,1041.748981908313,1042.4074343931861,"[54, 0, 200]",200,a,0.13543770462274551,colour,0.5
125,23,0,2,15,35,735,1042.9208802928915,1043.5434187558712,"[72, 0, 182]",182,l,0.09925626136828214,colour,0.5
125,23,0,2,15,36,736,1044.0614068806171,1044.6954090169165,"[35, 0, 219]",219,a,0.11064431618433446,colour,0.5
125,23,0,2,15,37,737,1045.2019700960955,1046.1593394258525,"[80, 0, 174]",174,l,0.43396464199759066,colour,0.5
125,23,0,2,15,38,738,1046.6707786807092,1047.2153584943153,"[67, 0, 187]",187,l,0.02109556901268661,colour,0.5
125,23,0,2,15,39,739,1047.7332284653094,1048.367370023043,"[56, 0, 198]",198,a,0.11074159620329738,colour,0.5
125,23,0,2,15,40,740,1048.8740000252146,1049.471368976985,"[0, 0, 254]",254,a,0.07410447322763503,colour,0.5
125,23,0,2,15,41,741,1049.9831926253391,1050.5994078920921,"[33, 0, 221]",221,a,0.09271999448537827,colour,0.5
125,23,0,2,15,42,742,1051.108310779091,1052.0234019308118,"[36, 0, 218]",218,a,0.39177941158413887,colour,0.5
125,23,0,2,15,43,743,1052.530062653008,1053.1913717023563,"[32, 0, 222]",222,a,0.13788545702118427,colour,0.5
125,23,0,2,15,44,744,1053.7019838807173,1054.335352318827,"[69, 0, 185]",185,l,0.11001061811111867,colour,0.5
125,23,0,2,15,45,745,1054.8433627510676,1055.5913419276476,"[51, 0, 203]",203,a,0.22537005762569606,colour,0.5
125,23,0,2,15,46,746,1056.1082745452877,1056.7273491334636,"[52, 0, 202]",202,a,0.09572740201838315,colour,0.5
125,23,0,2,15,47,747,1057.2488960499177,1059.007346801809,"[47, 0, 207]",207,a,1.2353520825272426,colour,0.5
125,23,0,2,15,48,748,1059.5145041637588,1060.2393456801074,"[39, 0, 215]",215,a,0.2016077577136457,colour,0.5
125,23,0,2,15,49,749,1060.7489039268112,1061.4794124921318,"[59, 0, 195]",195,a,0.20736460364423692,colour,0.5
125,23,0,2,15,50,750,1061.9989602467977,1062.6473594206618,"[15, 0, 239]",239,a,0.1252036183141172,colour,0.5
125,23,0,2,16,1,751,1080.3418019396486,1080.9512938626576,"[27, 0, 227]",227,a,0.08537988807074726,colour,0.5
125,23,0,2,16,2,752,1081.4676932129078,1082.3993538564537,"[13, 0, 241]",241,a,0.4084520910400897,colour,0.5
125,23,0,2,16,3,753,1082.9206636776216,1083.6393596222624,"[3, 0, 251]",251,a,0.19530464767012745,colour,0.5
125,23,0,2,16,4,754,1084.1549700992182,1084.8153654260095,"[4, 0, 250]",250,a,0.1369071437511593,colour,0.5
125,23,0,2,16,5,755,1085.3269693084294,1086.1913039608626,"[48, 0, 206]",206,a,0.3410095216240734,colour,0.5
125,23,0,2,16,6,756,1086.7019165330566,1087.4233697929885,"[30, 0, 224]",224,a,0.19813521835021675,colour,0.5
125,23,0,2,16,7,757,1087.9362694284646,1088.9673289054772,"[36, 0, 218]",218,a,0.5077245000284165,colour,0.5
125,23,0,2,16,8,758,1089.483236736036,1090.4473813972436,"[63, 0, 191]",191,l,0.4408222872298211,colour,0.5
125,23,0,2,16,9,759,1090.967485656147,1091.727345982683,"[92, 0, 162]",162,l,0.2365214111050591,colour,0.5
125,23,0,2,16,10,760,1092.248829489923,1092.8313461181242,"[88, 0, 166]",166,l,0.0594297741772607,colour,0.5
125,23,0,2,16,11,761,1093.3425041668816,1093.935347829014,"[65, 0, 189]",189,a,0.06950750353280455,colour,0.5
125,23,0,2,16,12,762,1094.4521938005928,1095.111373718828,"[67, 0, 187]",187,a,0.13614150730427355,colour,0.5
125,23,0,2,16,13,763,1095.6237814407796,1096.2153699158225,"[91, 0, 163]",163,l,0.06823223037645221,colour,0.5
125,23,0,2,16,14,764,1096.73310755461,1097.383403490414,"[95, 0, 159]",159,l,0.12696607876569033,colour,0.5
125,23,0,2,16,15,765,1097.8894029454095,1098.4953490735497,"[8, 0, 246]",246,a,0.08267652965150774,colour,0.5
125,23,0,2,16,16,766,1099.0143513515359,1099.7113570197253,"[1, 0, 253]",253,a,0.1737108634551987,colour,0.5
125,23,0,2,16,17,767,1100.2174848684808,1100.8873525834642,"[42, 0, 212]",212,a,0.14652052882593125,colour,0.5
125,23,0,2,16,18,768,1101.404983490007,1102.1433744876413,"[31, 0, 223]",223,a,0.2150335714686662,colour,0.5
125,23,0,2,16,19,769,1102.6549693115521,1103.43935442355,"[99, 0, 155]",155,l,0.26092252891976386,colour,0.5
125,23,0,2,16,20,770,1103.9518929022597,1104.5592974419706,"[9, 0, 245]",245,a,0.08479581458959728,colour,0.5
125,23,0,2,16,21,771,1105.0768515485106,1105.903373053996,"[21, 0, 233]",233,a,0.30353783909231424,colour,0.5
125,23,0,2,16,22,772,1106.4205927853473,1107.2233484465396,"[73, 0, 181]",181,a,0.2795179641107097,colour,0.5
125,23,0,2,16,23,773,1107.7330669885268,1108.3913229441969,"[58, 0, 196]",196,a,0.1349276740802452,colour,0.5
125,23,0,2,16,24,774,1108.9049216562416,1109.5273084884975,"[70, 0, 184]",184,a,0.09937756590079516,colour,0.5
125,23,0,2,16,25,775,1110.0455931792967,1110.7193706027465,"[43, 0, 211]",211,a,0.15051609568763524,colour,0.5
125,23,0,2,16,26,776,1111.2331205515657,1111.9993560619187,"[60, 0, 194]",194,a,0.24287453957367688,colour,0.5
125,23,0,2,16,27,777,1112.5143411115278,1113.3273470066488,"[26, 0, 228]",228,a,0.2897288134554401,colour,0.5
125,23,0,2,16,28,778,1113.8424435146153,1114.4233394667972,"[33, 0, 221]",221,a,0.057636987417936325,colour,0.5
125,23,0,2,16,29,779,1114.9361642715521,1115.479328603018,"[59, 0, 195]",195,a,0.019783668336458504,colour,0.5
125,23,0,2,16,30,780,1115.9986735269194,1116.559319103486,"[49, 0, 205]",205,a,0.03754021169152111,colour,0.5
125,23,0,2,16,31,781,1117.0768558807904,1117.6473342145327,"[28, 0, 226]",226,a,0.04718274134211242,colour,0.5
125,23,0,2,16,32,782,1118.1549059023382,1118.751526940614,"[66, 0, 188]",188,l,0.07319350750185549,colour,0.5
125,23,0,2,16,33,783,1119.2643316593021,1119.9033246110193,"[87, 0, 167]",167,l,0.11574501474387944,colour,0.5
125,23,0,2,16,34,784,1120.420628625434,1120.983369856025,"[16, 0, 238]",238,a,0.0394416997442022,colour,0.5
125,23,0,2,16,35,785,1121.4987849853933,1122.1753149980213,"[96, 0, 158]",158,l,0.153484906302765,colour,0.5
125,23,0,2,16,36,786,1122.686193022295,1123.3033480054,"[80, 0, 174]",174,l,0.09375383995939046,colour,0.5
125,23,0,2,16,37,787,1123.8112233484862,1124.511412867112,"[56, 0, 198]",198,a,0.17718970449641347,colour,0.5
125,23,0,2,16,38,788,1125.0299141730648,1125.6313062609406,"[76, 0, 178]",178,a,0.07803111698012799,colour,0.5
125,23,0,2,16,39,789,1126.1392855793238,1126.8473205086775,"[10, 0, 244]",244,a,0.18475627235602587,colour,0.5
125,23,0,2,16,40,790,1127.3580110623734,1127.9193324784283,"[97, 0, 157]",157,a,0.03799904219340533,colour,0.5
125,23,0,2,16,41,791,1128.436139065423,1129.1433421922848,"[25, 0, 229]",229,a,0.18378662376198918,colour,0.5
125,23,0,2,16,42,792,1129.6548094101017,1130.3273395235883,"[98, 0, 156]",156,l,0.14903838583268225,colour,0.5
125,23,0,2,16,43,793,1130.8423931023572,1131.4953782181256,"[86, 0, 168]",168,l,0.12971000338438898,colour,0.5
125,23,0,2,16,44,794,1132.0142202008283,1132.6553221974755,"[61, 0, 193]",193,a,0.11778592423070222,colour,0.5
125,23,0,2,16,45,795,1133.1705939669628,1133.751324109966,"[53, 0, 201]",201,a,0.05744754755869508,colour,0.5
125,23,0,2,16,46,796,1134.2642375300638,1134.9753046792466,"[74, 0, 180]",180,a,0.18775619682855904,colour,0.5
125,23,0,2,16,47,797,1135.4830764407525,1136.0633631133242,"[11, 0, 243]",243,a,0.05698438477702439,colour,0.5
125,23,0,2,16,48,798,1136.5768157085404,1138.0553396842442,"[14, 0, 240]",240,a,0.9551897865021601,colour,0.5
125,23,0,2,16,49,799,1138.5768078315305,1139.41532864084,"[24, 0, 230]",230,a,0.31530201679561287,colour,0.5
125,23,0,2,16,50,800,1139.9361953854095,1140.647291285335,"[34, 0, 220]",220,a,0.1877530460478738,colour,0.5
