id,age,condition,counterbalance,block,trialinblock,trial,tstart,tend,trialstim,trialintensity,response,RT,trialtype,colourfreq
149,24,0,1,Practice,1,NA,5.9076701290905476e-06,1.4611778198741376,"[20, 0, 234]",234,l,0.8714305744506419,colour,0.5
149,24,0,1,Practice,2,NA,1.9760514110676013,3.1732398238382302,"[30, 0, 224]",224,l,0.6748872813186608,colour,0.5
149,24,0,1,Practice,3,NA,3.6841005189344287,4.813234719564207,"[13, 0, 241]",241,l,0.6116840693866834,colour,0.5
149,24,0,1,Practice,4,NA,5.326961037644651,6.477234524209052,"[74, 0, 180]",180,l,0.6252808121498674,colour,0.5
149,24,0,1,Practice,5,NA,6.9911959682940505,8.14123472274514,"[87, 0, 167]",167,l,0.6312932639848441,colour,0.5
149,24,0,1,Practice,6,NA,8.665089576330502,9.84522406681208,"[5, 0, 249]",249,l,0.6550551699474454,colour,0.5
149,24,0,1,Practice,7,NA,10.357842890138272,12.197203772724606,"[71, 0, 183]",183,l,1.2788342475541867,colour,0.5
149,24,0,1,Practice,8,NA,12.715920906281099,13.829241405474022,"[52, 0, 202]",202,l,0.5900914667290635,colour,0.5
149,24,0,1,Practice,9,NA,14.340898457099684,14.989220437128097,"[81, 0, 173]",173,l,0.12612206698395312,colour,0.5
149,24,0,1,Practice,10,NA,15.496654672781006,16.813218571885955,"[38, 0, 216]",216,l,0.7932533405837603,colour,0.5
149,24,0,1,1,1,1,4.69797807384748,6.184013085148763,"[35, 0, 219]",219,l,0.9618635055958293,colour,0.5
149,24,0,1,1,2,2,6.687690818391275,7.960074263624847,"[54, 0, 200]",200,l,0.7512122577754781,colour,0.5
149,24,0,1,1,3,3,8.471400878450368,9.592011859524064,"[28, 0, 226]",226,l,0.6025432994356379,colour,0.5
149,24,0,1,1,4,4,10.112955797929317,11.12811650277581,"[51, 0, 203]",203,l,0.48326588061172515,colour,0.5
149,24,0,1,1,5,5,11.642661232675891,12.752035001874901,"[63, 0, 191]",191,l,0.5909925862215459,colour,0.5
149,24,0,1,1,6,6,13.269427237799391,14.344042529060971,"[21, 0, 233]",233,l,0.5560604222700931,colour,0.5
149,24,0,1,1,7,7,14.865579205565155,15.855993389734067,"[73, 0, 181]",181,l,0.4621262008440681,colour,0.5
149,24,0,1,1,8,8,16.37077521480387,18.1360162642668,"[84, 0, 170]",170,l,1.2539739053463563,colour,0.5
149,24,0,1,1,9,9,18.651133252249565,19.79207416594727,"[45, 0, 209]",209,l,0.6081410315237008,colour,0.5
149,24,0,1,1,10,10,20.306478292797692,20.848027462081518,"[93, 0, 161]",161,l,0.02423452102812007,colour,0.5
149,24,0,1,1,11,11,21.359282003133558,26.272009685460944,"[4, 0, 250]",250,l,4.388466379721649,colour,0.5
149,24,0,1,1,12,12,26.77078955079196,27.42402160796337,"[67, 0, 187]",187,l,0.12733629398280755,colour,0.5
149,24,0,1,1,13,13,27.942173572664615,28.504015259211883,"[30, 0, 224]",224,a,0.04513907490763813,colour,0.5
149,24,0,1,1,14,14,29.02343658922473,29.59203706565313,"[36, 0, 218]",218,a,0.05129449279047549,colour,0.5
149,24,0,1,1,15,15,30.102990314539056,31.87200440792367,"[11, 0, 243]",243,a,1.237880573316943,colour,0.5
149,24,0,1,1,16,16,32.390157554124016,33.27202898391988,"[24, 0, 230]",230,a,0.3632169177290052,colour,0.5
149,24,0,1,1,17,17,33.78567298816051,34.69596433965489,"[25, 0, 229]",229,a,0.39205077150836587,colour,0.5
149,24,0,1,1,18,18,35.21077452163445,36.13601862738142,"[2, 0, 252]",252,a,0.40627609234070405,colour,0.5
149,24,0,1,1,19,19,36.64753113745246,37.46396427979926,"[72, 0, 182]",182,l,0.29456169676268473,colour,0.5
149,24,0,1,1,20,20,38.01652341178851,38.816053868678864,"[33, 0, 221]",221,a,0.2752329204813577,colour,0.5
149,24,0,1,1,21,21,39.327895240159705,40.13600799354026,"[74, 0, 180]",180,l,0.28954803821397945,colour,0.5
149,24,0,1,1,22,22,40.6592535674572,41.44799855380552,"[29, 0, 225]",225,a,0.2713519627577625,colour,0.5
149,24,0,1,1,23,23,41.95680297940271,42.83217122533824,"[65, 0, 189]",189,l,0.3443414581124671,colour,0.5
149,24,0,1,1,24,24,43.3476871792227,44.24802249966888,"[13, 0, 241]",241,a,0.3808470365474932,colour,0.5
149,24,0,1,1,25,25,44.75844208733179,45.55998430919135,"[99, 0, 155]",155,l,0.2830610019736923,colour,0.5
149,24,0,1,1,26,26,46.073362467461266,46.85606664506486,"[79, 0, 175]",175,l,0.25956927437800914,colour,0.5
149,24,0,1,1,27,27,47.3739763944759,48.175999896018766,"[44, 0, 210]",210,a,0.25886586552951485,colour,0.5
149,24,0,1,1,28,28,48.69174979440868,49.5040132899303,"[57, 0, 197]",197,a,0.28880091244354844,colour,0.5
149,24,0,1,1,29,29,50.019905366702005,50.792001304449514,"[5, 0, 249]",249,a,0.2488381545408629,colour,0.5
149,24,0,1,1,30,30,51.30124959436944,52.07202378514921,"[53, 0, 201]",201,a,0.24746914609568194,colour,0.5
149,24,0,1,1,31,31,52.58646611508448,53.34396927373018,"[98, 0, 156]",156,l,0.23409295710735023,colour,0.5
149,24,0,1,1,32,32,53.85212779202266,54.61597738380078,"[40, 0, 214]",214,a,0.24051934096496552,colour,0.5
149,24,0,1,1,33,33,55.13336686277762,55.89599592605373,"[38, 0, 216]",216,a,0.23924997553694993,colour,0.5
149,24,0,1,1,34,34,56.41460908431327,57.3200486478745,"[58, 0, 196]",196,l,0.38198564510094,colour,0.5
149,24,0,1,1,35,35,57.83413494110573,58.49600758391898,"[71, 0, 183]",183,l,0.13705010979902,colour,0.5
149,24,0,1,1,36,36,59.01542733859969,59.76807910320349,"[26, 0, 228]",228,a,0.2356301377294585,colour,0.5
149,24,0,1,1,37,37,60.28206772264093,61.01601456286153,"[3, 0, 251]",251,a,0.20592745987232774,colour,0.5
149,24,0,1,1,38,38,61.52965384098934,62.144034179567825,"[75, 0, 179]",179,l,0.08251111436402425,colour,0.5
149,24,0,1,1,39,39,62.65859505708795,63.37598067638464,"[1, 0, 253]",253,a,0.19920175313018262,colour,0.5
149,24,0,1,1,40,40,63.89721094071865,66.4000210313825,"[41, 0, 213]",213,l,1.984444267640356,colour,0.5
149,24,0,1,1,41,41,66.92065107461531,67.78396999841789,"[81, 0, 173]",173,l,0.3488714739214629,colour,0.5
149,24,0,1,1,42,42,68.30205855390523,69.0640082329628,"[6, 0, 248]",248,a,0.2383795760688372,colour,0.5
149,24,0,1,1,43,43,69.58346343378071,70.19196759123588,"[97, 0, 157]",157,l,0.08506835589651018,colour,0.5
149,24,0,1,1,44,44,70.70848076301627,71.47197983198566,"[31, 0, 223]",223,a,0.2400557843502611,colour,0.5
149,24,0,1,1,45,45,71.98973479995038,72.75197592499899,"[64, 0, 190]",190,l,0.24569920252542943,colour,0.5
149,24,0,1,1,46,46,73.26410716708051,74.04004034557147,"[91, 0, 163]",163,l,0.25281678600003943,colour,0.5
149,24,0,1,1,47,47,74.55172693560598,75.32003210636321,"[76, 0, 178]",178,l,0.26170628232648596,colour,0.5
149,24,0,1,1,48,48,75.82753014500486,76.5999899963499,"[59, 0, 195]",195,a,0.2489358283346519,colour,0.5
149,24,0,1,1,49,49,77.11625189444749,77.8879500477342,"[56, 0, 198]",198,a,0.253190545772668,colour,0.5
149,24,0,1,1,50,50,78.40732884244062,79.15198238409357,"[34, 0, 220]",220,a,0.2271860811742954,colour,0.5
149,24,0,1,2,1,51,84.45178892696276,85.25595888879616,"[55, 0, 199]",199,a,0.2846745887072757,colour,0.5
149,24,0,1,2,2,52,85.76951782230753,86.50402195454808,"[21, 0, 233]",233,a,0.20059321069857106,colour,0.5
149,24,0,1,2,3,53,87.021856873238,87.78401607839623,"[38, 0, 216]",216,a,0.24586776859359816,colour,0.5
149,24,0,1,2,4,54,88.30410300806398,89.00798561994452,"[98, 0, 156]",156,l,0.18608668394153938,colour,0.5
149,24,0,1,2,5,55,89.51799324474996,90.24034565495094,"[83, 0, 171]",171,l,0.1989934085868299,colour,0.5
149,24,0,1,2,6,56,90.75776624772698,91.48801172402455,"[7, 0, 247]",247,a,0.2073212806135416,colour,0.5
149,24,0,1,2,7,57,91.99638646369567,92.70399603951955,"[88, 0, 166]",166,l,0.19082386267837137,colour,0.5
149,24,0,1,2,8,58,93.2248265502858,93.93607014243025,"[99, 0, 155]",155,l,0.18782275676494464,colour,0.5
149,24,0,1,2,9,59,94.4437127225101,95.0800180696533,"[97, 0, 157]",157,l,0.11312751466175541,colour,0.5
149,24,0,1,2,10,60,95.59983679029392,96.30396516196197,"[51, 0, 203]",203,a,0.18074140703538433,colour,0.5
149,24,0,1,2,11,61,96.80921118968399,97.45600071526133,"[92, 0, 162]",162,l,0.12398860370740294,colour,0.5
149,24,0,1,2,12,62,97.97338428650983,98.68798856588546,"[52, 0, 202]",202,a,0.19624672713689506,colour,0.5
149,24,0,1,2,13,63,99.20582742302213,99.88813948765164,"[74, 0, 180]",180,l,0.15949735807953402,colour,0.5
149,24,0,1,2,14,64,100.40011712978594,101.1200131229707,"[77, 0, 177]",177,l,0.2019374068477191,colour,0.5
149,24,0,1,2,15,65,101.63676693459274,102.32793777552433,"[33, 0, 221]",221,a,0.17236627358943224,colour,0.5
149,24,0,1,2,16,66,102.84338165563531,103.37606062710984,"[28, 0, 226]",226,a,0.013785788789391518,colour,0.5
149,24,0,1,2,17,67,103.89612550137099,104.46393237827579,"[42, 0, 212]",212,a,0.048557657515630126,colour,0.5
149,24,0,1,2,18,68,104.98105443583336,107.0800034973654,"[17, 0, 237]",237,a,1.5801917556673288,colour,0.5
149,24,0,1,2,19,69,107.5862585582654,108.39207952225115,"[4, 0, 250]",250,a,0.2753254742710851,colour,0.5
149,24,0,1,2,20,70,108.9537687904085,109.67196297534974,"[87, 0, 167]",167,l,0.1860173669992946,colour,0.5
149,24,0,1,2,21,71,110.18794445513049,110.93601027783006,"[39, 0, 215]",215,a,0.23036599316401407,colour,0.5
149,24,0,1,2,22,72,111.4515569517389,112.10397256631404,"[71, 0, 183]",183,a,0.13423844380304217,colour,0.5
149,24,0,1,2,23,73,112.62722522945842,113.39194364537252,"[24, 0, 230]",230,a,0.24569368868833408,colour,0.5
149,24,0,1,2,24,74,113.91395411855774,114.58399591344642,"[31, 0, 223]",223,a,0.14997928368393332,colour,0.5
149,24,0,1,2,25,75,115.10780271788826,115.75197671272326,"[29, 0, 225]",225,a,0.1253773044445552,colour,0.5
149,24,0,1,2,26,76,116.26979115139693,116.90399926906684,"[79, 0, 175]",175,l,0.10329396976158023,colour,0.5
149,24,0,1,2,27,77,117.4142715583439,118.02389502589358,"[61, 0, 193]",193,a,0.09396769833983853,colour,0.5
149,24,0,1,2,28,78,118.5399761486915,119.10393278783886,"[78, 0, 176]",176,l,0.044345081492792815,colour,0.5
149,24,0,1,2,29,79,119.61449219082715,120.2639748348156,"[62, 0, 192]",192,a,0.12635010381927714,colour,0.5
149,24,0,1,2,30,80,120.77533413888887,121.3119708680315,"[64, 0, 190]",190,a,0.013393912115134299,colour,0.5
149,24,0,1,2,31,81,121.81200828339206,122.47992370417342,"[27, 0, 227]",227,a,0.1449313604971394,colour,0.5
149,24,0,1,2,32,82,122.99285209039226,124.51191659603501,"[12, 0, 242]",242,a,0.9956468209857121,colour,0.5
149,24,0,1,2,33,83,125.02401317970362,125.67998837371124,"[48, 0, 206]",206,a,0.13258271553786471,colour,0.5
149,24,0,1,2,34,84,126.19591077661607,126.94399077771232,"[47, 0, 207]",207,a,0.23617679585004225,colour,0.5
149,24,0,1,2,35,85,127.45340330142062,128.08825772017008,"[20, 0, 234]",234,a,0.11263914575101808,colour,0.5
149,24,0,1,2,36,86,128.60188518289942,129.2479716935195,"[85, 0, 169]",169,l,0.10100139264250174,colour,0.5
149,24,0,1,2,37,87,129.75784580461914,130.40799522976158,"[14, 0, 240]",240,a,0.11805649643065408,colour,0.5
149,24,0,1,2,38,88,130.92999743216205,131.54396462638397,"[91, 0, 163]",163,l,0.08349494147114456,colour,0.5
149,24,0,1,2,39,89,132.06670016987482,132.70400943025015,"[10, 0, 244]",244,a,0.10950570757267997,colour,0.5
149,24,0,1,2,40,90,133.22205860115355,133.75207202340243,"[86, 0, 168]",168,l,0.012858281610533595,colour,0.5
149,24,0,1,2,41,91,134.27245197445154,134.95991121139377,"[63, 0, 191]",191,a,0.16888231254415587,colour,0.5
149,24,0,1,2,42,92,135.4794388798764,136.16793983924435,"[1, 0, 253]",253,a,0.169716872042045,colour,0.5
149,24,0,1,2,43,93,136.68655890517402,137.31994703563396,"[35, 0, 219]",219,a,0.11254462273791432,colour,0.5
149,24,0,1,2,44,94,137.82829223683802,138.36793322267476,"[56, 0, 198]",198,a,0.017833737190812826,colour,0.5
149,24,0,1,2,45,95,138.91669843695126,139.51990969904,"[32, 0, 222]",222,a,0.07267796323867515,colour,0.5
149,24,0,1,2,46,96,140.04175239382312,141.64791119878646,"[36, 0, 218]",218,a,1.0897405500290915,colour,0.5
149,24,0,1,2,47,97,142.1597049148986,142.8639825542341,"[68, 0, 186]",186,l,0.1873143016709946,colour,0.5
149,24,0,1,2,48,98,143.38174382370198,144.07991291279905,"[25, 0, 229]",229,a,0.1784905776148662,colour,0.5
149,24,0,1,2,49,99,144.58880201523425,145.327956286259,"[13, 0, 241]",241,a,0.22022367297904566,colour,0.5
149,24,0,1,2,50,100,145.84336865867954,146.51196897757472,"[89, 0, 165]",165,l,0.1497410069569014,colour,0.5
149,24,0,1,3,1,101,152.78072746493854,153.56793842144543,"[12, 0, 242]",242,a,0.2683425861177966,colour,0.5
149,24,0,1,3,2,102,154.08189120085444,154.6079665577854,"[23, 0, 231]",231,a,0.00797183532267809,colour,0.5
149,24,0,1,3,3,103,155.11872524680803,155.7439205943956,"[47, 0, 207]",207,a,0.09132577991113067,colour,0.5
149,24,0,1,3,4,104,156.26564395386958,157.01590389217017,"[36, 0, 218]",218,a,0.22993867029435933,colour,0.5
149,24,0,1,3,5,105,157.5251643913216,158.16792408545734,"[44, 0, 210]",210,a,0.11962951702298597,colour,0.5
149,24,0,1,3,6,106,158.68651321908692,159.42396922648186,"[51, 0, 203]",203,a,0.20711254223715514,colour,0.5
149,24,0,1,3,7,107,159.9469859759556,160.61593287921278,"[50, 0, 204]",204,a,0.15191188565222546,colour,0.5
149,24,0,1,3,8,108,161.13683270686306,161.86396443733247,"[5, 0, 249]",249,a,0.19531764462590218,colour,0.5
149,24,0,1,3,9,109,162.38628014107235,162.99192379554734,"[31, 0, 223]",223,a,0.07318287366069853,colour,0.5
149,24,0,1,3,10,110,163.5157042123028,164.19993903266732,"[20, 0, 234]",234,a,0.165077367099002,colour,0.5
149,24,0,1,3,11,111,164.7240640645614,165.3759424732998,"[39, 0, 215]",215,a,0.13285249995533377,colour,0.5
149,24,0,1,3,12,112,165.89973273617215,166.5279173742747,"[69, 0, 185]",185,a,0.10987395350821316,colour,0.5
149,24,0,1,3,13,113,167.04766244569328,167.59995455021271,"[8, 0, 246]",246,a,0.03465922875329852,colour,0.5
149,24,0,1,3,14,114,168.1165043496294,168.81599282257957,"[91, 0, 163]",163,l,0.17048014543252066,colour,0.5
149,24,0,1,3,15,115,169.32537423243048,170.0719568313798,"[4, 0, 250]",250,a,0.21527657436672598,colour,0.5
149,24,0,1,3,16,116,170.5905530542368,171.35994445200777,"[35, 0, 219]",219,a,0.2384244745480828,colour,0.5
149,24,0,1,3,17,117,171.87914680375252,172.50397272384726,"[85, 0, 169]",169,l,0.09301104658516124,colour,0.5
149,24,0,1,3,18,118,173.02035356336273,173.67993402294815,"[72, 0, 182]",182,l,0.14189599000383168,colour,0.5
149,24,0,1,3,19,119,174.19640308397356,174.7999065797776,"[93, 0, 161]",161,l,0.0840278149698861,colour,0.5
149,24,0,1,3,20,120,175.31174952659057,175.97588993428508,"[66, 0, 188]",188,a,0.14554379094624892,colour,0.5
149,24,0,1,3,21,121,176.48882540967315,177.11189005081542,"[17, 0, 237]",237,a,0.10046970064286143,colour,0.5
149,24,0,1,3,22,122,177.6296757388045,178.23993526748382,"[74, 0, 180]",180,l,0.09279167436761782,colour,0.5
149,24,0,1,3,23,123,178.75666308531072,179.35191472136648,"[34, 0, 220]",220,a,0.06444343272596598,colour,0.5
149,24,0,1,3,24,124,179.86235636443598,180.60791299474658,"[30, 0, 224]",224,a,0.22846647427650169,colour,0.5
149,24,0,1,3,25,125,181.12844890874112,181.6958989612176,"[83, 0, 171]",171,a,0.04976833984255791,colour,0.5
149,24,0,1,3,26,126,182.20920110720908,184.02393598586787,"[19, 0, 235]",235,a,1.2974241689080372,colour,0.5
149,24,0,1,3,27,127,184.53637364006136,185.3678658750141,"[1, 0, 253]",253,a,0.29789757169783115,colour,0.5
149,24,0,1,3,28,128,185.8836299518589,186.5678568953299,"[41, 0, 213]",213,a,0.15904561680508777,colour,0.5
149,24,0,1,3,29,129,187.08114683208987,187.69591195811518,"[78, 0, 176]",176,a,0.09767378843389452,colour,0.5
149,24,0,1,3,30,130,188.21098562306724,190.1439160257578,"[55, 0, 199]",199,a,1.414851299545262,colour,0.5
149,24,0,1,3,31,131,190.65011831134325,191.4638925998006,"[59, 0, 195]",195,a,0.290822523587849,colour,0.5
149,24,0,1,3,32,132,191.97819905291544,192.7118575979257,"[2, 0, 252]",252,a,0.21106517990119755,colour,0.5
149,24,0,1,3,33,133,193.22821165597998,193.9119352643611,"[64, 0, 190]",190,a,0.15656990132993087,colour,0.5
149,24,0,1,3,34,134,194.4198976473417,195.12787034909707,"[29, 0, 225]",225,a,0.18475587852299213,colour,0.5
149,24,0,1,3,35,135,195.63861210277537,196.57585393672343,"[81, 0, 173]",173,l,0.4139210354187526,colour,0.5
149,24,0,1,3,36,136,197.09168575506192,197.85599890357116,"[80, 0, 174]",174,l,0.2409001900232397,colour,0.5
149,24,0,1,3,37,137,198.3729740565759,199.06406337139197,"[90, 0, 164]",164,l,0.16805366071639583,colour,0.5
149,24,0,1,3,38,138,199.5802169618546,200.38390052400064,"[58, 0, 196]",196,a,0.27116685517830774,colour,0.5
149,24,0,1,3,39,139,200.9057227387675,201.70392357185483,"[25, 0, 229]",229,a,0.2765018920181319,colour,0.5
149,24,0,1,3,40,140,202.22599548497237,202.99991611082805,"[28, 0, 226]",226,a,0.2558001688448712,colour,0.5
149,24,0,1,3,41,141,203.50889185938286,204.24792994587915,"[52, 0, 202]",202,a,0.22145325999008492,colour,0.5
149,24,0,1,3,42,142,204.76239787577651,205.4079365467187,"[68, 0, 186]",186,a,0.12613348854938522,colour,0.5
149,24,0,1,3,43,143,205.92471950297477,206.57595988130197,"[76, 0, 178]",178,a,0.13218611269257963,colour,0.5
149,24,0,1,3,44,144,207.0865598504315,207.81588057649788,"[99, 0, 155]",155,l,0.1962782348273322,colour,0.5
149,24,0,1,3,45,145,208.32301863998873,209.0560426992015,"[13, 0, 241]",241,a,0.21015815273858607,colour,0.5
149,24,0,1,3,46,146,209.57600399205694,210.28788482688833,"[38, 0, 216]",216,a,0.19450868509011343,colour,0.5
149,24,0,1,3,47,147,210.7978660640656,211.56787343684118,"[56, 0, 198]",198,a,0.25208305107662454,colour,0.5
149,24,0,1,3,48,148,212.08176871476462,212.7518995188875,"[54, 0, 200]",200,a,0.13795083540026098,colour,0.5
149,24,0,1,3,49,149,213.27162489801412,214.00785525690299,"[70, 0, 184]",184,a,0.21953956258948892,colour,0.5
149,24,0,1,3,50,150,214.5245543239871,215.2638803118025,"[45, 0, 209]",209,a,0.22011103300610557,colour,0.5
149,24,0,1,4,1,151,221.66524435777683,222.28789152222453,"[61, 0, 193]",193,a,0.09395745833171532,colour,0.5
149,24,0,1,4,2,152,222.80475600459613,224.98387831106083,"[90, 0, 164]",164,l,1.6473928975174204,colour,0.5
149,24,0,1,4,3,153,225.49700046947692,226.4798791995854,"[68, 0, 186]",186,a,0.4645148763083853,colour,0.5
149,24,0,1,4,4,154,227.00316140125506,227.78408697067061,"[9, 0, 245]",245,a,0.2594393052277155,colour,0.5
149,24,0,1,4,5,155,228.30195300315972,229.07189539138926,"[55, 0, 199]",199,a,0.24436327716102824,colour,0.5
149,24,0,1,4,6,156,229.59281294210814,230.335876133875,"[66, 0, 188]",188,a,0.21220418228767812,colour,0.5
149,24,0,1,4,7,157,230.84909675380914,231.5679648090736,"[76, 0, 178]",178,a,0.19539720145985484,colour,0.5
149,24,0,1,4,8,158,232.09080511558568,232.8079300088575,"[70, 0, 184]",184,a,0.20057233684929088,colour,0.5
149,24,0,1,4,9,159,233.32531909400132,234.08792058809195,"[25, 0, 229]",229,a,0.24476539390161633,colour,0.5
149,24,0,1,4,10,160,234.60904845251935,235.31994585407665,"[7, 0, 247]",247,a,0.19223816331941634,colour,0.5
149,24,0,1,4,11,161,235.8319475208409,236.47984966117656,"[98, 0, 156]",156,l,0.12867576401913539,colour,0.5
149,24,0,1,4,12,162,236.99429474800127,237.6478749649832,"[52, 0, 202]",202,a,0.13588905206415802,colour,0.5
149,24,0,1,4,13,163,238.16910207859473,238.91987441043602,"[44, 0, 210]",210,a,0.22109013400040567,colour,0.5
149,24,0,1,4,14,164,239.43469562014798,240.2318819061038,"[21, 0, 233]",233,a,0.26882229041075334,colour,0.5
149,24,0,1,4,15,165,240.74343970848713,241.4638603044441,"[10, 0, 244]",244,a,0.20239781273994595,colour,0.5
149,24,0,1,4,16,166,241.9803703254438,242.75989537878195,"[2, 0, 252]",252,a,0.2617212484474294,colour,0.5
149,24,0,1,4,17,167,243.27824150951346,244.03187828272348,"[39, 0, 215]",215,a,0.2334053021040745,colour,0.5
149,24,0,1,4,18,168,244.54982938594185,245.25594746728893,"[57, 0, 197]",197,a,0.1883820179500617,colour,0.5
149,24,0,1,4,19,169,245.76972931757336,246.45589319529245,"[77, 0, 177]",177,l,0.15913383825682104,colour,0.5
149,24,0,1,4,20,170,246.9664888321422,247.73592985450523,"[26, 0, 228]",228,a,0.25106850400334224,colour,0.5
149,24,0,1,4,21,171,248.25025284907315,248.99184542021248,"[34, 0, 220]",220,a,0.22205545037286356,colour,0.5
149,24,0,1,4,22,172,249.50990680034738,250.07989952206844,"[62, 0, 192]",192,a,0.04298158694291487,colour,0.5
149,24,0,1,4,23,173,250.60115617408883,251.39184045774164,"[42, 0, 212]",212,a,0.2727012788527645,colour,0.5
149,24,0,1,4,24,174,251.9153995330562,252.69590644427808,"[78, 0, 176]",176,l,0.25579426117474213,colour,0.5
149,24,0,1,4,25,175,253.20575180463493,253.7919189906679,"[51, 0, 203]",203,a,0.054502367856912315,colour,0.5
149,24,0,1,4,26,176,254.3017950709327,255.02389345050324,"[41, 0, 213]",213,a,0.20297991699771956,colour,0.5
149,24,0,1,4,27,177,255.54157240624772,256.2398927321192,"[17, 0, 237]",237,a,0.17937988170888275,colour,0.5
149,24,0,1,4,28,178,256.750028750801,257.44825691671576,"[54, 0, 200]",200,a,0.17983556143008173,colour,0.5
149,24,0,1,4,29,179,257.9724134563003,258.7038609503652,"[6, 0, 248]",248,a,0.2128642681054771,colour,0.5
149,24,0,1,4,30,180,259.2126421389985,259.9518881761469,"[37, 0, 217]",217,a,0.2213091123267077,colour,0.5
149,24,0,1,4,31,181,260.46693505957955,261.2158886109246,"[45, 0, 209]",209,a,0.22560124518349767,colour,0.5
149,24,0,1,4,32,182,261.73259831184987,262.3998276530183,"[65, 0, 189]",189,a,0.1425891587859951,colour,0.5
149,24,0,1,4,33,183,262.9221437506494,263.72795565612614,"[14, 0, 240]",240,l,0.2834623309900053,colour,0.5
149,24,0,1,4,34,184,264.237134235329,265.02385603514267,"[82, 0, 172]",172,l,0.26752890041098,colour,0.5
149,24,0,1,4,35,185,265.5454108285485,266.3199261617847,"[31, 0, 223]",223,a,0.2512347069568932,colour,0.5
149,24,0,1,4,36,186,266.82669991778675,267.54383662645705,"[5, 0, 249]",249,a,0.19236340635688975,colour,0.5
149,24,0,1,4,37,187,268.06245805544313,268.8158841211116,"[48, 0, 206]",206,a,0.230094239464961,colour,0.5
149,24,0,1,4,38,188,269.33204480080167,269.99188519868767,"[64, 0, 190]",190,a,0.09841028036316857,colour,0.5
149,24,0,1,4,39,189,270.5028549890849,271.247830302862,"[81, 0, 173]",173,l,0.22176124749239534,colour,0.5
149,24,0,1,4,40,190,271.76843317068415,272.53585218806984,"[69, 0, 185]",185,a,0.24411988037172705,colour,0.5
149,24,0,1,4,41,191,273.0496044999454,273.7358782606898,"[93, 0, 161]",161,l,0.1691879369900562,colour,0.5
149,24,0,1,4,42,192,274.24724426009925,274.93586219177814,"[63, 0, 191]",191,a,0.16536487464327365,colour,0.5
149,24,0,1,4,43,193,275.4503746262635,276.2318515799707,"[97, 0, 157]",157,l,0.25820814282633364,colour,0.5
149,24,0,1,4,44,194,276.7472068447387,277.38385641324567,"[28, 0, 226]",226,a,0.12282203207723796,colour,0.5
149,24,0,1,4,45,195,277.8940428441274,278.60787361016264,"[83, 0, 171]",171,l,0.1903571552829817,colour,0.5
149,24,0,1,4,46,196,279.1425568634877,279.75989419722464,"[49, 0, 205]",205,a,0.08711044699884951,colour,0.5
149,24,0,1,4,47,197,280.2689817980281,281.03997102868743,"[40, 0, 214]",214,a,0.23834452376468107,colour,0.5
149,24,0,1,4,48,198,281.55098965606885,282.27985076390905,"[18, 0, 236]",236,a,0.20732403750298545,colour,0.5
149,24,0,1,4,49,199,282.794765315135,283.47183292743284,"[74, 0, 180]",180,a,0.15965922875329852,colour,0.5
149,24,0,1,4,50,200,283.98446514148964,284.71188713639276,"[8, 0, 246]",246,a,0.20916605490492657,colour,0.5
149,24,0,1,5,1,201,293.1506078618113,293.8077988582081,"[25, 0, 229]",229,a,0.13869481039000675,colour,0.5
149,24,0,1,5,2,202,294.3260461335303,294.91183837823337,"[96, 0, 158]",158,l,0.0672881817445159,colour,0.5
149,24,0,1,5,3,203,295.4252590718679,296.04782234714366,"[79, 0, 175]",175,l,0.1047173289116472,colour,0.5
149,24,0,1,5,4,204,296.5696662234841,297.1998196973582,"[44, 0, 210]",210,a,0.10807486536214128,colour,0.5
149,24,0,1,5,5,205,297.7146440578508,298.3438424553606,"[91, 0, 163]",163,l,0.11186011851532385,colour,0.5
149,24,0,1,5,6,206,298.86604827607516,299.56798962136963,"[54, 0, 200]",200,a,0.17591009911848232,colour,0.5
149,24,0,1,5,7,207,300.0799389066524,300.8158451303607,"[13, 0, 241]",241,a,0.2032449753023684,colour,0.5
149,24,0,1,5,8,208,301.32347904582275,301.911925418186,"[74, 0, 180]",180,l,0.06506964768050238,colour,0.5
149,24,0,1,5,9,209,302.4342356080888,303.15185989800375,"[40, 0, 214]",214,a,0.20671357633545995,colour,0.5
149,24,0,1,5,10,210,303.6673833350069,304.3998532530386,"[33, 0, 221]",221,a,0.2092975994455628,colour,0.5
149,24,0,1,5,11,211,304.90672901511425,305.65585192025173,"[88, 0, 166]",166,l,0.22579619893804193,colour,0.5
149,24,0,1,5,12,212,306.17237533204025,306.7758059662883,"[1, 0, 253]",253,a,0.07640610868111253,colour,0.5
149,24,0,1,5,13,213,307.2852681145887,307.9439084639307,"[50, 0, 204]",204,a,0.13519588322378695,colour,0.5
149,24,0,1,5,14,214,308.4572019453044,309.1998252111953,"[39, 0, 215]",215,a,0.21927411045180634,colour,0.5
149,24,0,1,5,15,215,309.7060113491025,310.4479138769675,"[11, 0, 243]",243,a,0.19681268377462402,colour,0.5
149,24,0,1,5,16,216,310.96108684147475,311.711858779483,"[58, 0, 196]",196,a,0.22724043193738908,colour,0.5
149,24,0,1,5,17,217,312.22347368951887,312.9838278988027,"[15, 0, 239]",239,a,0.23703222919721156,colour,0.5
149,24,0,1,5,18,218,313.5047226064489,314.2398029352771,"[51, 0, 203]",203,a,0.21203679783502594,colour,0.5
149,24,0,1,5,19,219,314.76126005488914,315.5198218713631,"[16, 0, 238]",238,a,0.23508663033135235,colour,0.5
149,24,0,1,5,20,220,316.02692330721766,316.7118008841062,"[86, 0, 168]",168,l,0.16152920917375013,colour,0.5
149,24,0,1,5,21,221,317.22384784318274,317.847861652961,"[31, 0, 223]",223,a,0.10067016817629337,colour,0.5
149,24,0,1,5,22,222,318.3567050693091,319.15185005182866,"[30, 0, 224]",224,a,0.2720849100151099,colour,0.5
149,24,0,1,5,23,223,319.6571075010579,320.37588536564726,"[8, 0, 246]",246,a,0.2009598813019693,colour,0.5
149,24,0,1,5,24,224,320.8900586988311,321.4958555594203,"[97, 0, 157]",157,l,0.07441718684276566,colour,0.5
149,24,0,1,5,25,225,322.02009480661945,322.6638068201719,"[45, 0, 209]",209,a,0.1264422637759708,colour,0.5
149,24,0,1,5,26,226,323.17835233773803,323.7119166748016,"[17, 0, 237]",237,a,0.01589680288452655,colour,0.5
149,24,0,1,5,27,227,324.2288618955645,324.86384628352243,"[60, 0, 194]",194,a,0.11529642419191077,colour,0.5
149,24,0,1,5,28,228,325.37673646671465,326.5599201123114,"[80, 0, 174]",174,l,0.6641435584169813,colour,0.5
149,24,0,1,5,29,229,327.0815064134076,327.89584587077843,"[83, 0, 171]",171,l,0.28725979337468743,colour,0.5
149,24,0,1,5,30,230,328.4063729784102,329.19178720976925,"[57, 0, 197]",197,a,0.2669885437935591,colour,0.5
149,24,0,1,5,31,231,329.7011977642542,330.46385951677803,"[12, 0, 242]",242,a,0.24449088325491175,colour,0.5
149,24,0,1,5,32,232,330.9800221656915,332.2318515799707,"[92, 0, 162]",162,l,0.7201094576739706,colour,0.5
149,24,0,1,5,33,233,332.74734626623103,333.27986966853496,"[64, 0, 190]",190,a,0.014146551664453,colour,0.5
149,24,0,1,5,34,234,333.79863012512214,334.55985434004106,"[71, 0, 183]",183,a,0.24419668037444353,colour,0.5
149,24,0,1,5,35,235,335.0823673605919,336.21580905409064,"[61, 0, 193]",193,a,0.6144921908271499,colour,0.5
149,24,0,1,5,36,236,336.7248655410367,337.52781339897774,"[78, 0, 176]",176,l,0.2819373595993966,colour,0.5
149,24,0,1,5,37,237,338.04480115510523,338.72783671465004,"[28, 0, 226]",226,a,0.16446217976044863,colour,0.5
149,24,0,1,5,38,238,339.2383193176938,339.9438261501491,"[22, 0, 232]",232,a,0.19041662599192932,colour,0.5
149,24,0,1,5,39,239,340.4571964314673,341.17579864076106,"[6, 0, 248]",248,a,0.20028679858660325,colour,0.5
149,24,0,1,5,40,240,341.68645453604404,342.29582397296326,"[9, 0, 245]",245,a,0.0859907430713065,colour,0.5
149,24,0,1,5,41,241,342.81147265294567,343.51182679919293,"[48, 0, 206]",206,a,0.1769187385798432,colour,0.5
149,24,0,1,5,42,242,344.0302524867584,344.6238306714804,"[55, 0, 199]",199,a,0.07024911540793255,colour,0.5
149,24,0,1,5,43,243,345.1435781059554,345.7682701184531,"[52, 0, 202]",202,a,0.10460980894276872,colour,0.5
149,24,0,1,5,44,244,346.2810894093709,346.90384803223424,"[59, 0, 195]",195,a,0.09946421202039346,colour,0.5
149,24,0,1,5,45,245,347.42160536325537,348.1678689470282,"[53, 0, 201]",201,a,0.22307117900345474,colour,0.5
149,24,0,1,5,46,246,348.6872185971006,349.36780325352447,"[43, 0, 211]",211,a,0.1572465286590159,colour,0.5
149,24,0,1,5,47,247,349.8686193022295,350.4318843479268,"[94, 0, 160]",160,l,0.044649918214417994,colour,0.5
149,24,0,1,5,48,248,350.9450833062874,351.7118276656256,"[3, 0, 251]",251,a,0.23691486311145127,colour,0.5
149,24,0,1,5,49,249,352.2322863858426,352.8958442953881,"[27, 0, 227]",227,a,0.1453496249159798,colour,0.5
149,24,0,1,5,50,250,353.4057869357057,354.13583667052444,"[38, 0, 216]",216,a,0.21265631745336577,colour,0.5
149,24,0,1,6,1,251,361.60101635882165,365.1037917910144,"[25, 0, 229]",229,a,2.9787705233320594,colour,0.5
149,24,0,1,6,2,252,365.6206810856238,366.4558195461286,"[33, 0, 221]",221,a,0.31205515103647485,colour,0.5
149,24,0,1,6,3,253,366.9643002303201,367.61581472546095,"[1, 0, 253]",253,a,0.12814092123880982,colour,0.5
149,24,0,1,6,4,254,368.13620570418425,369.0317928181612,"[17, 0, 237]",237,a,0.37220605701440945,colour,0.5
149,24,0,1,6,5,255,369.54258183331694,370.27177613484673,"[35, 0, 219]",219,a,0.21860693546477705,colour,0.5
149,24,0,1,6,6,256,370.78869299869984,371.4318248772179,"[99, 0, 155]",155,l,0.12440568651072681,colour,0.5
149,24,0,1,6,7,257,371.94025002914714,372.57585393672343,"[12, 0, 242]",242,a,0.11883788672275841,colour,0.5
149,24,0,1,6,8,258,373.09026003285544,373.83179470861796,"[20, 0, 234]",234,a,0.21846475708298385,colour,0.5
149,24,0,1,6,9,259,374.3403541620355,374.93577475793427,"[76, 0, 178]",178,l,0.072192351159174,colour,0.5
149,24,0,1,6,10,260,375.44407230382785,377.97575838974444,"[51, 0, 203]",203,a,2.0085720564820804,colour,0.5
149,24,0,1,6,11,261,378.4934440408251,379.30379147594795,"[6, 0, 248]",248,a,0.28699670429341495,colour,0.5
149,24,0,1,6,12,262,379.82154762547,380.62380704074167,"[77, 0, 177]",177,a,0.27779922052286565,colour,0.5
149,24,0,1,6,13,263,381.13743056496605,381.8398185315891,"[88, 0, 166]",166,l,0.17064162227325141,colour,0.5
149,24,0,1,6,14,264,382.3609408821794,382.9997888986254,"[61, 0, 193]",193,a,0.12077403330476955,colour,0.5
149,24,0,1,6,15,265,383.519840775989,384.27975190861616,"[64, 0, 190]",190,a,0.24157957424176857,colour,0.5
149,24,0,1,6,16,266,384.78935544751585,385.5038167608436,"[68, 0, 186]",186,a,0.19583909661741927,colour,0.5
149,24,0,1,6,17,267,386.0128858508542,386.7197888671071,"[53, 0, 201]",201,a,0.18887235614238307,colour,0.5
149,24,0,1,6,18,268,387.23902075726073,388.0238261028426,"[5, 0, 249]",249,a,0.25706835271557793,colour,0.5
149,24,0,1,6,19,269,388.534376053547,389.3278416771209,"[19, 0, 235]",235,a,0.2762135968077928,colour,0.5
149,24,0,1,6,20,270,389.8493763844017,390.5838269536034,"[59, 0, 195]",195,a,0.20981983916135505,colour,0.5
149,24,0,1,6,21,271,391.09395785222296,391.8797998002847,"[81, 0, 173]",173,a,0.25791669689351693,colour,0.5
149,24,0,1,6,22,272,392.4020548517583,393.1598494563368,"[18, 0, 236]",236,a,0.24013888579793274,colour,0.5
149,24,0,1,6,23,273,393.67567182239145,394.4558203337947,"[28, 0, 226]",226,a,0.26302999845938757,colour,0.5
149,24,0,1,6,24,274,394.97309796052286,395.6877810090664,"[48, 0, 206]",206,a,0.19554371217964217,colour,0.5
149,24,0,1,6,25,275,396.21147359814495,396.99974242481403,"[91, 0, 163]",163,l,0.2693929731613025,colour,0.5
149,24,0,1,6,26,276,397.5113565471838,398.1758632315323,"[78, 0, 176]",176,l,0.14559696015203372,colour,0.5
149,24,0,1,6,27,277,398.6882359011215,399.399879640725,"[83, 0, 171]",171,l,0.1932527104509063,colour,0.5
149,24,0,1,6,28,278,399.917053292098,400.6397971851402,"[50, 0, 204]",204,a,0.20554188475944102,colour,0.5
149,24,0,1,6,29,279,401.1543513673241,401.887785420171,"[70, 0, 184]",184,l,0.20565255545079708,colour,0.5
149,24,0,1,6,30,280,402.400033240614,403.1358173720655,"[2, 0, 252]",252,a,0.21729542850516737,colour,0.5
149,24,0,1,6,31,281,403.65168857504614,404.28779739310266,"[8, 0, 246]",246,a,0.11838299472583458,colour,0.5
149,24,0,1,6,32,282,404.8102462167153,405.5838466458954,"[43, 0, 211]",211,a,0.2522681586560793,colour,0.5
149,24,0,1,6,33,283,406.09984151640674,406.83179904089775,"[72, 0, 182]",182,a,0.2011347488150932,colour,0.5
149,24,0,1,6,34,284,407.35509620868834,407.97582849429455,"[36, 0, 218]",218,a,0.10293438844382763,colour,0.5
149,24,0,1,6,35,285,408.49130939593306,409.27990511467215,"[41, 0, 213]",213,a,0.2696426715119742,colour,0.5
149,24,0,1,6,36,286,409.8019207078032,410.55181791400537,"[44, 0, 210]",210,a,0.22856848035007715,colour,0.5
149,24,0,1,6,37,287,411.0732750336756,411.88784174009925,"[66, 0, 188]",188,a,0.2963659049128182,colour,0.5
149,24,0,1,6,38,288,412.39640631352086,413.11985007073963,"[24, 0, 230]",230,a,0.2000969648361206,colour,0.5
149,24,0,1,6,39,289,413.6315453253919,414.4717636105488,"[14, 0, 240]",240,a,0.31754615087993443,colour,0.5
149,24,0,1,6,40,290,414.9902093842393,415.7758477139869,"[39, 0, 215]",215,a,0.27387454587733373,colour,0.5
149,24,0,1,6,41,291,416.2916523569729,417.0558662562398,"[73, 0, 181]",181,a,0.23489876586245373,colour,0.5
149,24,0,1,6,42,292,417.57162639463786,418.2637625518837,"[96, 0, 158]",158,l,0.1763634157832712,colour,0.5
149,24,0,1,6,43,293,418.78269354376243,419.35983338742517,"[4, 0, 250]",250,a,0.05366268829675391,colour,0.5
149,24,0,1,6,44,294,419.8765537221916,420.61580369778676,"[47, 0, 207]",207,a,0.22337562189204618,colour,0.5
149,24,0,1,6,45,295,421.13529237546027,421.94382457475876,"[94, 0, 160]",160,l,0.27903904748382047,colour,0.5
149,24,0,1,6,46,296,422.4601423989516,423.22386596008437,"[21, 0, 233]",233,a,0.24106324219610542,colour,0.5
149,24,0,1,6,47,297,423.7413475989597,424.5199455390102,"[54, 0, 200]",200,a,0.25524130155099556,colour,0.5
149,24,0,1,6,48,298,425.03828497434733,425.7838187615853,"[69, 0, 185]",185,a,0.22072149423183873,colour,0.5
149,24,0,1,6,49,299,426.3054456288228,427.07175281917443,"[95, 0, 159]",159,l,0.24313172098482028,colour,0.5
149,24,0,1,6,50,300,427.58521329122595,428.27177062100964,"[92, 0, 162]",162,l,0.16309395903954282,colour,0.5
149,24,0,1,7,1,301,439.05856725160265,439.82385792559944,"[42, 0, 212]",212,a,0.24730097386054695,colour,0.5
149,24,0,1,7,2,302,440.33027840184513,440.9037507522735,"[90, 0, 164]",164,l,0.060682597977574915,colour,0.5
149,24,0,1,7,3,303,441.4223560335813,442.13575002446305,"[65, 0, 189]",189,a,0.19899025786435232,colour,0.5
149,24,0,1,7,4,304,442.64851890306454,443.37578178418335,"[35, 0, 219]",219,a,0.20462028530891985,colour,0.5
149,24,0,1,7,5,305,443.88214594044257,444.5917790965759,"[5, 0, 249]",249,a,0.18624934228137136,colour,0.5
149,24,0,1,7,6,306,445.1010049372562,445.8877980232355,"[34, 0, 220]",220,a,0.26380863186204806,colour,0.5
149,24,0,1,7,7,307,446.40631429536734,447.1358480920899,"[57, 0, 197]",197,a,0.2063150042667985,colour,0.5
149,24,0,1,7,8,308,447.6490194812068,448.31979934341507,"[99, 0, 155]",155,l,0.14737320528365672,colour,0.5
149,24,0,1,7,9,309,448.83653897658223,449.46385872905375,"[88, 0, 166]",166,l,0.1040619692648761,colour,0.5
149,24,0,1,7,10,310,449.97708446893375,450.7597949480987,"[91, 0, 163]",163,l,0.25939755752915516,colour,0.5
149,24,0,1,7,11,311,451.2802355514141,451.92774778424064,"[17, 0, 237]",237,a,0.12098316545598209,colour,0.5
149,24,0,1,7,12,312,452.44012321077753,453.22378679702524,"[75, 0, 179]",179,a,0.2514371437719092,colour,0.5
149,24,0,1,7,13,313,453.73883761890465,454.4317449264927,"[61, 0, 193]",193,a,0.17579430842306465,colour,0.5
149,24,0,1,7,14,314,454.9439328823937,455.6877420183155,"[2, 0, 252]",252,a,0.2266606906778179,colour,0.5
149,24,0,1,7,15,315,456.21061658946564,456.84775885916315,"[69, 0, 185]",185,a,0.11773866269504651,colour,0.5
149,24,0,1,7,16,316,457.35682007228024,458.05577409628313,"[49, 0, 205]",205,a,0.18005611514672637,colour,0.5
149,24,0,1,7,17,317,458.5795222176821,459.29577474220423,"[64, 0, 190]",190,a,0.1971171266050078,colour,0.5
149,24,0,1,7,18,318,459.8179880460375,460.59171608119505,"[27, 0, 227]",227,a,0.2428229457582347,colour,0.5
149,24,0,1,7,19,319,461.1057515683351,461.77577091404237,"[79, 0, 175]",175,a,0.15112498152302578,colour,0.5
149,24,0,1,7,20,320,462.2830287066754,462.94374541169964,"[98, 0, 156]",156,l,0.14226699288701639,colour,0.5
149,24,0,1,7,21,321,463.44992958038347,464.25592107960256,"[33, 0, 221]",221,a,0.28255097154760733,colour,0.5
149,24,0,1,7,22,322,464.7624400173081,465.4957732455805,"[50, 0, 204]",204,a,0.2108363554580137,colour,0.5
149,24,0,1,7,23,323,466.00570525205694,466.7597827388672,"[66, 0, 188]",188,l,0.23067319294204935,colour,0.5
149,24,0,1,7,24,324,467.27132754435297,468.07977073441725,"[19, 0, 235]",235,a,0.28514168999390677,colour,0.5
149,24,0,1,7,25,325,468.59196302259807,469.2477460197988,"[14, 0, 240]",240,a,0.1324354171520099,colour,0.5
149,24,0,1,7,26,326,469.7637546749902,470.55977872165386,"[54, 0, 200]",200,a,0.273326312424615,colour,0.5
149,24,0,1,7,27,327,471.0717937791487,471.86385928042,"[26, 0, 228]",228,a,0.27429989946540445,colour,0.5
149,24,0,1,7,28,328,472.37831381958677,473.1277451061178,"[70, 0, 184]",184,a,0.23230253357905895,colour,0.5
149,24,0,1,7,29,329,473.6367295192322,474.3437302092789,"[85, 0, 169]",169,l,0.18234239076264203,colour,0.5
149,24,0,1,7,30,330,474.8629514655913,475.6157300485647,"[38, 0, 216]",216,a,0.23573450685944408,colour,0.5
149,24,0,1,7,31,331,476.1301893139025,476.8637616066844,"[29, 0, 225]",225,a,0.2167759457952343,colour,0.5
149,24,0,1,7,32,332,477.3857063075411,478.1919175728108,"[56, 0, 198]",198,a,0.2875559655367397,colour,0.5
149,24,0,1,7,33,333,478.7028172586579,479.47172422596486,"[16, 0, 238]",238,a,0.2506845042225905,colour,0.5
149,24,0,1,7,34,334,479.98585462989286,480.7037101073656,"[8, 0, 246]",246,a,0.1984499012469314,colour,0.5
149,24,0,1,7,35,335,481.2223425640259,482.0637545962236,"[43, 0, 211]",211,a,0.28031353285769,colour,0.5
149,24,0,1,7,36,336,482.57857147359755,483.31973120803013,"[22, 0, 232]",232,a,0.22342091414611787,colour,0.5
149,24,0,1,7,37,337,483.83687610871857,484.5757771367789,"[1, 0, 253]",253,a,0.2214812230085954,colour,0.5
149,24,0,1,7,38,338,485.08852435386507,485.9197243551607,"[0, 0, 254]",254,a,0.313913709949702,colour,0.5
149,24,0,1,7,39,339,486.43458770634606,487.25574896892067,"[37, 0, 217]",217,a,0.3029675502330065,colour,0.5
149,24,0,1,7,40,340,487.766708913201,488.5757712291088,"[12, 0, 242]",242,a,0.2907622651546262,colour,0.5
149,24,0,1,7,41,341,489.0978651975747,489.8397429131437,"[92, 0, 162]",162,l,0.21190525323618203,colour,0.5
149,24,0,1,7,42,342,490.36212911532493,491.1357752305921,"[36, 0, 218]",218,a,0.24434476642636582,colour,0.5
149,24,0,1,7,43,343,491.65205800248077,492.37576287955744,"[84, 0, 170]",170,l,0.20616022282047197,colour,0.5
149,24,0,1,7,44,344,492.8888570748968,493.71992119931383,"[63, 0, 191]",191,a,0.2985856205341406,colour,0.5
149,24,0,1,7,45,345,494.23290472396184,494.99972470174544,"[48, 0, 206]",206,a,0.24972155096475035,colour,0.5
149,24,0,1,7,46,346,495.5183603091864,496.28773634694517,"[4, 0, 250]",250,a,0.25094601791352034,colour,0.5
149,24,0,1,7,47,347,496.8038989958586,497.49572716560215,"[93, 0, 161]",161,l,0.16993860725779086,colour,0.5
149,24,0,1,7,48,348,498.0148574435734,498.751709291304,"[53, 0, 201]",201,a,0.21811344649177045,colour,0.5
149,24,0,1,7,49,349,499.2704134279629,500.0397492934717,"[72, 0, 182]",182,a,0.25057265197392553,colour,0.5
149,24,0,1,7,50,350,500.56537881679833,501.34369988314575,"[77, 0, 177]",177,a,0.2549549755640328,colour,0.5
149,24,0,1,8,1,351,517.3482287173974,518.1437124074437,"[22, 0, 232]",232,a,0.2713755935546942,colour,0.5
149,24,0,1,8,2,352,518.6614705261891,519.2560037872172,"[64, 0, 190]",190,a,0.07104468415491283,colour,0.5
149,24,0,1,8,3,353,519.7708202708163,520.4077274145093,"[84, 0, 170]",170,l,0.11397782800486311,colour,0.5
149,24,0,1,8,4,354,520.9270774584729,521.5998316702899,"[75, 0, 179]",179,l,0.1481636540265754,colour,0.5
149,24,0,1,8,5,355,522.1366133347037,522.8156698688981,"[99, 0, 155]",155,l,0.15690821496536955,colour,0.5
149,24,0,1,8,6,356,523.3228993046214,523.9677928559831,"[65, 0, 189]",189,a,0.12146247597411275,colour,0.5
149,24,0,1,8,7,357,524.4791718523484,525.2008338505984,"[8, 0, 246]",246,a,0.19838334125233814,colour,0.5
149,24,0,1,8,8,358,525.7127606866416,526.5277267528581,"[34, 0, 220]",220,a,0.2915767385275103,colour,0.5
149,24,0,1,8,9,359,527.0449492411572,527.7598107019439,"[25, 0, 229]",229,a,0.19025239226175472,colour,0.5
149,24,0,1,8,10,360,528.280670357286,528.9597064115223,"[19, 0, 235]",235,a,0.1557546402909793,colour,0.5
149,24,0,1,8,11,361,529.4680752435233,530.1998602634994,"[21, 0, 233]",233,a,0.20838466461282223,colour,0.5
149,24,0,1,8,12,362,530.7181299880613,531.4397388171637,"[74, 0, 180]",180,l,0.2056462538894266,colour,0.5
149,24,0,1,8,13,363,531.9619588163332,532.6637449863483,"[38, 0, 216]",216,a,0.1835231407894753,colour,0.5
149,24,0,1,8,14,364,533.1815736035351,533.8796698311344,"[62, 0, 192]",192,a,0.18053227488417178,colour,0.5
149,24,0,1,8,15,365,534.4033777801669,535.0797120513744,"[11, 0, 243]",243,a,0.14415627176640555,colour,0.5
149,24,0,1,8,16,366,535.593978726014,536.3437821969274,"[32, 0, 222]",222,a,0.23254593031015247,colour,0.5
149,24,0,1,8,17,367,536.8630735578481,537.5516887325794,"[17, 0, 237]",237,a,0.1692040846683085,colour,0.5
149,24,0,1,8,18,368,538.0712699640426,538.9277182457736,"[71, 0, 183]",183,a,0.3377291788929142,colour,0.5
149,24,0,1,8,19,369,539.4498590819421,540.0397106965538,"[88, 0, 166]",166,l,0.07058309676358476,colour,0.5
149,24,0,1,8,20,370,540.5491661494598,541.2637168657384,"[97, 0, 157]",157,l,0.19625499786343426,colour,0.5
149,24,0,1,8,21,371,541.775961929292,542.4476929293596,"[24, 0, 230]",230,a,0.12840007181512192,colour,0.5
149,24,0,1,8,22,372,542.9686096924124,543.7276917793788,"[23, 0, 231]",231,a,0.23650683875894174,colour,0.5
149,24,0,1,8,23,373,544.2340586925275,544.9037893491914,"[83, 0, 171]",171,l,0.14638031972572207,colour,0.5
149,24,0,1,8,24,374,545.4215923663578,546.1119491277495,"[20, 0, 234]",234,a,0.167141119716689,colour,0.5
149,24,0,1,8,25,375,546.6291653144872,547.2877016885323,"[57, 0, 197]",197,a,0.13531206775223836,colour,0.5
149,24,0,1,8,26,376,547.8021904922789,548.4717088659527,"[35, 0, 219]",219,a,0.1461270767613314,colour,0.5
149,24,0,1,8,27,377,548.9897623691359,549.6636673987377,"[77, 0, 177]",177,l,0.1540949735790491,colour,0.5
149,24,0,1,8,28,378,550.1737841189024,550.8957021170063,"[67, 0, 187]",187,l,0.19886777171632275,colour,0.5
149,24,0,1,8,29,379,551.4080830573803,552.1517145688413,"[30, 0, 224]",224,a,0.21758569299709052,colour,0.5
149,24,0,1,8,30,380,552.6732169807656,553.3756778088282,"[27, 0, 227]",227,a,0.18534467817516997,colour,0.5
149,24,0,1,8,31,381,553.8948864621343,554.4397092786967,"[54, 0, 200]",200,a,0.027153313159942627,colour,0.5
149,24,0,1,8,32,382,554.9610758138006,555.6397093574633,"[43, 0, 211]",211,a,0.15989908092888072,colour,0.5
149,24,0,1,8,33,383,556.1525097437552,556.7037203473737,"[82, 0, 172]",172,l,0.03327328496379778,colour,0.5
149,24,0,1,8,34,384,557.2201279684086,557.895710387791,"[50, 0, 204]",204,a,0.1566435505519621,colour,0.5
149,24,0,1,8,35,385,558.4125858978368,559.1276836661273,"[72, 0, 182]",182,l,0.19654329313198105,colour,0.5
149,24,0,1,8,36,386,559.6504121203907,560.5116767439176,"[41, 0, 213]",213,a,0.3430039574159309,colour,0.5
149,24,0,1,8,37,387,561.0276696452056,562.0876606497914,"[31, 0, 223]",223,a,0.5387323832837865,colour,0.5
149,24,0,1,8,38,388,562.60605246661,563.3517729368177,"[96, 0, 158]",158,l,0.22611048794351518,colour,0.5
149,24,0,1,8,39,389,563.8758191995439,564.6396798190544,"[12, 0, 242]",242,a,0.2453963350271806,colour,0.5
149,24,0,1,8,40,390,565.1609679787653,565.807744901278,"[48, 0, 206]",206,a,0.12938153586583212,colour,0.5
149,24,0,1,8,41,391,566.3202810169896,566.8797111849417,"[5, 0, 249]",249,a,0.025757523253560066,colour,0.5
149,24,0,1,8,42,392,567.4034994785907,568.1277013891959,"[53, 0, 201]",201,a,0.2053398417774588,colour,0.5
149,24,0,1,8,43,393,568.6429459832725,569.2956869145855,"[79, 0, 175]",175,l,0.13468191429274157,colour,0.5
149,24,0,1,8,44,394,569.818702482502,570.5197135637864,"[85, 0, 169]",169,l,0.18062207178445533,colour,0.5
149,24,0,1,8,45,395,571.0422549411887,571.6636780325789,"[98, 0, 156]",156,l,0.10581340210046619,colour,0.5
149,24,0,1,8,46,396,572.1797434015316,572.927730061172,"[37, 0, 217]",217,a,0.21847775398055092,colour,0.5
149,24,0,1,8,47,397,573.4401098199887,574.0637384485453,"[78, 0, 176]",176,l,0.10684291535289958,colour,0.5
149,24,0,1,8,48,398,574.5826954342192,575.2236741571105,"[39, 0, 215]",215,a,0.12365147157106549,colour,0.5
149,24,0,1,8,49,399,575.7408454454271,576.4396813156782,"[16, 0, 238]",238,a,0.18145387439290062,colour,0.5
149,24,0,1,8,50,400,576.9538231411716,577.6956921921228,"[73, 0, 181]",181,a,0.21653491212055087,colour,0.5
149,24,0,1,9,1,401,583.2721361099975,583.8397626054357,"[99, 0, 155]",155,l,0.043501463485881686,colour,0.5
149,24,0,1,9,2,402,584.3510057249805,584.9597268914804,"[54, 0, 200]",200,a,0.0854267556569539,colour,0.5
149,24,0,1,9,3,403,585.4759561003884,586.1437112258864,"[42, 0, 212]",212,a,0.1443854901008308,colour,0.5
149,24,0,1,9,4,404,586.6634779588203,587.3276561757084,"[5, 0, 249]",249,a,0.13443851750344038,colour,0.5
149,24,0,1,9,5,405,587.8345642331406,588.4876619888237,"[69, 0, 185]",185,a,0.1390571485972032,colour,0.5
149,24,0,1,9,6,406,588.9882492131437,589.6316697807051,"[12, 0, 242]",242,a,0.12544189515756443,colour,0.5
149,24,0,1,9,7,407,590.1390445455909,590.7676809249679,"[46, 0, 208]",208,a,0.10543885466177016,colour,0.5
149,24,0,1,9,8,408,591.279667625553,591.9036420508055,"[71, 0, 183]",183,a,0.10066780517809093,colour,0.5
149,24,0,1,9,9,409,592.4126552147209,593.1596978256712,"[18, 0, 236]",236,a,0.19564611208625138,colour,0.5
149,24,0,1,9,10,410,593.6827370243846,594.3996874439181,"[79, 0, 175]",175,a,0.18491617386462167,colour,0.5
149,24,0,1,9,11,411,594.9150076563819,595.519663545303,"[63, 0, 191]",191,a,0.08719709306024015,colour,0.5
149,24,0,1,9,12,412,596.0425491441274,596.7276480624569,"[43, 0, 211]",211,a,0.15269406366860494,colour,0.5
149,24,0,1,9,13,413,597.2482186349225,598.0316455197753,"[75, 0, 179]",179,a,0.26510753569891676,colour,0.5
149,24,0,1,9,14,414,598.548979860323,599.2716694026021,"[48, 0, 206]",206,a,0.2034017259720713,colour,0.5
149,24,0,1,9,15,415,599.7880423652241,600.9356802349212,"[49, 0, 205]",205,a,0.6296190249267966,colour,0.5
149,24,0,1,9,16,416,601.45839608612,602.2316369339242,"[89, 0, 165]",165,l,0.24993659078609198,colour,0.5
149,24,0,1,9,17,417,602.7433707854943,603.3996484531672,"[28, 0, 226]",226,a,0.12681720510590822,colour,0.5
149,24,0,1,9,18,418,603.9057219511014,604.703697110468,"[15, 0, 239]",239,a,0.27479614538606256,colour,0.5
149,24,0,1,9,19,419,605.2182725602761,605.9836439727806,"[55, 0, 199]",199,a,0.24205337086459622,colour,0.5
149,24,0,1,9,20,420,606.4995911879814,607.1116840694449,"[19, 0, 235]",235,a,0.08892883366206661,colour,0.5
149,24,0,1,9,21,421,607.6310049687745,608.2956542253378,"[84, 0, 170]",170,l,0.14136626722756773,colour,0.5
149,24,0,1,9,22,422,608.802818676515,609.5199065482593,"[45, 0, 209]",209,a,0.20633627194911242,colour,0.5
149,24,0,1,9,23,423,610.0328483252088,610.727658696298,"[70, 0, 184]",184,a,0.17174281546613201,colour,0.5
149,24,0,1,9,24,424,611.2358526606695,611.8957044801209,"[11, 0, 243]",243,a,0.13690399297047406,colour,0.5
149,24,0,1,9,25,425,612.4133023035247,613.0476254241657,"[97, 0, 157]",157,l,0.10214787808945403,colour,0.5
149,24,0,1,9,26,426,613.5667675174773,614.1276403430966,"[67, 0, 187]",187,a,0.04367357422597706,colour,0.5
149,24,0,1,9,27,427,614.6490096350899,615.3357154447585,"[10, 0, 244]",244,a,0.15631271997699514,colour,0.5
149,24,0,1,9,28,428,615.8513475832297,616.4956921133562,"[33, 0, 221]",221,a,0.12745444779284298,colour,0.5
149,24,0,1,9,29,429,617.0153773201746,617.6316481191898,"[39, 0, 215]",215,a,0.09699716116301715,colour,0.5
149,24,0,1,9,30,430,618.1476748912246,618.6956882536178,"[59, 0, 195]",195,a,0.02014088653959334,colour,0.5
149,24,0,1,9,31,431,619.2108146939427,619.8957115693484,"[57, 0, 197]",197,a,0.16582055436447263,colour,0.5
149,24,0,1,9,32,432,620.4042855950538,621.0316825413029,"[35, 0, 219]",219,a,0.1091197386267595,colour,0.5
149,24,0,1,9,33,433,621.5503925856319,622.1597179117962,"[94, 0, 160]",160,l,0.0850029774592258,colour,0.5
149,24,0,1,9,34,434,622.6715911848005,623.3677374812542,"[76, 0, 178]",178,l,0.1345523389754817,colour,0.5
149,24,0,1,9,35,435,623.8825078848167,624.5357151296921,"[41, 0, 213]",213,a,0.1302751722978428,colour,0.5
149,24,0,1,9,36,436,625.0546130385483,625.7356577069731,"[52, 0, 202]",202,a,0.1587470816448331,colour,0.5
149,24,0,1,9,37,437,626.2420647923718,626.9916445587878,"[78, 0, 176]",176,l,0.22643422929104418,colour,0.5
149,24,0,1,9,38,438,627.5090907515842,628.135607058357,"[98, 0, 156]",156,l,0.10349719424266368,colour,0.5
149,24,0,1,9,39,439,628.6496311239316,629.5196143146022,"[65, 0, 189]",189,a,0.3466159183299169,colour,0.5
149,24,0,1,9,40,440,630.0402171824244,630.7117989148828,"[0, 0, 254]",254,a,0.1482290324056521,colour,0.5
149,24,0,1,9,41,441,631.2277591269813,631.9356030411436,"[22, 0, 232]",232,a,0.18448294332483783,colour,0.5
149,24,0,1,9,42,442,632.4439931408269,633.1181837086915,"[91, 0, 163]",163,l,0.15563333575846627,colour,0.5
149,24,0,1,9,43,443,633.6311841686838,634.3196662234841,"[6, 0, 248]",248,a,0.1651218716870062,colour,0.5
149,24,0,1,9,44,444,634.8342495502438,635.5596369371051,"[17, 0, 237]",237,a,0.2020153883495368,colour,0.5
149,24,0,1,9,45,445,636.0684961072402,637.0316750582424,"[16, 0, 238]",238,a,0.4386868546716869,colour,0.5
149,24,0,1,9,46,446,637.541035988077,638.2636975673377,"[13, 0, 241]",241,a,0.1992557100020349,colour,0.5
149,24,0,1,9,47,447,638.7754652895965,639.5836091567762,"[58, 0, 196]",196,a,0.28467340720817447,colour,0.5
149,24,0,1,9,48,448,640.1036669418681,640.9196487367153,"[74, 0, 180]",180,a,0.29266099631786346,colour,0.5
149,24,0,1,9,49,449,641.4317933695274,642.1996869712602,"[4, 0, 250]",250,a,0.244613369286526,colour,0.5
149,24,0,1,9,50,450,642.7133727231994,643.3836539764307,"[77, 0, 177]",177,a,0.14341190294362605,colour,0.5
149,24,0,1,10,1,451,647.8631653239136,649.1596655303147,"[63, 0, 191]",191,a,0.7723483929294161,colour,0.5
149,24,0,1,10,2,452,649.6764441542327,650.3916545624961,"[71, 0, 183]",183,a,0.19183210819028318,colour,0.5
149,24,0,1,10,3,453,650.9108608526876,652.3116345236194,"[73, 0, 181]",181,a,0.8758054149220698,colour,0.5
149,24,0,1,10,4,454,652.8179585075704,653.6476961589069,"[35, 0, 219]",219,a,0.3118826465215534,colour,0.5
149,24,0,1,10,5,455,654.1600156593486,654.8796410803334,"[66, 0, 188]",188,a,0.19493758329190314,colour,0.5
149,24,0,1,10,6,456,655.3966571933706,656.039701638103,"[24, 0, 230]",230,a,0.11961061239708215,colour,0.5
149,24,0,1,10,7,457,656.5530155994929,657.2316180293565,"[8, 0, 246]",246,a,0.1553863943554461,colour,0.5
149,24,0,1,10,8,458,657.7340768094291,658.3996464839438,"[91, 0, 163]",163,l,0.1422303652507253,colour,0.5
149,24,0,1,10,9,459,658.9059393540374,659.5836245167884,"[99, 0, 155]",155,l,0.15495552693028003,colour,0.5
149,24,0,1,10,10,460,660.0934734217008,660.6636614910094,"[65, 0, 189]",189,a,0.04739384277490899,colour,0.5
149,24,0,1,10,11,461,661.1715506186592,661.8876416663988,"[43, 0, 211]",211,a,0.19331139349378645,colour,0.5
149,24,0,1,10,12,462,662.3982692047139,663.063628171687,"[64, 0, 190]",190,a,0.14980717306025326,colour,0.5
149,24,0,1,10,13,463,663.582644234295,664.2236339848023,"[6, 0, 248]",248,a,0.12278461665846407,colour,0.5
149,24,0,1,10,14,464,664.7421923984657,665.3596809690935,"[59, 0, 195]",195,a,0.08663428731961176,colour,0.5
149,24,0,1,10,15,465,665.8689095667214,666.5198368375422,"[20, 0, 234]",234,a,0.12401971750659868,colour,0.5
149,24,0,1,10,16,466,667.0386898479192,667.6956315398565,"[49, 0, 205]",205,a,0.1398771358653903,colour,0.5
149,24,0,1,10,17,467,668.2142691165209,668.80760626751,"[19, 0, 235]",235,a,0.07470548199489713,colour,0.5
149,24,0,1,10,18,468,669.3186422240688,669.9356365180574,"[44, 0, 210]",210,a,0.09817318507703021,colour,0.5
149,24,0,1,10,19,469,670.44954676216,671.0556449148571,"[98, 0, 156]",156,l,0.08695093943970278,colour,0.5
149,24,0,1,10,20,470,671.5800688758027,672.1356350214337,"[32, 0, 222]",222,a,0.03744293173076585,colour,0.5
149,24,0,1,10,21,471,672.6539047459955,673.3036737160292,"[12, 0, 242]",242,a,0.12777818914037198,colour,0.5
149,24,0,1,10,22,472,673.8200332878623,674.4876765611698,"[72, 0, 182]",182,a,0.13505882484605536,colour,0.5
149,24,0,1,10,23,473,675.0099166464643,675.5516268987558,"[40, 0, 214]",214,a,0.017500543501228094,colour,0.5
149,24,0,1,10,24,474,676.0670475419611,676.7037628827384,"[45, 0, 209]",209,a,0.10489337804028764,colour,0.5
149,24,0,1,10,25,475,677.2252318177489,677.8316332317772,"[56, 0, 198]",198,a,0.08783039730042219,colour,0.5
149,24,0,1,10,26,476,678.3406853864435,678.951602637826,"[90, 0, 164]",164,l,0.09227691777050495,colour,0.5
149,24,0,1,10,27,477,679.47082586342,680.1279349398101,"[23, 0, 231]",231,a,0.13834704441251233,colour,0.5
149,24,0,1,10,28,478,680.6474039252498,681.2956179915345,"[83, 0, 171]",171,l,0.12953159119933844,colour,0.5
149,24,0,1,10,29,479,681.8058493208955,682.463608243037,"[80, 0, 174]",174,l,0.12819645350100473,colour,0.5
149,24,0,1,10,30,480,682.9772120750276,683.55962709093,"[17, 0, 237]",237,a,0.06491486623417586,colour,0.5
149,24,0,1,10,31,481,684.0843358025304,684.6877014522324,"[51, 0, 203]",203,a,0.08100465370807797,colour,0.5
149,24,0,1,10,32,482,685.1938269378152,685.8317379947985,"[1, 0, 253]",253,a,0.11567727319197729,colour,0.5
149,24,0,1,10,33,483,686.3498911409988,686.9916099003749,"[11, 0, 243]",243,a,0.11856376996729523,colour,0.5
149,24,0,1,10,34,484,687.5088666532538,688.1276104107965,"[48, 0, 206]",206,a,0.10165911534568295,colour,0.5
149,24,0,1,10,35,485,688.6441023148946,689.7115795427235,"[2, 0, 252]",252,a,0.5449858687934466,colour,0.5
149,24,0,1,10,36,486,690.2213232907816,690.9356589672389,"[77, 0, 177]",177,l,0.18659671436762437,colour,0.5
149,24,0,1,10,37,487,691.4444661497255,692.16763618408,"[0, 0, 254]",254,a,0.19982009119121358,colour,0.5
149,24,0,1,10,38,488,692.6788863927941,693.4955499349744,"[14, 0, 240]",240,a,0.29821816232288256,colour,0.5
149,24,0,1,10,39,489,694.0157046061358,694.8315958164167,"[62, 0, 192]",192,a,0.29875300504500046,colour,0.5
149,24,0,1,10,40,490,695.3444702457637,696.0796769991284,"[81, 0, 173]",173,l,0.2172383209108375,colour,0.5
149,24,0,1,10,41,491,696.5963000538759,697.2236268955749,"[85, 0, 169]",169,l,0.10962779982946813,colour,0.5
149,24,0,1,10,42,492,697.7406953901518,698.5035926625133,"[82, 0, 172]",172,l,0.2443286187481135,colour,0.5
149,24,0,1,10,43,493,699.0265314304852,699.6716262371046,"[38, 0, 216]",216,a,0.12693102657794952,colour,0.5
149,24,0,1,10,44,494,700.1884477902204,700.8956146832206,"[39, 0, 215]",215,a,0.18888298992533237,colour,0.5
149,24,0,1,10,45,495,701.4104508590535,702.1675944363815,"[52, 0, 202]",202,a,0.24015345808584243,colour,0.5
149,24,0,1,10,46,496,702.6778151319013,703.3436356862658,"[61, 0, 193]",193,a,0.13580476900096983,colour,0.5
149,24,0,1,10,47,497,703.8619010785478,704.5836138829472,"[13, 0, 241]",241,a,0.1920822003739886,colour,0.5
149,24,0,1,10,48,498,705.0938629353186,705.8236196488142,"[33, 0, 221]",221,a,0.19787055387860164,colour,0.5
149,24,0,1,10,49,499,706.3428121544421,707.0795844453387,"[67, 0, 187]",187,a,0.21988299628719687,colour,0.5
149,24,0,1,10,50,500,707.5928412990179,708.3515693185036,"[92, 0, 162]",162,l,0.2418765340698883,colour,0.5
149,24,0,1,11,1,501,712.862307921343,713.423643515911,"[42, 0, 212]",212,a,0.04846589139197022,colour,0.5
149,24,0,1,11,2,502,713.9402799614472,714.5835997044924,"[1, 0, 253]",253,a,0.12396103446371853,colour,0.5
149,24,0,1,11,3,503,715.1028536500526,715.7115586688742,"[9, 0, 245]",245,a,0.07564047223422676,colour,0.5
149,24,0,1,11,4,504,716.231670804671,716.8397212516284,"[99, 0, 155]",155,l,0.08978308539371938,colour,0.5
149,24,0,1,11,5,505,717.3511014295509,718.0555917456513,"[77, 0, 177]",177,l,0.1862662776838988,colour,0.5
149,24,0,1,11,6,506,718.5734223320032,719.1276690938394,"[49, 0, 205]",205,a,0.035249209962785244,colour,0.5
149,24,0,1,11,7,507,719.6419771222863,720.2875839286135,"[64, 0, 190]",190,a,0.12707281112670898,colour,0.5
149,24,0,1,11,8,508,720.8032219747547,721.4395990018384,"[46, 0, 208]",208,a,0.10217505344189703,colour,0.5
149,24,0,1,11,9,509,721.9629721819074,722.5916121058981,"[83, 0, 171]",171,l,0.11163798940833658,colour,0.5
149,24,0,1,11,10,510,723.1033030282124,723.7436476591392,"[37, 0, 217]",217,a,0.11794858262874186,colour,0.5
149,24,0,1,11,11,511,724.2544453389128,724.9517684469465,"[65, 0, 189]",189,a,0.18071580707328394,colour,0.5
149,24,0,1,11,12,512,725.4730254928581,726.1436426967266,"[76, 0, 178]",178,a,0.1533486355911009,colour,0.5
149,24,0,1,11,13,513,726.66132716625,727.3356063494575,"[11, 0, 243]",243,a,0.1571228610118851,colour,0.5
149,24,0,1,11,14,514,727.850528777577,728.4716241891147,"[31, 0, 223]",223,a,0.10293478227686137,colour,0.5
149,24,0,1,11,15,515,728.9956129502971,729.719649839506,"[21, 0, 233]",233,a,0.20306813850766048,colour,0.5
149,24,0,1,11,16,516,730.2373173736851,730.9115957691683,"[92, 0, 162]",162,l,0.1561981107806787,colour,0.5
149,24,0,1,11,17,517,731.4291538141551,732.1355987876304,"[86, 0, 168]",168,l,0.1884970209794119,colour,0.5
149,24,0,1,11,18,518,732.6589294322766,733.3035776176257,"[66, 0, 188]",188,a,0.11659650958608836,colour,0.5
149,24,0,1,11,19,519,733.8134985963698,734.4636310861097,"[89, 0, 165]",165,l,0.12059207644779235,colour,0.5
149,24,0,1,11,20,520,734.9829255978111,735.6316166114993,"[20, 0, 234]",234,a,0.125027175352443,colour,0.5
149,24,0,1,11,21,521,736.1476878881804,736.7916074584937,"[59, 0, 195]",195,a,0.11237881355918944,colour,0.5
149,24,0,1,11,22,522,737.3044803124503,737.9275457412587,"[6, 0, 248]",248,a,0.10462477506371215,colour,0.5
149,24,0,1,11,23,523,738.4489512671134,739.0875806990662,"[58, 0, 196]",196,a,0.11926954187219962,colour,0.5
149,24,0,1,11,24,524,739.6097195659531,740.2076091819908,"[79, 0, 175]",175,l,0.08017915266100317,colour,0.5
149,24,0,1,11,25,525,740.7246717688395,741.4636350245564,"[75, 0, 179]",179,l,0.22012836224166676,colour,0.5
149,24,0,1,11,26,526,741.9783691943157,742.7195293226396,"[70, 0, 184]",184,l,0.22263519157422706,colour,0.5
149,24,0,1,11,27,527,743.2360007467796,743.919602656737,"[35, 0, 219]",219,a,0.16094356030225754,colour,0.5
149,24,0,1,11,28,528,744.4421243419056,745.0875822744565,"[27, 0, 227]",227,a,0.12845048413146287,colour,0.5
149,24,0,1,11,29,529,745.5992515352555,746.3275537757436,"[73, 0, 181]",181,a,0.2109655368840322,colour,0.5
149,24,0,1,11,30,530,746.8501628946979,747.5836079752189,"[24, 0, 230]",230,a,0.21022707578958943,colour,0.5
149,24,0,1,11,31,531,748.0936557723908,748.6395986867719,"[67, 0, 187]",187,a,0.02654954738682136,colour,0.5
149,24,0,1,11,32,532,749.1627375285025,749.8555660668644,"[74, 0, 180]",180,a,0.17302242084406316,colour,0.5
149,24,0,1,11,33,533,750.3710339716054,751.0316077105817,"[13, 0, 241]",241,a,0.14218152832472697,colour,0.5
149,24,0,1,11,34,534,751.5476423595683,752.1995979620842,"[98, 0, 156]",156,l,0.13363113335799426,colour,0.5
149,24,0,1,11,35,535,752.7209278694936,753.3755702889175,"[53, 0, 201]",201,a,0.12509215995669365,colour,0.5
149,24,0,1,11,36,536,753.8850761540816,754.4635790984612,"[39, 0, 215]",215,a,0.047036624513566494,colour,0.5
149,24,0,1,11,37,537,754.979990658001,756.5835681968019,"[19, 0, 235]",235,a,1.0719020867254585,colour,0.5
149,24,0,1,11,38,538,757.0970101581188,757.7515942883329,"[38, 0, 216]",216,a,0.13709185749758035,colour,0.5
149,24,0,1,11,39,539,758.2705749048037,758.9275366828078,"[4, 0, 250]",250,a,0.13895908097038046,colour,0.5
149,24,0,1,11,40,540,759.449255316169,760.1756044747308,"[29, 0, 225]",225,a,0.20797388325445354,colour,0.5
149,24,0,1,11,41,541,760.6864954960183,761.287636703928,"[2, 0, 252]",252,a,0.06850122718606144,colour,0.5
149,24,0,1,11,42,542,761.8009349114727,762.4476133725257,"[5, 0, 249]",249,a,0.12901132070692256,colour,0.5
149,24,0,1,11,43,543,762.9630253511132,763.6235656131757,"[72, 0, 182]",182,a,0.13776060787495226,colour,0.5
149,24,0,1,11,44,544,764.1438817611779,764.759549188253,"[84, 0, 170]",170,l,0.09019662364153191,colour,0.5
149,24,0,1,11,45,545,765.2792824442731,765.8956079878262,"[32, 0, 222]",222,l,0.09537609131075442,colour,0.5
149,24,0,1,11,46,546,766.4110632895026,767.0475797380786,"[95, 0, 159]",159,l,0.11929159722058102,colour,0.5
149,24,0,1,11,47,547,767.5691156268585,768.5275841806433,"[51, 0, 203]",203,a,0.4412196777993813,colour,0.5
149,24,0,1,11,48,548,769.039039189287,769.69554528757,"[80, 0, 174]",174,l,0.1384329028078355,colour,0.5
149,24,0,1,11,49,549,770.2164707152406,770.8235424550367,"[7, 0, 247]",247,a,0.08900917816208676,colour,0.5
149,24,0,1,11,50,550,771.3430913912016,772.1035609972896,"[16, 0, 238]",238,a,0.24216640461236238,colour,0.5
149,24,0,1,12,1,551,782.6446718160878,783.3995622008806,"[56, 0, 198]",198,a,0.23002767947036773,colour,0.5
149,24,0,1,12,2,552,783.9219456461142,784.551642652601,"[91, 0, 163]",163,l,0.0854606264620088,colour,0.5
149,24,0,1,12,3,553,785.0682054489735,785.671578581736,"[2, 0, 252]",252,a,0.07998262351611629,colour,0.5
149,24,0,1,12,4,554,786.1775650397176,786.8956158647779,"[71, 0, 183]",183,a,0.19464731885818765,colour,0.5
149,24,0,1,12,5,555,787.4119754366111,788.0635021409835,"[9, 0, 245]",245,a,0.12683492817450315,colour,0.5
149,24,0,1,12,6,556,788.5694051036262,789.135547193815,"[32, 0, 222]",222,a,0.0405212314799428,colour,0.5
149,24,0,1,12,7,557,789.6501541513135,791.471532816824,"[65, 0, 189]",189,a,1.2980153316166252,colour,0.5
149,24,0,1,12,8,558,791.9782801851397,792.7436189083965,"[23, 0, 231]",231,a,0.24195097089977935,colour,0.5
149,24,0,1,12,9,559,793.2582140505547,793.9675415823003,"[77, 0, 177]",177,a,0.1947312080883421,colour,0.5
149,24,0,1,12,10,560,794.4917154510622,796.5515260741813,"[12, 0, 242]",242,a,1.5292532996390946,colour,0.5
149,24,0,1,12,11,561,797.0757637460483,797.8395676517393,"[84, 0, 170]",170,l,0.2463096637511626,colour,0.5
149,24,0,1,12,12,562,798.3562856233912,798.8875908602495,"[69, 0, 185]",185,a,0.012891758524347097,colour,0.5
149,24,0,1,12,13,563,799.4082760419114,800.1675562333548,"[19, 0, 235]",235,a,0.24040276260348037,colour,0.5
149,24,0,1,12,14,564,800.6787568174768,801.287596925511,"[62, 0, 192]",192,a,0.09088900475762784,colour,0.5
149,24,0,1,12,15,565,801.810432112019,802.5595798294526,"[10, 0, 244]",244,a,0.23059324227506295,colour,0.5
149,24,0,1,12,16,566,803.0791134056053,803.7675891588442,"[81, 0, 173]",173,l,0.1606466004741378,colour,0.5
149,24,0,1,12,17,567,804.2871388826752,805.1035743880784,"[52, 0, 202]",202,a,0.28831923892721534,colour,0.5
149,24,0,1,12,18,568,805.6132822961663,806.3915643717628,"[79, 0, 175]",175,l,0.2464951651636511,colour,0.5
149,24,0,1,12,19,569,806.9094670319464,807.7035305136233,"[28, 0, 226]",226,a,0.27656923967879266,colour,0.5
149,24,0,1,12,20,570,808.2192457536003,808.9995746464119,"[49, 0, 205]",205,a,0.26172912534093484,colour,0.5
149,24,0,1,12,21,571,809.5197115945048,810.2475597307202,"[57, 0, 197]",197,a,0.20855323068099096,colour,0.5
149,24,0,1,12,22,572,810.7609363135416,811.4155196560896,"[3, 0, 251]",251,a,0.13543534150812775,colour,0.5
149,24,0,1,12,23,573,811.9390361960395,812.5995091104414,"[50, 0, 204]",204,a,0.14249463577289134,colour,0.5
149,24,0,1,12,24,574,813.1137155267061,813.8716334050987,"[47, 0, 207]",207,a,0.22761734249070287,colour,0.5
149,24,0,1,12,25,575,814.3901032034191,815.0955190574168,"[99, 0, 155]",155,l,0.1615260583930649,colour,0.5
149,24,0,1,12,26,576,815.6066207862459,816.3275506249629,"[76, 0, 178]",178,a,0.1888959868811071,colour,0.5
149,24,0,1,12,27,577,816.8424242162146,817.4635842184653,"[15, 0, 239]",239,a,0.10028104844968766,colour,0.5
149,24,0,1,12,28,578,817.9744665750768,818.6554950958234,"[27, 0, 227]",227,a,0.1516637626918964,colour,0.5
149,24,0,1,12,29,579,819.1775559812668,819.8075310429558,"[24, 0, 230]",230,a,0.1108176083653234,colour,0.5
149,24,0,1,12,30,580,820.3242399561568,821.0556082871626,"[58, 0, 196]",196,a,0.21291192341595888,colour,0.5
149,24,0,1,12,31,581,821.578963744163,822.6395533945179,"[39, 0, 215]",215,a,0.5421387566602789,colour,0.5
149,24,0,1,12,32,582,823.1616044337861,823.9035526477965,"[59, 0, 195]",195,a,0.21920203667832538,colour,0.5
149,24,0,1,12,33,583,824.4183864605147,825.1835278669605,"[14, 0, 240]",240,a,0.24615173146594316,colour,0.5
149,24,0,1,12,34,584,825.6947032450116,826.4316949080676,"[78, 0, 176]",176,l,0.21970300865359604,colour,0.5
149,24,0,1,12,35,585,826.9452707769815,827.7276547578513,"[85, 0, 169]",169,l,0.26445335760945454,colour,0.5
149,24,0,1,12,36,586,828.2445984032238,829.0715574715869,"[36, 0, 218]",218,a,0.30302505171857774,colour,0.5
149,24,0,1,12,37,587,829.5827844433952,830.3275592895807,"[33, 0, 221]",221,a,0.22631568170618266,colour,0.5
149,24,0,1,12,38,588,830.8375031113974,831.5676304338849,"[92, 0, 162]",162,l,0.20756270812125877,colour,0.5
149,24,0,1,12,39,589,832.0827143388451,832.751709685137,"[38, 0, 216]",216,a,0.15113876608666033,colour,0.5
149,24,0,1,12,40,590,833.2613801779225,834.0475281442632,"[41, 0, 213]",213,a,0.26485429279273376,colour,0.5
149,24,0,1,12,41,591,834.5676505200681,835.3995236040209,"[4, 0, 250]",250,a,0.2856257266830653,colour,0.5
149,24,0,1,12,42,592,835.9109207172878,836.6075790133909,"[96, 0, 158]",158,l,0.16571067133918405,colour,0.5
149,24,0,1,12,43,593,837.1303251907229,837.8715806297259,"[89, 0, 165]",165,l,0.21600164467236027,colour,0.5
149,24,0,1,12,44,594,838.3910377997672,839.1355810645618,"[1, 0, 253]",253,a,0.21310096950037405,colour,0.5
149,24,0,1,12,45,595,839.6582551680622,840.5515528557007,"[26, 0, 228]",228,a,0.3756608734256588,colour,0.5
149,24,0,1,12,46,596,841.0664709515404,841.8155473828083,"[7, 0, 247]",247,a,0.22990519338054582,colour,0.5
149,24,0,1,12,47,597,842.337748083577,843.039504321292,"[73, 0, 181]",181,l,0.18130421289242804,colour,0.5
149,24,0,1,12,48,598,843.5561750314664,844.2235441879602,"[87, 0, 167]",167,l,0.14526022190693766,colour,0.5
149,24,0,1,12,49,599,844.7353300271207,845.3275502311299,"[53, 0, 201]",201,a,0.06388377764960751,colour,0.5
149,24,0,1,12,50,600,845.8451484484249,846.4875091766589,"[48, 0, 206]",206,a,0.12355537316761911,colour,0.5
149,24,0,1,13,1,601,851.0927298406023,851.7115799365565,"[85, 0, 169]",169,l,0.09943467355333269,colour,0.5
149,24,0,1,13,2,602,852.2239171600668,853.0074941001949,"[96, 0, 158]",158,l,0.26104107656283304,colour,0.5
149,24,0,1,13,3,603,853.5272876146482,854.1755371270701,"[15, 0, 239]",239,a,0.1322707895305939,colour,0.5
149,24,0,1,13,4,604,854.6986830580281,855.4555686662789,"[78, 0, 176]",176,a,0.23806449939729646,colour,0.5
149,24,0,1,13,5,605,855.9664565367857,856.7114806873724,"[30, 0, 224]",224,a,0.2278571946080774,colour,0.5
149,24,0,1,13,6,606,857.2334427175228,857.903521533939,"[93, 0, 161]",161,l,0.15201979939593002,colour,0.5
149,24,0,1,13,7,607,858.4214470371953,859.1436131582595,"[11, 0, 243]",243,a,0.19044498290168121,colour,0.5
149,24,0,1,13,8,608,859.6579121282557,860.3035220853053,"[98, 0, 156]",156,l,0.12720159866148606,colour,0.5
149,24,0,1,13,9,609,860.8194393682061,861.5835232983809,"[69, 0, 185]",185,a,0.24496034759795293,colour,0.5
149,24,0,1,13,10,610,862.1060713711777,862.7755704464507,"[44, 0, 210]",210,a,0.15119508607313037,colour,0.5
149,24,0,1,13,11,611,863.2867438552203,863.9515065394226,"[82, 0, 172]",172,l,0.13707098364830017,colour,0.5
149,24,0,1,13,12,612,864.4521386621636,865.1767123633181,"[65, 0, 189]",189,a,0.20711923763155937,colour,0.5
149,24,0,1,13,13,613,865.6888751130318,866.2314770324738,"[67, 0, 187]",187,a,0.019524517643731087,colour,0.5
149,24,0,1,13,14,614,866.7513997284113,867.4314629328437,"[60, 0, 194]",194,a,0.1575360054266639,colour,0.5
149,24,0,1,13,15,615,867.9498472665437,868.6635169495712,"[45, 0, 209]",209,a,0.19034652138361707,colour,0.5
149,24,0,1,13,16,616,869.1842214296339,869.8955036186962,"[36, 0, 218]",218,a,0.19468591577606276,colour,0.5
149,24,0,1,13,17,617,870.411771818297,871.0475474427221,"[32, 0, 222]",222,a,0.11239456746261567,colour,0.5
149,24,0,1,13,18,618,871.5679951352067,872.1996566451271,"[68, 0, 186]",186,a,0.10926073545124382,colour,0.5
149,24,0,1,13,19,619,872.7087340059225,873.4396750141168,"[51, 0, 203]",203,a,0.20768007420701906,colour,0.5
149,24,0,1,13,20,620,873.958617427561,874.607490791881,"[84, 0, 170]",170,l,0.1354581845807843,colour,0.5
149,24,0,1,13,21,621,875.1216586112278,875.8395550486748,"[31, 0, 223]",223,a,0.1967630591825582,colour,0.5
149,24,0,1,13,22,622,876.3493102182983,877.1595146873151,"[41, 0, 213]",213,a,0.29080046818125993,colour,0.5
149,24,0,1,13,23,623,877.6871256494778,878.3594820768922,"[26, 0, 228]",228,a,0.14362103515304625,colour,0.5
149,24,0,1,13,24,624,878.8728149428498,879.567507160129,"[94, 0, 160]",160,l,0.17733936599688604,colour,0.5
149,24,0,1,13,25,625,880.0792524332064,880.7594680559705,"[83, 0, 171]",171,l,0.16116608324227855,colour,0.5
149,24,0,1,13,26,626,881.2714224611991,881.9195156167843,"[3, 0, 251]",251,a,0.12975214485777542,colour,0.5
149,24,0,1,13,27,627,882.4323569630506,883.1676381533034,"[29, 0, 225]",225,a,0.2170370656531304,colour,0.5
149,24,0,1,13,28,628,883.688732540817,884.3755647750804,"[76, 0, 178]",178,a,0.15634777228115126,colour,0.5
149,24,0,1,13,29,629,884.8935777121224,885.6475193221122,"[20, 0, 234]",234,a,0.23468451364897192,colour,0.5
149,24,0,1,13,30,630,886.1647299950127,886.9275402274216,"[39, 0, 215]",215,a,0.24044963024789467,colour,0.5
149,24,0,1,13,31,631,887.445945041196,888.1674877041369,"[70, 0, 184]",184,a,0.1983014213037677,colour,0.5
149,24,0,1,13,32,632,888.6887223008089,889.4315015297034,"[91, 0, 163]",163,l,0.21973254712065682,colour,0.5
149,24,0,1,13,33,633,889.9504482754273,890.6315075161983,"[46, 0, 208]",208,a,0.15769118070602417,colour,0.5
149,24,0,1,13,34,634,891.1380134569481,891.7914983631927,"[58, 0, 196]",196,a,0.13036063680192456,colour,0.5
149,24,0,1,13,35,635,892.3098322846927,893.0157380830497,"[43, 0, 211]",211,a,0.1829351288615726,colour,0.5
149,24,0,1,13,36,636,893.5285435892874,894.2554720952758,"[79, 0, 175]",175,l,0.20336943067377433,colour,0.5
149,24,0,1,13,37,637,894.7518168112729,895.4554824139923,"[38, 0, 216]",216,a,0.1863497729646042,colour,0.5
149,24,0,1,13,38,638,895.96966519946,896.7835336171556,"[64, 0, 190]",190,a,0.282163821044378,colour,0.5
149,24,0,1,13,39,639,897.2968869630713,897.9675281915115,"[90, 0, 164]",164,l,0.1404738124110736,colour,0.5
149,24,0,1,13,40,640,898.4844702614937,899.1915119115147,"[62, 0, 192]",192,a,0.1749361181864515,colour,0.5
149,24,0,1,13,41,641,899.7046955098631,900.4074777162168,"[42, 0, 212]",212,a,0.18474406318273395,colour,0.5
149,24,0,1,13,42,642,900.9269979015808,901.5835654398543,"[80, 0, 174]",174,l,0.13835531513905153,colour,0.5
149,24,0,1,13,43,643,902.103236468276,902.7354792947299,"[35, 0, 219]",219,a,0.11408731719711795,colour,0.5
149,24,0,1,13,44,644,903.2491559882183,903.9754897868261,"[40, 0, 214]",214,a,0.19391594699118286,colour,0.5
149,24,0,1,13,45,645,904.495212409005,905.2635136412573,"[0, 0, 254]",254,a,0.24532386736245826,colour,0.5
149,24,0,1,13,46,646,905.7727607496781,906.4235044883098,"[14, 0, 240]",240,a,0.1332388628507033,colour,0.5
149,24,0,1,13,47,647,906.945930468908,907.6234860562836,"[55, 0, 199]",199,a,0.14557451091241091,colour,0.5
149,24,0,1,13,48,648,908.1403718063375,908.823495193501,"[16, 0, 238]",238,a,0.15071774477837607,colour,0.5
149,24,0,1,13,49,649,909.3456395742833,911.4314861697494,"[28, 0, 226]",226,a,1.5545031555229798,colour,0.5
149,24,0,1,13,50,650,911.9467220992083,912.6316315776203,"[4, 0, 250]",250,a,0.1663983262842521,colour,0.5
149,24,0,1,14,1,651,920.5083416566486,922.3594773507211,"[20, 0, 234]",234,a,1.3324677912751213,colour,0.5
149,24,0,1,14,2,652,922.8752359137288,923.6154815317714,"[99, 0, 155]",155,l,0.22273759148083627,colour,0.5
149,24,0,1,14,3,653,924.128981388465,924.8874786141678,"[37, 0, 217]",217,a,0.23712714604334906,colour,0.5
149,24,0,1,14,4,654,925.4071929656202,926.1674707687926,"[42, 0, 212]",212,a,0.23891835735412315,colour,0.5
149,24,0,1,14,5,655,926.6787012852146,927.4314692343469,"[71, 0, 183]",183,a,0.2225107362610288,colour,0.5
149,24,0,1,14,6,656,927.9542114732321,928.6796410015668,"[34, 0, 220]",220,a,0.2086201844504103,colour,0.5
149,24,0,1,14,7,657,929.1915922560729,929.9195104967803,"[95, 0, 159]",159,l,0.21057681093225256,colour,0.5
149,24,0,1,14,8,658,930.4354368381901,931.1675066087628,"[40, 0, 214]",214,a,0.21266340668080375,colour,0.5
149,24,0,1,14,9,659,931.6810163115151,932.3595443045488,"[11, 0, 243]",243,a,0.15913265675771981,colour,0.5
149,24,0,1,14,10,660,932.8789727238473,933.4874997243169,"[29, 0, 225]",225,a,0.08357607369543985,colour,0.5
149,24,0,1,14,11,661,933.9986010593129,934.7674973927788,"[63, 0, 191]",191,a,0.2404563256422989,colour,0.5
149,24,0,1,14,12,662,935.2786010908312,935.9194352722261,"[92, 0, 162]",162,l,0.10931193543365225,colour,0.5
149,24,0,1,14,13,663,936.4396490202635,937.239461470861,"[36, 0, 218]",218,a,0.27645029820268974,colour,0.5
149,24,0,1,14,14,664,937.7411896667909,938.527478236123,"[72, 0, 182]",182,a,0.26292996160918847,colour,0.5
149,24,0,1,14,15,665,939.0379880145192,939.8155099674477,"[31, 0, 223]",223,a,0.25463714182842523,colour,0.5
149,24,0,1,14,16,666,940.3352471619728,941.0234988168813,"[80, 0, 174]",174,l,0.16494503483409062,colour,0.5
149,24,0,1,14,17,667,941.5383609865676,942.3354515680112,"[98, 0, 156]",156,l,0.27385682286694646,colour,0.5
149,24,0,1,14,18,668,942.8508670912124,943.6158123623463,"[91, 0, 163]",163,l,0.2416055680369027,colour,0.5
149,24,0,1,14,19,669,944.1320742604439,944.9513970502885,"[23, 0, 231]",231,a,0.2959169205860235,colour,0.5
149,24,0,1,14,20,670,945.460742620111,946.2074402220896,"[22, 0, 232]",232,a,0.22917303384747356,colour,0.5
149,24,0,1,14,21,671,946.7281935390783,947.5195016746293,"[54, 0, 200]",200,a,0.267879817110952,colour,0.5
149,24,0,1,14,22,672,948.0400293178973,948.8315028687939,"[8, 0, 246]",246,a,0.26687747926916927,colour,0.5
149,24,0,1,14,23,673,949.338583036908,950.0794422669569,"[15, 0, 239]",239,a,0.21769242524169385,colour,0.5
149,24,0,1,14,24,674,950.5952890514163,951.383472807298,"[55, 0, 199]",199,a,0.2648353881086223,colour,0.5
149,24,0,1,14,25,675,951.9005885633524,952.6554698896944,"[83, 0, 171]",171,l,0.23150735860690475,colour,0.5
149,24,0,1,14,26,676,953.1662679633591,953.9114335046615,"[47, 0, 207]",207,a,0.2223795855534263,colour,0.5
149,24,0,1,14,27,677,954.4317768280162,955.0875358005869,"[51, 0, 203]",203,a,0.13242320792051032,colour,0.5
149,24,0,1,14,28,678,955.609609682986,956.3355208848952,"[64, 0, 190]",190,a,0.20798648637719452,colour,0.5
149,24,0,1,14,29,679,956.8563474572147,957.6394352407078,"[76, 0, 178]",178,a,0.26331593055510893,colour,0.5
149,24,0,1,14,30,680,958.1580751804868,958.8634331391659,"[57, 0, 197]",197,a,0.18775974138407037,colour,0.5
149,24,0,1,14,31,681,959.3791176591185,960.1594390689279,"[69, 0, 185]",185,a,0.2630788353853859,colour,0.5
149,24,0,1,14,32,682,960.6775154151255,961.3994700409239,"[66, 0, 188]",188,a,0.20296692004194483,colour,0.5
149,24,0,1,14,33,683,961.9172100427677,962.6874911384657,"[3, 0, 251]",251,a,0.2522457094164565,colour,0.5
149,24,0,1,14,34,684,963.2054958047811,963.8634327453328,"[9, 0, 245]",245,a,0.13067216897616163,colour,0.5
149,24,0,1,14,35,685,964.3745372310514,965.1034503265982,"[28, 0, 226]",226,a,0.21085486619267613,colour,0.5
149,24,0,1,14,36,686,965.6074238381116,966.3194653620594,"[26, 0, 228]",228,a,0.19389625469921157,colour,0.5
149,24,0,1,14,37,687,966.8305517308763,967.495825233229,"[62, 0, 192]",192,a,0.14186015003360808,colour,0.5
149,24,0,1,14,38,688,967.9930115980096,968.6714623972075,"[79, 0, 175]",175,l,0.15499530540546402,colour,0.5
149,24,0,1,14,39,689,969.1805295179947,969.8794670004863,"[44, 0, 210]",210,a,0.17552885634358972,colour,0.5
149,24,0,1,14,40,690,970.3981384478975,971.023457856907,"[74, 0, 180]",180,l,0.10191669053165242,colour,0.5
149,24,0,1,14,41,691,971.5388131217333,972.2393988493714,"[2, 0, 252]",252,a,0.17750399361830205,colour,0.5
149,24,0,1,14,42,692,972.7600690648542,973.4314093697467,"[10, 0, 244]",244,a,0.1482376970234327,colour,0.5
149,24,0,1,14,43,693,973.947456621856,974.6154267872334,"[56, 0, 198]",198,a,0.14463203767081723,colour,0.5
149,24,0,1,14,44,694,975.1349292495288,975.7114251551102,"[77, 0, 177]",177,l,0.05470244149910286,colour,0.5
149,24,0,1,14,45,695,976.2212264047121,976.9276063935831,"[88, 0, 166]",166,l,0.18706617876887321,colour,0.5
149,24,0,1,14,46,696,977.4358952748007,978.1194881263655,"[65, 0, 189]",189,a,0.16020194842712954,colour,0.5
149,24,0,1,14,47,697,978.6389984656125,979.3194255836424,"[43, 0, 211]",211,a,0.15713900874834508,colour,0.5
149,24,0,1,14,48,698,979.8265920039848,980.5594577371958,"[24, 0, 230]",230,a,0.209696565347258,colour,0.5
149,24,0,1,14,49,699,981.0803871033131,981.6554844619823,"[48, 0, 206]",206,a,0.05535031802719459,colour,0.5
149,24,0,1,14,50,700,982.1709149513626,982.815465856751,"[39, 0, 215]",215,a,0.12205915251979604,colour,0.5
149,24,0,1,15,1,701,990.9841339170816,992.4233922422281,"[39, 0, 215]",215,a,0.9152085178066045,colour,0.5
149,24,0,1,15,2,702,992.9380370089202,993.6473913221853,"[0, 0, 254]",254,a,0.19637669628718868,colour,0.5
149,24,0,1,15,3,703,994.1621046180953,994.7594404867268,"[49, 0, 205]",205,a,0.07441403600387275,colour,0.5
149,24,0,1,15,4,704,995.2715630641906,995.8714455405716,"[17, 0, 237]",237,a,0.08018427260685712,colour,0.5
149,24,0,1,15,5,705,996.3854231323348,997.0554156965227,"[66, 0, 188]",188,a,0.15024355432251468,colour,0.5
149,24,0,1,15,6,706,997.5692948267679,998.1514439966995,"[78, 0, 176]",176,l,0.05867083300836384,colour,0.5
149,24,0,1,15,7,707,998.6631424020743,999.3834310596576,"[3, 0, 251]",251,a,0.19706001895247027,colour,0.5
149,24,0,1,15,8,708,999.9038728445303,1000.4793861045036,"[27, 0, 227]",227,a,0.052202701452188194,colour,0.5
149,24,0,1,15,9,709,1000.9948902430478,1001.6314594669966,"[48, 0, 206]",206,a,0.11314248089911416,colour,0.5
149,24,0,1,15,10,710,1002.1511986306868,1002.7274495640886,"[34, 0, 220]",220,a,0.05296282406197861,colour,0.5
149,24,0,1,15,11,711,1003.242568521353,1003.8394152333494,"[61, 0, 193]",193,a,0.07349755655741319,colour,0.5
149,24,0,1,15,12,712,1004.3519852197496,1004.9994450710947,"[11, 0, 243]",243,a,0.12441710801795125,colour,0.5
149,24,0,1,15,13,713,1005.4960386977182,1006.0476132149925,"[9, 0, 245]",245,a,0.029706616303883493,colour,0.5
149,24,0,1,15,14,714,1006.5637542023323,1007.27945061645,"[19, 0, 235]",235,a,0.1986594272311777,colour,0.5
149,24,0,1,15,15,715,1007.7999408443575,1008.4074020978296,"[98, 0, 156]",156,l,0.0898492515552789,colour,0.5
149,24,0,1,15,16,716,1008.9216010309756,1009.5433935497422,"[70, 0, 184]",184,a,0.10461020277580246,colour,0.5
149,24,0,1,15,17,717,1010.0642591128126,1010.7754873449448,"[93, 0, 161]",161,l,0.17982807836961,colour,0.5
149,24,0,1,15,18,718,1011.2860002741218,1012.0314135445515,"[95, 0, 159]",159,l,0.21716388402273878,colour,0.5
149,24,0,1,15,19,719,1012.5505737547646,1013.3114557175431,"[55, 0, 199]",199,a,0.240337384166196,colour,0.5
149,24,0,1,15,20,720,1013.8227984801051,1014.5914065183024,"[15, 0, 239]",239,a,0.24953329254640266,colour,0.5
149,24,0,1,15,21,721,1015.1070347183268,1015.7914920616895,"[60, 0, 194]",194,a,0.1629588698851876,colour,0.5
149,24,0,1,15,22,722,1016.3008778038202,1017.0474462243146,"[37, 0, 217]",217,a,0.21719421015586704,colour,0.5
149,24,0,1,15,23,723,1017.5671495480346,1018.2314443432842,"[91, 0, 163]",163,l,0.1436300936038606,colour,0.5
149,24,0,1,15,24,724,1018.7449308091891,1019.5515449788072,"[23, 0, 231]",231,a,0.274635850044433,colour,0.5
149,24,0,1,15,25,725,1020.0730859875912,1020.8234144551097,"[52, 0, 202]",202,a,0.23281374556245282,colour,0.5
149,24,0,1,15,26,726,1021.3399851283757,1022.0154076463077,"[76, 0, 178]",178,a,0.1567002643714659,colour,0.5
149,24,0,1,15,27,727,1022.5322603132809,1023.2474782046047,"[82, 0, 172]",172,a,0.1901838630437851,colour,0.5
149,24,0,1,15,28,728,1023.7710451568128,1024.3274088404723,"[33, 0, 221]",221,a,0.03772492543794215,colour,0.5
149,24,0,1,15,29,729,1024.8386661384138,1025.5354252590914,"[77, 0, 177]",177,l,0.16934665688313544,colour,0.5
149,24,0,1,15,30,730,1026.0493335339706,1026.7034710429143,"[6, 0, 248]",248,a,0.09176649351138622,colour,0.5
149,24,0,1,15,31,731,1027.210752860119,1027.9514167425805,"[51, 0, 203]",203,a,0.21744548383867368,colour,0.5
149,24,0,1,15,32,732,1028.4599809221108,1029.111422555754,"[68, 0, 186]",186,a,0.12810311204520985,colour,0.5
149,24,0,1,15,33,733,1029.6318202298135,1030.3914281011093,"[47, 0, 207]",207,a,0.23629534349311143,colour,0.5
149,24,0,1,15,34,734,1030.9020012886613,1031.6713903233758,"[54, 0, 200]",200,a,0.2460942299803719,colour,0.5
149,24,0,1,15,35,735,1032.183278562501,1032.9354289612384,"[1, 0, 253]",253,a,0.22886780323460698,colour,0.5
149,24,0,1,15,36,736,1033.4446288081235,1034.2313651802833,"[12, 0, 242]",242,a,0.2631863552960567,colour,0.5
149,24,0,1,15,37,737,1034.741674884921,1035.5353862683405,"[57, 0, 197]",197,a,0.2704153971862979,colour,0.5
149,24,0,1,15,38,738,1036.0320594518562,1036.6856132811517,"[5, 0, 249]",249,a,0.1349111326271668,colour,0.5
149,24,0,1,15,39,739,1037.2000548233627,1037.9193765891832,"[35, 0, 219]",219,a,0.19614629645366222,colour,0.5
149,24,0,1,15,40,740,1038.4301498504938,1039.1594122874085,"[63, 0, 191]",191,a,0.2059916568105109,colour,0.5
149,24,0,1,15,41,741,1039.6801789951278,1040.4474235387752,"[13, 0, 241]",241,a,0.24406080349581316,colour,0.5
149,24,0,1,15,42,742,1040.9626827051397,1041.6473712360603,"[38, 0, 216]",216,a,0.1613972708582878,colour,0.5
149,24,0,1,15,43,743,1042.1657776251668,1042.8954146095202,"[53, 0, 201]",201,a,0.20717634534230456,colour,0.5
149,24,0,1,15,44,744,1043.4157551759272,1044.127381586295,"[90, 0, 164]",164,l,0.18819572881329805,colour,0.5
149,24,0,1,15,45,745,1044.6359044120181,1045.3993507056148,"[73, 0, 181]",181,a,0.240111316612456,colour,0.5
149,24,0,1,15,46,746,1045.9171592366765,1046.6153547134018,"[10, 0, 244]",244,a,0.17970874306047335,colour,0.5
149,24,0,1,15,47,747,1047.139120557811,1047.8954406033154,"[29, 0, 225]",225,a,0.22430785518372431,colour,0.5
149,24,0,1,15,48,748,1048.4052761174971,1049.0715759823797,"[88, 0, 166]",166,l,0.14821367245167494,colour,0.5
149,24,0,1,15,49,749,1049.580637983163,1050.3593954307726,"[83, 0, 171]",171,l,0.24713555863127112,colour,0.5
149,24,0,1,15,50,750,1050.8801585938781,1051.5193878531572,"[71, 0, 183]",183,a,0.12140418670605868,colour,0.5
149,24,0,1,16,1,751,1062.0309968555812,1063.991363352805,"[84, 0, 170]",170,l,1.4474259018315934,colour,0.5
149,24,0,1,16,2,752,1064.504989240144,1065.2793793303426,"[48, 0, 206]",206,a,0.25114018394378945,colour,0.5
149,24,0,1,16,3,753,1065.7863429200952,1066.5354642498423,"[14, 0, 240]",240,a,0.22501283936435357,colour,0.5
149,24,0,1,16,4,754,1067.046178434277,1067.6953849922866,"[64, 0, 190]",190,a,0.12976396025624126,colour,0.5
149,24,0,1,16,5,755,1068.2141651411657,1068.8794437635224,"[20, 0, 234]",234,a,0.14192474074661732,colour,0.5
149,24,0,1,16,6,756,1069.386037138116,1069.9995415633894,"[70, 0, 184]",184,a,0.09010091907111928,colour,0.5
149,24,0,1,16,7,757,1070.5111249657348,1071.2313565156655,"[59, 0, 195]",195,a,0.19716990197775885,colour,0.5
149,24,0,1,16,8,758,1071.7489515821799,1072.4314089759137,"[41, 0, 213]",213,a,0.15906176448334008,colour,0.5
149,24,0,1,16,9,759,1072.9524513757788,1073.59137934295,"[74, 0, 180]",180,a,0.11592775920871645,colour,0.5
149,24,0,1,16,10,760,1074.1083485883428,1074.7593810160179,"[81, 0, 173]",173,l,0.12808814586605877,colour,0.5
149,24,0,1,16,11,761,1075.2802032559994,1075.9514206810272,"[80, 0, 174]",174,l,0.1478978079976514,colour,0.5
149,24,0,1,16,12,762,1076.4554379094043,1077.1674026334076,"[86, 0, 168]",168,l,0.19391791615635157,colour,0.5
149,24,0,1,16,13,763,1077.6885907563264,1078.3113182653324,"[34, 0, 220]",220,a,0.09965522726997733,colour,0.5
149,24,0,1,16,14,764,1078.829112617881,1079.5113707256387,"[5, 0, 249]",249,a,0.15890658920397982,colour,0.5
149,24,0,1,16,15,765,1080.0323343562777,1080.671380477259,"[98, 0, 156]",156,l,0.12376923154806718,colour,0.5
149,24,0,1,16,16,766,1081.1803664657637,1081.8153496721643,"[0, 0, 254]",254,a,0.10904569557169452,colour,0.5
149,24,0,1,16,17,767,1082.323549544264,1082.959368097887,"[53, 0, 201]",201,a,0.11251272121444345,colour,0.5
149,24,0,1,16,18,768,1083.4713957584463,1084.1353683877387,"[26, 0, 228]",228,a,0.14093185518868268,colour,0.5
149,24,0,1,16,19,769,1084.6431342416327,1085.303415746952,"[45, 0, 209]",209,a,0.1369859129190445,colour,0.5
149,24,0,1,16,20,770,1085.8150192354806,1086.4473573726718,"[61, 0, 193]",193,a,0.1103493255795911,colour,0.5
149,24,0,1,16,21,771,1086.963839824486,1087.6393730130512,"[12, 0, 242]",242,a,0.14512473886134103,colour,0.5
149,24,0,1,16,22,772,1088.1570366087835,1088.7993981246836,"[75, 0, 179]",179,l,0.12500827078474686,colour,0.5
149,24,0,1,16,23,773,1089.3093663649634,1089.8953649849282,"[63, 0, 191]",191,a,0.061979138758033514,colour,0.5
149,24,0,1,16,24,774,1090.412882857665,1091.079398156202,"[56, 0, 198]",198,a,0.14949524705298245,colour,0.5
149,24,0,1,16,25,775,1091.602392062603,1092.2474380322965,"[97, 0, 157]",157,l,0.12702279264340177,colour,0.5
149,24,0,1,16,26,776,1092.7670720391907,1093.3756994704017,"[28, 0, 226]",226,a,0.08625934598967433,colour,0.5
149,24,0,1,16,27,777,1093.8867559069186,1094.559517207963,"[52, 0, 202]",202,a,0.154038259817753,colour,0.5
149,24,0,1,16,28,778,1095.079838082078,1095.775383763481,"[15, 0, 239]",239,a,0.17471713986014947,colour,0.5
149,24,0,1,16,29,779,1096.2900017487118,1097.0553889150033,"[13, 0, 241]",241,a,0.24300135800149292,colour,0.5
149,24,0,1,16,30,780,1097.5747058758861,1098.311380099156,"[35, 0, 219]",219,a,0.20800066483207047,colour,0.5
149,24,0,1,16,31,781,1098.8234148489428,1099.4554296386777,"[57, 0, 197]",197,a,0.11429054173640907,colour,0.5
149,24,0,1,16,32,782,1099.9680835142499,1100.6073537335033,"[67, 0, 187]",187,a,0.1218492325861007,colour,0.5
149,24,0,1,16,33,783,1101.1263859437895,1101.6793664909783,"[3, 0, 251]",251,a,0.033838059986010194,colour,0.5
149,24,0,1,16,34,784,1102.19582176744,1102.9113610369968,"[51, 0, 203]",203,a,0.19811276911059394,colour,0.5
149,24,0,1,16,35,785,1103.422162261384,1104.0874188283924,"[83, 0, 171]",171,l,0.14758942666230723,colour,0.5
149,24,0,1,16,36,786,1104.5972251979401,1105.3193755652173,"[21, 0, 233]",233,a,0.20334934449056163,colour,0.5
149,24,0,1,16,37,787,1105.8355815371615,1106.5113411871716,"[96, 0, 158]",158,l,0.15534385899081826,colour,0.5
149,24,0,1,16,38,788,1107.0326577037922,1107.7673493066686,"[19, 0, 235]",235,a,0.21321045863442123,colour,0.5
149,24,0,1,16,39,789,1108.2831393773668,1109.0153702309472,"[9, 0, 245]",245,a,0.21556683880044147,colour,0.5
149,24,0,1,16,40,790,1109.5346801026026,1110.2315207493957,"[71, 0, 183]",183,a,0.17927590641193092,colour,0.5
149,24,0,1,16,41,791,1110.744970193773,1111.4713784292107,"[8, 0, 246]",246,a,0.20902072574244812,colour,0.5
149,24,0,1,16,42,792,1111.9829830992967,1112.7913806032739,"[6, 0, 248]",248,a,0.29062323755351827,colour,0.5
149,24,0,1,16,43,793,1113.3015863326145,1114.079333565489,"[27, 0, 227]",227,a,0.25274707534117624,colour,0.5
149,24,0,1,16,44,794,1114.5932008803356,1115.2153265927918,"[55, 0, 199]",199,a,0.10418878763448447,colour,0.5
149,24,0,1,16,45,795,1115.7371192691498,1116.4873658167198,"[31, 0, 223]",223,a,0.22764727473258972,colour,0.5
149,24,0,1,16,46,796,1116.9974782046047,1117.7273609488038,"[91, 0, 163]",163,l,0.2109040969517082,colour,0.5
149,24,0,1,16,47,797,1118.23774233344,1118.999377329601,"[11, 0, 243]",243,a,0.23107649118173867,colour,0.5
149,24,0,1,16,48,798,1119.517241392925,1120.2954234316712,"[36, 0, 218]",218,a,0.24678188498364761,colour,0.5
149,24,0,1,16,49,799,1120.8154185952153,1121.5194000623887,"[16, 0, 238]",238,a,0.1864537483197637,colour,0.5
149,24,0,1,16,50,800,1122.0377465869533,1122.7193410642794,"[85, 0, 169]",169,l,0.16138742462499067,colour,0.5
