id,age,condition,counterbalance,block,trialinblock,trial,tstart,tend,trialstim,trialintensity,response,RT,trialtype,colourfreq
110,18,0,1,Practice,1,NA,5.907611921429634e-06,0.7691582409897819,"[8, 0, 246]",246,a,0.2134861508384347,colour,0.5
110,18,0,1,Practice,2,NA,1.2820649655768648,1.9771533919265494,"[42, 0, 212]",212,a,0.1717999231768772,colour,0.5
110,18,0,1,Practice,3,NA,2.4851043533999473,6.817236587870866,"[73, 0, 181]",181,a,3.808737393002957,colour,0.5
110,18,0,1,Practice,4,NA,7.3324760620016605,8.177151501411572,"[62, 0, 192]",192,a,0.321322345524095,colour,0.5
110,18,0,1,Practice,5,NA,8.69181359745562,9.56113552080933,"[65, 0, 189]",189,a,0.3459444111213088,colour,0.5
110,18,0,1,Practice,6,NA,10.0827655387111,10.881196377798915,"[18, 0, 236]",236,a,0.2754259048961103,colour,0.5
110,18,0,1,Practice,7,NA,11.394883705070242,12.225147534627467,"[12, 0, 242]",242,a,0.306949726305902,colour,0.5
110,18,0,1,Practice,8,NA,12.738627305137925,13.657157519366592,"[64, 0, 190]",190,a,0.3950652681523934,colour,0.5
110,18,0,1,Practice,9,NA,14.178226306918077,15.05716594774276,"[30, 0, 224]",224,a,0.35570194374304265,colour,0.5
110,18,0,1,Practice,10,NA,15.557112778536975,16.209191260975786,"[51, 0, 203]",203,a,0.12571010424289852,colour,0.5
110,18,0,1,1,1,1,5.1761373481713235,5.999989366158843,"[62, 0, 192]",192,a,0.29974864760879427,colour,0.5
110,18,0,1,1,2,2,6.520734018529765,7.127976293559186,"[93, 0, 161]",161,l,0.08396716264542192,colour,0.5
110,18,0,1,1,3,3,7.645717476960272,9.672012206050567,"[73, 0, 181]",181,a,1.5032551365438849,colour,0.5
110,18,0,1,1,4,4,10.192550876992755,11.08001098036766,"[70, 0, 184]",184,a,0.3641396986786276,colour,0.5
110,18,0,1,1,5,5,11.598781676962972,12.471986921154894,"[71, 0, 183]",183,a,0.34981946100015193,colour,0.5
110,18,0,1,1,6,6,12.989396880031563,13.863980978843756,"[65, 0, 189]",189,a,0.3586951728211716,colour,0.5
110,18,0,1,1,7,7,14.37258139217738,15.023980096564628,"[7, 0, 247]",247,a,0.12805309356190264,colour,0.5
110,18,0,1,1,8,8,15.530847981688567,16.335964749217965,"[81, 0, 173]",173,l,0.2806230958085507,colour,0.5
110,18,0,1,1,9,9,16.844496239558794,17.487981003941968,"[44, 0, 210]",210,a,0.12019586737733334,colour,0.5
110,18,0,1,1,10,10,18.000687654945068,18.77596232306678,"[6, 0, 248]",248,a,0.2518636789172888,colour,0.5
110,18,0,1,1,11,11,19.297552168834955,20.06395624531433,"[24, 0, 230]",230,a,0.24301317345816642,colour,0.5
110,18,0,1,1,12,12,20.57880581181962,21.344003932084888,"[85, 0, 169]",169,l,0.2531637642532587,colour,0.5
110,18,0,1,1,13,13,21.86427203088533,22.65604057244491,"[87, 0, 167]",167,l,0.26842844451311976,colour,0.5
110,18,0,1,1,14,14,23.176710787927732,23.87199574324768,"[18, 0, 236]",236,a,0.17202638450544327,colour,0.5
110,18,0,1,1,15,15,24.38168710982427,25.119960347539745,"[46, 0, 208]",208,a,0.21493038372136652,colour,0.5
110,18,0,1,1,16,16,25.631753669818863,26.34394682443235,"[33, 0, 221]",221,a,0.18896175909321755,colour,0.5
110,18,0,1,1,17,17,26.85112466639839,27.61599746986758,"[89, 0, 165]",165,l,0.24151931575033814,colour,0.5
110,18,0,1,1,18,18,28.13224715879187,28.919963419553824,"[60, 0, 194]",194,a,0.26433362846728414,colour,0.5
110,18,0,1,1,19,19,29.429126244969666,30.16795480530709,"[43, 0, 211]",211,a,0.21558180486317724,colour,0.5
110,18,0,1,1,20,20,30.67918965406716,31.455990475253202,"[40, 0, 214]",214,a,0.2535733641125262,colour,0.5
110,18,0,1,1,21,21,31.97610615566373,32.86396443727426,"[72, 0, 182]",182,l,0.3645630831597373,colour,0.5
110,18,0,1,1,22,22,33.382305054110475,34.14397982880473,"[34, 0, 220]",220,a,0.23831262229941785,colour,0.5
110,18,0,1,1,23,23,34.66354688175488,35.367997419438325,"[50, 0, 204]",204,a,0.18107775144744664,colour,0.5
110,18,0,1,1,24,24,35.882263306411915,36.64797657716554,"[25, 0, 229]",229,a,0.24236135836690664,colour,0.5
110,18,0,1,1,25,25,37.164231779868715,37.911958501208574,"[2, 0, 252]",252,a,0.22434054443147033,colour,0.5
110,18,0,1,1,26,26,38.42983674292918,39.135948128881864,"[94, 0, 160]",160,l,0.18283824273385108,colour,0.5
110,18,0,1,1,27,27,39.65051767101977,40.35996611346491,"[14, 0, 240]",240,a,0.18638206832110882,colour,0.5
110,18,0,1,1,28,28,40.86914666183293,41.5999667593278,"[12, 0, 242]",242,a,0.2073579082498327,colour,0.5
110,18,0,1,1,29,29,42.11916753568221,42.831949883839116,"[53, 0, 201]",201,a,0.1893619066104293,colour,0.5
110,18,0,1,1,30,30,43.35349680040963,44.13595758122392,"[98, 0, 156]",156,l,0.25911989621818066,colour,0.5
110,18,0,1,1,31,31,44.65032114193309,45.44794499070849,"[91, 0, 163]",163,l,0.27419907494913787,colour,0.5
110,18,0,1,1,32,32,45.96280952345114,46.543949266313575,"[0, 0, 254]",254,a,0.05785675346851349,colour,0.5
110,18,0,1,1,33,33,47.056579904980026,47.67194919066969,"[83, 0, 171]",171,l,0.09198074566666037,colour,0.5
110,18,0,1,1,34,34,48.181610625004396,48.72798834531568,"[19, 0, 235]",235,a,0.023003358743153512,colour,0.5
110,18,0,1,1,35,35,49.2440285080811,49.91194077813998,"[32, 0, 222]",222,a,0.144469773164019,colour,0.5
110,18,0,1,1,36,36,50.43153106805403,53.26393584406469,"[1, 0, 253]",253,a,2.307532224454917,colour,0.5
110,18,0,1,1,37,37,53.776760254986584,54.71992947009858,"[37, 0, 217]",217,a,0.4201441949699074,colour,0.5
110,18,0,1,1,38,38,55.217439576168545,55.95193504379131,"[8, 0, 246]",246,a,0.21144957363139838,colour,0.5
110,18,0,1,1,39,39,56.46749944065232,57.30394074344076,"[76, 0, 178]",178,l,0.3130531565984711,colour,0.5
110,18,0,1,1,40,40,57.81119893002324,58.59996754711028,"[17, 0, 237]",237,a,0.26543442788533866,colour,0.5
110,18,0,1,1,41,41,59.10812685301062,59.85596778965555,"[30, 0, 224]",224,a,0.22526174993254244,colour,0.5
110,18,0,1,1,42,42,60.37374008691404,61.12799677357543,"[82, 0, 172]",172,l,0.23099063278641552,colour,0.5
110,18,0,1,1,43,43,61.633062813663855,62.40794560511131,"[28, 0, 226]",226,a,0.2515261529479176,colour,0.5
110,18,0,1,1,44,44,62.914273527567275,63.7999388751341,"[47, 0, 207]",207,a,0.3601110487943515,colour,0.5
110,18,0,1,1,45,45,64.30701195402071,65.17593215452507,"[97, 0, 157]",157,l,0.34559073741547763,colour,0.5
110,18,0,1,1,46,46,65.697686233907,66.58391005499288,"[41, 0, 213]",213,a,0.3627911702496931,colour,0.5
110,18,0,1,1,47,47,67.10390758165158,68.03990053024609,"[66, 0, 188]",188,l,0.4127087777014822,colour,0.5
110,18,0,1,1,48,48,68.55702770780772,69.35194150276948,"[57, 0, 197]",197,l,0.2715256487717852,colour,0.5
110,18,0,1,1,49,49,69.86954602168407,70.57591104437597,"[52, 0, 202]",202,l,0.18312771955970675,colour,0.5
110,18,0,1,1,50,50,71.07588544441387,71.65597873856314,"[95, 0, 159]",159,l,0.056818969431333244,colour,0.5
110,18,0,1,2,1,51,76.71568499249406,77.39197200222407,"[38, 0, 216]",216,a,0.15215607010759413,colour,0.5
110,18,0,1,2,2,52,77.90402289968915,79.41593949578237,"[1, 0, 253]",253,a,0.988528843736276,colour,0.5
110,18,0,1,2,3,53,79.93527063517831,80.79999913345091,"[95, 0, 159]",159,l,0.3413013614481315,colour,0.5
110,18,0,1,2,4,54,81.31026551511604,83.73658363870345,"[14, 0, 240]",240,a,1.903044980368577,colour,0.5
110,18,0,1,2,5,55,84.24843013007194,85.11994892603252,"[60, 0, 194]",194,l,0.34820626815781,colour,0.5
110,18,0,1,2,6,56,85.63904730242211,86.83191995159723,"[98, 0, 156]",156,l,0.669841721188277,colour,0.5
110,18,0,1,2,7,57,87.3421567947371,88.26392087794375,"[53, 0, 201]",201,a,0.3984369831159711,colour,0.5
110,18,0,1,2,8,58,88.77300257096067,89.5278819281375,"[46, 0, 208]",208,a,0.23166568472515792,colour,0.5
110,18,0,1,2,9,59,90.03850001411047,90.83994653145783,"[97, 0, 157]",157,l,0.2781300510978326,colour,0.5
110,18,0,1,2,10,60,91.3510258110473,92.15194536256604,"[79, 0, 175]",175,l,0.27759363292716444,colour,0.5
110,18,0,1,2,11,61,92.66349568183068,93.66393403231632,"[55, 0, 199]",199,l,0.47704784118104726,colour,0.5
110,18,0,1,2,12,62,94.16841127281077,95.37591687322129,"[33, 0, 221]",221,a,0.6849602845031768,colour,0.5
110,18,0,1,2,13,63,95.88709815894254,96.77594853844494,"[30, 0, 224]",224,a,0.36556463327724487,colour,0.5
110,18,0,1,2,14,64,97.29326082358602,97.82395678095054,"[47, 0, 207]",207,a,0.00726842659059912,colour,0.5
110,18,0,1,2,15,65,98.34031674661674,98.95192795456387,"[78, 0, 176]",176,l,0.08842864935286343,colour,0.5
110,18,0,1,2,16,66,99.46532422967721,101.19995596795343,"[29, 0, 225]",225,a,1.2112869151169434,colour,0.5
110,18,0,1,2,17,67,101.7152340390021,102.63993345573545,"[72, 0, 182]",182,l,0.4002104712417349,colour,0.5
110,18,0,1,2,18,68,103.15382991521619,103.96795236354228,"[67, 0, 187]",187,a,0.29069964366499335,colour,0.5
110,18,0,1,2,19,69,104.48198233672883,105.27994804386981,"[88, 0, 166]",166,l,0.27457677328493446,colour,0.5
110,18,0,1,2,20,70,105.79441361071076,106.63192774972413,"[5, 0, 249]",249,a,0.3141063005896285,colour,0.5
110,18,0,1,2,21,71,107.13817375223152,107.94392933766358,"[76, 0, 178]",178,l,0.28241115622222424,colour,0.5
110,18,0,1,2,22,72,108.45069364144001,109.24800162576139,"[41, 0, 213]",213,a,0.2738867551088333,colour,0.5
110,18,0,1,2,23,73,109.76326079212595,110.57591458898969,"[42, 0, 212]",212,a,0.28933851211331785,colour,0.5
110,18,0,1,2,24,74,111.09141360747162,112.04787709168158,"[58, 0, 196]",196,l,0.43314701796043664,colour,0.5
110,18,0,1,2,25,75,112.5602273120312,113.39991666213609,"[9, 0, 245]",245,a,0.3164221146143973,colour,0.5
110,18,0,1,2,26,76,113.91953373362776,114.5759480658453,"[17, 0, 237]",237,a,0.13300728134345263,colour,0.5
110,18,0,1,2,27,77,115.0913832813967,115.73592827899847,"[80, 0, 174]",174,l,0.12092802696861327,colour,0.5
110,18,0,1,2,28,78,116.24786889972165,116.8879067247035,"[21, 0, 233]",233,a,0.11661659576930106,colour,0.5
110,18,0,1,2,29,79,117.40407685667742,118.33589897688944,"[64, 0, 190]",190,a,0.4084004971664399,colour,0.5
110,18,0,1,2,30,80,118.85730725969188,119.8319341300521,"[44, 0, 210]",210,a,0.4512958318227902,colour,0.5
110,18,0,1,2,31,81,120.34161013667472,121.13589614117518,"[68, 0, 186]",186,l,0.2708202707581222,colour,0.5
110,18,0,1,2,32,82,121.65419816120993,122.39989184984006,"[32, 0, 222]",222,a,0.2224406315945089,colour,0.5
110,18,0,1,2,33,83,122.91975074273068,123.79189102747478,"[49, 0, 205]",205,a,0.3612602911889553,colour,0.5
110,18,0,1,2,34,84,124.31356712547131,125.19193490198813,"[74, 0, 180]",180,l,0.3549760857131332,colour,0.5
110,18,0,1,2,35,85,125.70410277170595,126.59193860413507,"[50, 0, 204]",204,l,0.36439569864887744,colour,0.5
110,18,0,1,2,36,86,127.11114922666457,127.75992373563349,"[65, 0, 189]",189,l,0.12546395044773817,colour,0.5
110,18,0,1,2,37,87,128.26741507893894,128.81593256408814,"[16, 0, 238]",238,a,0.025052932905964553,colour,0.5
110,18,0,1,2,38,88,129.32987864816096,129.99189425702207,"[45, 0, 209]",209,a,0.1377657278208062,colour,0.5
110,18,0,1,2,39,89,130.50252218928654,131.10395838774275,"[0, 0, 254]",254,a,0.07787712314166129,colour,0.5
110,18,0,1,2,40,90,131.61196133692283,132.13671337149572,"[7, 0, 247]",247,a,0.0015245774993672967,colour,0.5
110,18,0,1,2,41,91,132.65912596136332,133.21596580464393,"[66, 0, 188]",188,l,0.033495807903818786,colour,0.5
110,18,0,1,2,42,92,133.73731028439943,134.35991570120677,"[82, 0, 172]",172,l,0.09936259977985173,colour,0.5
110,18,0,1,2,43,93,134.87786168442108,135.4559239152586,"[84, 0, 170]",170,l,0.05477215233258903,colour,0.5
110,18,0,1,2,44,94,135.97156156750862,136.77595326467417,"[56, 0, 198]",198,l,0.28093344636727124,colour,0.5
110,18,0,1,2,45,95,137.2841590443859,137.86395852954593,"[13, 0, 241]",241,a,0.0563459605909884,colour,0.5
110,18,0,1,2,46,96,138.37802040437236,139.1999189464841,"[35, 0, 219]",219,a,0.2986080697737634,colour,0.5
110,18,0,1,2,47,97,139.70610665972345,140.7919189905515,"[25, 0, 229]",229,a,0.5624497846001759,colour,0.5
110,18,0,1,2,48,98,141.29989712743554,142.03193499648478,"[15, 0, 239]",239,a,0.20862687984481454,colour,0.5
110,18,0,1,2,49,99,142.54985695518553,143.21592484472785,"[90, 0, 164]",164,l,0.14257537422236055,colour,0.5
110,18,0,1,2,50,100,143.73742371203844,144.3758637040155,"[62, 0, 192]",192,l,0.11509831959847361,colour,0.5
110,18,0,1,3,1,101,153.5960078202188,154.1759124621749,"[14, 0, 240]",240,l,0.05570438550785184,colour,0.5
110,18,0,1,3,2,102,154.6905985827325,155.2479015889112,"[0, 0, 254]",254,a,0.034073579823598266,colour,0.5
110,18,0,1,3,3,103,155.76865254284348,156.3438885352807,"[23, 0, 231]",231,a,0.051860055536963046,colour,0.5
110,18,0,1,3,4,104,156.8623110720655,157.43986484780908,"[68, 0, 186]",186,l,0.054350737133063376,colour,0.5
110,18,0,1,3,5,105,157.9561783396639,158.62387596373446,"[86, 0, 168]",168,l,0.14460053003858775,colour,0.5
110,18,0,1,3,6,106,159.14362457976677,159.68797281198204,"[19, 0, 235]",235,a,0.021030978299677372,colour,0.5
110,18,0,1,3,7,107,160.206148407422,160.92794785788283,"[51, 0, 203]",203,l,0.19841406121850014,colour,0.5
110,18,0,1,3,8,108,161.44054501969367,162.67192871065345,"[35, 0, 219]",219,a,0.7081251200288534,colour,0.5
110,18,0,1,3,9,109,163.19111018860713,163.74388751131482,"[89, 0, 165]",165,l,0.029341521207243204,colour,0.5
110,18,0,1,3,10,110,164.25359738862608,164.84786677290685,"[77, 0, 177]",177,l,0.07091904734261334,colour,0.5
110,18,0,1,3,11,111,165.36300069629215,165.95988915592898,"[20, 0, 234]",234,a,0.07355072570499033,colour,0.5
110,18,0,1,3,12,112,166.47186285967473,167.55990632763132,"[92, 0, 162]",162,l,0.5645891557214782,colour,0.5
110,18,0,1,3,13,113,168.08135005657095,168.99186944472603,"[2, 0, 252]",252,a,0.3871769281104207,colour,0.5
110,18,0,1,3,14,114,169.50319999805652,170.18389768828638,"[29, 0, 225]",225,a,0.15745369158685207,colour,0.5
110,18,0,1,3,15,115,170.6906765642343,171.27986651775427,"[56, 0, 198]",198,l,0.06586639804299921,colour,0.5
110,18,0,1,3,16,116,171.8014382465044,172.33634559821803,"[9, 0, 245]",245,a,0.011534565477631986,colour,0.5
110,18,0,1,3,17,117,172.84826888958924,173.42388573114295,"[1, 0, 253]",253,a,0.05216607381589711,colour,0.5
110,18,0,1,3,18,118,173.94209992338438,175.41589144652244,"[15, 0, 239]",239,a,0.950395500054583,colour,0.5
110,18,0,1,3,19,119,175.9264870834304,176.87987856939435,"[27, 0, 227]",227,a,0.430084865889512,colour,0.5
110,18,0,1,3,20,120,177.3952464372851,178.31995806330815,"[59, 0, 195]",195,a,0.40155348589178175,colour,0.5
110,18,0,1,3,21,121,178.83410067646764,179.7519239373505,"[62, 0, 192]",192,l,0.39438430860172957,colour,0.5
110,18,0,1,3,22,122,180.27162371645682,181.21589412470348,"[54, 0, 200]",200,l,0.4209196774754673,colour,0.5
110,18,0,1,3,23,123,181.7247576272348,182.52792603883427,"[33, 0, 221]",221,a,0.2797314285999164,colour,0.5
110,18,0,1,3,24,124,183.03798446978908,183.59188701026142,"[7, 0, 247]",247,a,0.030590012669563293,colour,0.5
110,18,0,1,3,25,125,184.10079226037487,184.63990588649176,"[48, 0, 206]",206,a,0.015920433565042913,colour,0.5
110,18,0,1,3,26,126,185.14767646661494,185.7599272802472,"[98, 0, 156]",156,l,0.0888945689657703,colour,0.5
110,18,0,1,3,27,127,186.27272294042632,187.2478429058101,"[80, 0, 174]",174,l,0.4518113761441782,colour,0.5
110,18,0,1,3,28,128,187.75705102353822,188.40785856521688,"[38, 0, 216]",216,a,0.12740836781449616,colour,0.5
110,18,0,1,3,29,129,188.92895098344889,189.5518596615875,"[69, 0, 185]",185,l,0.0997934672050178,colour,0.5
110,18,0,1,3,30,130,190.06963589729276,190.7758591354359,"[60, 0, 194]",194,l,0.18284887657500803,colour,0.5
110,18,0,1,3,31,131,191.2776117498288,192.03986114566214,"[45, 0, 209]",209,l,0.23898255417589098,colour,0.5
110,18,0,1,3,32,132,192.5587858359795,193.34386135987006,"[73, 0, 181]",181,l,0.2622627866221592,colour,0.5
110,18,0,1,3,33,133,193.85568303905893,194.87189098028466,"[47, 0, 207]",207,l,0.49285957345273346,colour,0.5
110,18,0,1,3,34,134,195.38694298372138,196.18387445132248,"[84, 0, 170]",170,l,0.27362563530914485,colour,0.5
110,18,0,1,3,35,135,196.6993821344804,198.31988008180633,"[4, 0, 250]",250,a,1.0970897149527445,colour,0.5
110,18,0,1,3,36,136,198.8399985191645,199.64786787563935,"[85, 0, 169]",169,l,0.2844548226566985,colour,0.5
110,18,0,1,3,37,137,200.16816314985044,200.72786625300068,"[41, 0, 213]",213,a,0.03634213237091899,colour,0.5
110,18,0,1,3,38,138,201.24626082682516,201.82386068243068,"[91, 0, 163]",163,l,0.05436530942097306,colour,0.5
110,18,0,1,3,39,139,202.34309414809104,202.98387437255587,"[53, 0, 201]",201,a,0.11750353674869984,colour,0.5
110,18,0,1,3,40,140,203.49922963732388,204.16789690998849,"[57, 0, 197]",197,a,0.14522083720657974,colour,0.5
110,18,0,1,3,41,141,204.68676016037352,205.27186120545957,"[79, 0, 175]",175,l,0.07357002422213554,colour,0.5
110,18,0,1,3,42,142,205.7844004719518,206.4318886802066,"[24, 0, 230]",230,a,0.12405516358558089,colour,0.5
110,18,0,1,3,43,143,206.94280766451266,207.48784945940133,"[71, 0, 183]",183,l,0.02170051634311676,colour,0.5
110,18,0,1,3,44,144,208.00528541218955,208.53641775075812,"[70, 0, 184]",184,l,0.007769004674628377,colour,0.5
110,18,0,1,3,45,145,209.06776119070128,210.02386115514673,"[5, 0, 249]",249,a,0.4326842490117997,colour,0.5
110,18,0,1,3,46,146,210.53660049522296,211.80783903039992,"[55, 0, 199]",199,l,0.7479618473444134,colour,0.5
110,18,0,1,3,47,147,212.31780096911825,214.18384215596598,"[64, 0, 190]",190,l,1.3419894102262333,colour,0.5
110,18,0,1,3,48,148,214.68312850710936,215.21591972466558,"[8, 0, 246]",246,a,0.009435760555788875,colour,0.5
110,18,0,1,3,49,149,215.72994221490808,216.55985000764485,"[31, 0, 223]",223,a,0.306559031130746,colour,0.5
110,18,0,1,3,50,150,217.07379215327092,217.9679149481235,"[16, 0, 238]",238,a,0.37071889475919306,colour,0.5
110,18,0,1,4,1,151,234.87057711032685,236.62393779749982,"[8, 0, 246]",246,a,1.229249439900741,colour,0.5
110,18,0,1,4,2,152,237.1257790272357,238.16788194386754,"[12, 0, 242]",242,a,0.5187380074057728,colour,0.5
110,18,0,1,4,3,153,238.6882646518061,239.63985114195384,"[31, 0, 223]",223,a,0.4282109469641,colour,0.5
110,18,0,1,4,4,154,240.15703227638733,241.04788969480433,"[7, 0, 247]",247,a,0.36757954908534884,colour,0.5
110,18,0,1,4,5,155,241.5632823748747,242.67181292001624,"[82, 0, 172]",172,l,0.5853972173063084,colour,0.5
110,18,0,1,4,6,156,243.1882555934135,244.82389376556966,"[48, 0, 206]",206,a,1.112298862892203,colour,0.5
110,18,0,1,4,7,157,245.3445242026355,246.44783432001714,"[36, 0, 218]",218,a,0.5799597804434597,colour,0.5
110,18,0,1,4,8,158,246.953934205696,247.8558480605716,"[18, 0, 236]",236,a,0.3785572163760662,colour,0.5
110,18,0,1,4,9,159,248.37572940264363,249.28780330065638,"[74, 0, 180]",180,l,0.3887664902722463,colour,0.5
110,18,0,1,4,10,160,249.7976829255931,250.77581660007127,"[4, 0, 250]",250,a,0.45481484511401504,colour,0.5
110,18,0,1,4,11,161,251.28201612876728,252.3198265187675,"[26, 0, 228]",228,a,0.5145147975999862,colour,0.5
110,18,0,1,4,12,162,252.82890742411837,253.86381516966503,"[84, 0, 170]",170,l,0.5117563008097932,colour,0.5
110,18,0,1,4,13,163,254.3756935626734,255.45580182306003,"[60, 0, 194]",194,l,0.5567488649394363,colour,0.5
110,18,0,1,4,14,164,255.96942731644958,256.91181356587913,"[3, 0, 251]",251,a,0.4189764417242259,colour,0.5
110,18,0,1,4,15,165,257.4226025810931,258.38381387782283,"[19, 0, 235]",235,a,0.4378455998376012,colour,0.5
110,18,0,1,4,16,166,258.89141589181963,259.9038318844978,"[23, 0, 231]",231,a,0.4891231572255492,colour,0.5
110,18,0,1,4,17,167,260.42262109182775,261.33585013996344,"[14, 0, 240]",240,a,0.3899641757598147,colour,0.5
110,18,0,1,4,18,168,261.84444779646583,262.8078465134604,"[66, 0, 188]",188,l,0.44010273076128215,colour,0.5
110,18,0,1,4,19,169,263.3288664642023,264.15986205940135,"[15, 0, 239]",239,a,0.30783233512192965,colour,0.5
110,18,0,1,4,20,170,264.67256871028803,265.4637937444495,"[61, 0, 193]",193,l,0.2678227095166221,colour,0.5
110,18,0,1,4,21,171,265.9701563252602,266.73582115292083,"[41, 0, 213]",213,a,0.24232788139488548,colour,0.5
110,18,0,1,4,22,172,267.25137452222407,268.10382526787,"[38, 0, 216]",216,l,0.3290862302528694,colour,0.5
110,18,0,1,4,23,173,268.61085699289106,269.3997890560422,"[92, 0, 162]",162,l,0.2656073260586709,colour,0.5
110,18,0,1,4,24,174,269.9075785407331,270.85581458359957,"[85, 0, 169]",169,l,0.42487782903481275,colour,0.5
110,18,0,1,4,25,175,271.3765218205517,272.36790210881736,"[49, 0, 205]",205,l,0.4683887448627502,colour,0.5
110,18,0,1,4,26,176,272.8686130006099,273.9518739975756,"[89, 0, 165]",165,l,0.55991420452483,colour,0.5
110,18,0,1,4,27,177,274.4623692036839,275.60784052708186,"[97, 0, 157]",157,l,0.6335539396386594,colour,0.5
110,18,0,1,4,28,178,276.1228050966747,277.30385370354634,"[56, 0, 198]",198,l,0.6576301346067339,colour,0.5
110,18,0,1,4,29,179,277.8103037182009,279.2238053077599,"[77, 0, 177]",177,l,0.8901622802950442,colour,0.5
110,18,0,1,4,30,180,279.73219580121804,281.06482782633975,"[65, 0, 189]",189,l,0.8093084696447477,colour,0.5
110,18,0,1,4,31,181,281.5879012895748,282.9118131720461,"[87, 0, 167]",167,l,0.8005036500981078,colour,0.5
110,18,0,1,4,32,182,283.43169254495297,284.06378334690817,"[44, 0, 210]",210,a,0.10864672961179167,colour,0.5
110,18,0,1,4,33,183,284.57230892952066,285.6638891339535,"[50, 0, 204]",204,a,0.5681676397798583,colour,0.5
110,18,0,1,4,34,184,286.1816760033835,287.0398229425773,"[33, 0, 221]",221,a,0.33483519905712456,colour,0.5
110,18,0,1,4,35,185,287.5566653695423,288.43180676025804,"[69, 0, 185]",185,l,0.35184658598154783,colour,0.5
110,18,0,1,4,36,186,288.947299083462,289.79980378597975,"[73, 0, 181]",181,l,0.32911773794330657,colour,0.5
110,18,0,1,4,37,187,290.30669018183835,291.1757915514754,"[93, 0, 161]",161,l,0.3464674383867532,colour,0.5
110,18,0,1,4,38,188,291.69737076340243,292.57580864441115,"[47, 0, 207]",207,l,0.3551785225281492,colour,0.5
110,18,0,1,4,39,189,293.0879627295071,294.71977783937473,"[34, 0, 220]",220,a,1.1085545697715133,colour,0.5
110,18,0,1,4,40,190,295.2285353972111,296.0957967187278,"[96, 0, 158]",158,l,0.34410869516432285,colour,0.5
110,18,0,1,4,41,191,296.6035322465468,297.3838524747407,"[79, 0, 175]",175,l,0.25703960203099996,colour,0.5
110,18,0,1,4,42,192,297.9003727356903,298.479794916464,"[91, 0, 163]",163,l,0.05605293915141374,colour,0.5
110,18,0,1,4,43,193,298.9941998310387,299.5358273757156,"[2, 0, 252]",252,a,0.018341404502280056,colour,0.5
110,18,0,1,4,44,194,300.05665788648184,300.8478395974962,"[21, 0, 233]",233,a,0.2679255031980574,colour,0.5
110,18,0,1,4,45,195,301.36912578810006,302.1917931174394,"[55, 0, 199]",199,l,0.2993244754616171,colour,0.5
110,18,0,1,4,46,196,302.7128855357878,303.4238042050274,"[58, 0, 196]",196,l,0.18768963683396578,colour,0.5
110,18,0,1,4,47,197,303.93166103726253,304.5357738126768,"[68, 0, 186]",186,l,0.08084120764397085,colour,0.5
110,18,0,1,4,48,198,305.0566551295342,305.895794670796,"[30, 0, 224]",224,a,0.31581165350507945,colour,0.5
110,18,0,1,4,49,199,306.4173191380687,306.959833623725,"[76, 0, 178]",178,l,0.019102314952760935,colour,0.5
110,18,0,1,4,50,200,307.47977049811743,309.58381080580875,"[40, 0, 214]",214,a,1.580771890701726,colour,0.5
110,18,0,1,5,1,201,315.2134337692987,316.1598246439826,"[81, 0, 173]",173,l,0.4224852150073275,colour,0.5
110,18,0,1,5,2,202,316.6674112980254,317.7037699718494,"[95, 0, 159]",159,l,0.5130244846222922,colour,0.5
110,18,0,1,5,3,203,318.2141635657754,319.0797979097115,"[30, 0, 224]",224,a,0.34236395766492933,colour,0.5
110,18,0,1,5,4,204,319.5853196295211,320.54378700174857,"[82, 0, 172]",172,l,0.4336216022493318,colour,0.5
110,18,0,1,5,5,205,321.0572628338123,322.0557863054564,"[63, 0, 191]",191,a,0.4751097254920751,colour,0.5
110,18,0,1,5,6,206,322.5728548000334,323.47977167961653,"[13, 0, 241]",241,a,0.3835637856973335,colour,0.5
110,18,0,1,5,7,207,323.98232695192564,324.86380099121016,"[27, 0, 227]",227,a,0.3581276407931,colour,0.5
110,18,0,1,5,8,208,325.3729106473038,326.3598113319604,"[61, 0, 193]",193,l,0.46348693838808686,colour,0.5
110,18,0,1,5,9,209,326.87294254882727,327.8078476950759,"[41, 0, 213]",213,a,0.4167933538556099,colour,0.5
110,18,0,1,5,10,210,328.3207611150574,329.27977514546365,"[76, 0, 178]",178,l,0.4357156810583547,colour,0.5
110,18,0,1,5,11,211,329.7896149919834,330.79979827208444,"[49, 0, 205]",205,l,0.48690383543726057,colour,0.5
110,18,0,1,5,12,212,331.3209032934392,332.3678702072939,"[77, 0, 177]",177,l,0.5239509519888088,colour,0.5
110,18,0,1,5,13,213,332.88331369357184,333.8957812800072,"[46, 0, 208]",208,l,0.4891448187408969,colour,0.5
110,18,0,1,5,14,214,334.41456024732906,335.4477862707572,"[60, 0, 194]",194,l,0.5099568186560646,colour,0.5
110,18,0,1,5,15,215,335.9614877765998,336.871838992578,"[48, 0, 206]",206,a,0.38705050363205373,colour,0.5
110,18,0,1,5,16,216,337.383275490487,338.25577456888277,"[85, 0, 169]",169,l,0.3490825752960518,colour,0.5
110,18,0,1,5,17,217,338.77393047197256,339.51986243750434,"[34, 0, 220]",220,a,0.22253082238603383,colour,0.5
110,18,0,1,5,18,218,340.03961459815037,340.9838078125613,"[8, 0, 246]",246,a,0.4208444529213011,colour,0.5
110,18,0,1,5,19,219,341.4927969519049,342.55179231404327,"[10, 0, 244]",244,a,0.5357490004971623,colour,0.5
110,18,0,1,5,20,220,343.0708154658787,343.99184266326483,"[96, 0, 158]",158,l,0.39764771587215364,colour,0.5
110,18,0,1,5,21,221,344.5082620996982,345.4237506419886,"[19, 0, 235]",235,a,0.3921319037908688,colour,0.5
110,18,0,1,5,22,222,345.9302758811973,346.8957769477274,"[14, 0, 240]",240,a,0.4422826679656282,colour,0.5
110,18,0,1,5,23,223,347.41446808737237,348.37576287949923,"[5, 0, 249]",249,a,0.43778140284121037,colour,0.5
110,18,0,1,5,24,224,348.8844381236704,349.91973813972436,"[69, 0, 185]",185,l,0.5118846945697442,colour,0.5
110,18,0,1,5,25,225,350.43120220676064,351.4717525828164,"[45, 0, 209]",209,l,0.5171319036744535,colour,0.5
110,18,0,1,5,26,226,351.96560149721336,353.0077985430835,"[23, 0, 231]",231,a,0.5187655766494572,colour,0.5
110,18,0,1,5,27,227,353.5281442295527,354.51977264054585,"[83, 0, 171]",171,l,0.46830879407934844,colour,0.5
110,18,0,1,5,28,228,355.02817494946066,356.0237430012785,"[26, 0, 228]",228,a,0.4723051486071199,colour,0.5
110,18,0,1,5,29,229,356.5437551002251,357.5997544764541,"[33, 0, 221]",221,a,0.5325714515056461,colour,0.5
110,18,0,1,5,30,230,358.10633800481446,359.0957778141601,"[73, 0, 181]",181,l,0.46612019231542945,colour,0.5
110,18,0,1,5,31,231,359.6062919248361,360.7678168017883,"[0, 0, 254]",254,a,0.6382139244815335,colour,0.5
110,18,0,1,5,32,232,361.2657164214179,362.4557557430817,"[18, 0, 236]",236,a,0.6656330837868154,colour,0.5
110,18,0,1,5,33,233,362.96989481162746,364.0717890529195,"[93, 0, 161]",161,l,0.5787010488566011,colour,0.5
110,18,0,1,5,34,234,364.5793185993098,365.68775383371394,"[56, 0, 198]",198,l,0.5852365281898528,colour,0.5
110,18,0,1,5,35,235,366.2042823653901,367.4317638310604,"[79, 0, 175]",175,l,0.7041441255714744,colour,0.5
110,18,0,1,5,36,236,367.9387183623621,369.2398450766923,"[66, 0, 188]",188,l,0.7778216697042808,colour,0.5
110,18,0,1,5,37,237,369.74161265720613,371.0237989274319,"[44, 0, 210]",210,a,0.758816240937449,colour,0.5
110,18,0,1,5,38,238,371.538452752633,372.71174810873345,"[1, 0, 253]",253,a,0.6498595545999706,colour,0.5
110,18,0,1,5,39,239,373.22596752189565,374.4237498542061,"[36, 0, 218]",218,a,0.6743831584462896,colour,0.5
110,18,0,1,5,40,240,374.9343194972025,376.1277943367604,"[17, 0, 237]",237,a,0.6701469518011436,colour,0.5
110,18,0,1,5,41,241,376.6373821218731,377.6798221706413,"[91, 0, 163]",163,l,0.5304210528265685,colour,0.5
110,18,0,1,5,42,242,378.1885068670381,379.42371007578913,"[90, 0, 164]",164,l,0.7120868162019178,colour,0.5
110,18,0,1,5,43,243,379.9417600344168,381.07975301134866,"[99, 0, 155]",155,l,0.6146552431164309,colour,0.5
110,18,0,1,5,44,244,381.59577269421425,382.90375272149686,"[53, 0, 201]",201,l,0.7848226748174056,colour,0.5
110,18,0,1,5,45,245,383.4239530786872,384.6157320177881,"[3, 0, 251]",251,a,0.6691162571078166,colour,0.5
110,18,0,1,5,46,246,385.1272886386141,386.04774791025557,"[94, 0, 160]",160,l,0.3972196053946391,colour,0.5
110,18,0,1,5,47,247,386.56478017091285,387.4397372417152,"[98, 0, 156]",156,l,0.3517591521376744,colour,0.5
110,18,0,1,5,48,248,387.9552791895112,388.81571594881825,"[70, 0, 184]",184,l,0.33710257010534406,colour,0.5
110,18,0,1,5,49,249,389.33027997717727,390.46372875990346,"[75, 0, 179]",179,l,0.6101472827140242,colour,0.5
110,18,0,1,5,50,250,390.97096607252024,391.97584070346784,"[39, 0, 215]",215,a,0.48146521707531065,colour,0.5
110,18,0,1,6,1,251,405.0991262921598,405.99974518164527,"[39, 0, 215]",215,l,0.37657538370694965,colour,0.5
110,18,0,1,6,2,252,406.50616802088916,407.4476972615812,"[1, 0, 253]",253,a,0.41841678658965975,colour,0.5
110,18,0,1,6,3,253,407.95924639946315,408.89575055998284,"[95, 0, 159]",159,l,0.4131274359533563,colour,0.5
110,18,0,1,6,4,254,409.4145204689121,410.37575185182504,"[19, 0, 235]",235,a,0.4384741778485477,colour,0.5
110,18,0,1,6,5,255,410.8832703704247,411.8638049296569,"[34, 0, 220]",220,a,0.4547797928098589,colour,0.5
110,18,0,1,6,6,256,412.3855916983448,413.3437250892166,"[14, 0, 240]",240,a,0.43480274616740644,colour,0.5
110,18,0,1,6,7,257,413.85432072600815,414.8877787247766,"[26, 0, 228]",228,a,0.5101411386858672,colour,0.5
110,18,0,1,6,8,258,415.4012305322103,416.2877245314885,"[92, 0, 162]",162,l,0.3632570899790153,colour,0.5
110,18,0,1,6,9,259,416.80773151048925,417.8237673409749,"[49, 0, 205]",205,l,0.49264847196172923,colour,0.5
110,18,0,1,6,10,260,418.3389745197492,419.29573260061443,"[91, 0, 163]",163,l,0.4333805685164407,colour,0.5
110,18,0,1,6,11,261,419.8077531720046,420.83172224089503,"[41, 0, 213]",213,l,0.5005943134892732,colour,0.5
110,18,0,1,6,12,262,421.3390072089387,422.3517591521377,"[62, 0, 192]",192,l,0.48943902156315744,colour,0.5
110,18,0,1,6,13,263,422.8702584889252,423.85581576509867,"[56, 0, 198]",198,l,0.46221639146097004,colour,0.5
110,18,0,1,6,14,264,424.3702651843196,425.3757227072492,"[67, 0, 187]",187,l,0.48213948134798557,colour,0.5
110,18,0,1,6,15,265,425.88780708168633,426.79169410455506,"[24, 0, 230]",230,a,0.38060875970404595,colour,0.5
110,18,0,1,6,16,266,427.309716100106,428.223766710842,"[8, 0, 246]",246,a,0.3907046060776338,colour,0.5
110,18,0,1,6,17,267,428.73229701968376,429.70378927036654,"[83, 0, 171]",171,l,0.4481281291227788,colour,0.5
110,18,0,1,6,18,268,430.21680509031285,430.89571156923193,"[5, 0, 249]",249,a,0.15600000624544919,colour,0.5
110,18,0,1,6,19,269,431.4055679573212,432.8557180913631,"[15, 0, 239]",239,a,0.9267505663447082,colour,0.5
110,18,0,1,6,20,270,433.374304074212,434.23975015990436,"[36, 0, 218]",218,a,0.34209693025331944,colour,0.5
110,18,0,1,6,21,271,434.7492705973564,435.5997513256734,"[25, 0, 229]",229,a,0.3271426005521789,colour,0.5
110,18,0,1,6,22,272,436.1086211296497,436.99174853402656,"[75, 0, 179]",179,l,0.3597451659152284,colour,0.5
110,18,0,1,6,23,273,437.4992717788555,438.4876911333995,"[42, 0, 212]",212,l,0.4650146667845547,colour,0.5
110,18,0,1,6,24,274,438.99923239427153,439.9037353922613,"[71, 0, 183]",183,l,0.38096164574380964,colour,0.5
110,18,0,1,6,25,275,440.42114180652425,441.40773371607065,"[53, 0, 201]",201,l,0.4631529572652653,colour,0.5
110,18,0,1,6,26,276,441.92114968341775,442.8557204544777,"[52, 0, 202]",202,l,0.4113578862743452,colour,0.5
110,18,0,1,6,27,277,443.37425720656756,444.52767555287573,"[55, 0, 199]",199,a,0.6300042063230649,colour,0.5
110,18,0,1,6,28,278,445.0460665819701,446.1677551254397,"[32, 0, 222]",222,a,0.5984768402995542,colour,0.5
110,18,0,1,6,29,279,446.68672825885005,447.60778145014774,"[93, 0, 161]",161,l,0.39775681123137474,colour,0.5
110,18,0,1,6,30,280,448.1242772927508,449.1037488617003,"[82, 0, 172]",172,l,0.4561161120655015,colour,0.5
110,18,0,1,6,31,281,449.6242607511813,450.7277020192705,"[54, 0, 200]",200,l,0.5801504018018022,colour,0.5
110,18,0,1,6,32,282,451.2492095512571,452.2717072117375,"[46, 0, 208]",208,l,0.4990874589420855,colour,0.5
110,18,0,1,6,33,283,452.7804580742959,453.74370122211985,"[66, 0, 188]",188,l,0.4397778077982366,colour,0.5
110,18,0,1,6,34,284,454.26486925885547,455.1837436944479,"[27, 0, 227]",227,a,0.39558041852433234,colour,0.5
110,18,0,1,6,35,285,455.6916588159511,456.58372297824826,"[35, 0, 219]",219,a,0.3687626621685922,colour,0.5
110,18,0,1,6,36,286,457.0989963230677,458.1197189199738,"[90, 0, 164]",164,l,0.4974104630528018,colour,0.5
110,18,0,1,6,37,287,458.63024642143864,459.54371098952834,"[69, 0, 185]",185,l,0.39011620031669736,colour,0.5
110,18,0,1,6,38,288,460.0520853353664,461.03169908281416,"[85, 0, 169]",169,l,0.4562295397045091,colour,0.5
110,18,0,1,6,39,289,461.55216922448017,462.51968481298536,"[13, 0, 241]",241,a,0.4442416576202959,colour,0.5
110,18,0,1,6,40,290,463.0364866737509,463.847724200692,"[80, 0, 174]",174,l,0.2878804944921285,colour,0.5
110,18,0,1,6,41,291,464.3522014411865,465.0476994671626,"[51, 0, 203]",203,a,0.17205119680147618,colour,0.5
110,18,0,1,6,42,292,465.55536843498703,466.2556717750849,"[98, 0, 156]",156,l,0.1768844739999622,colour,0.5
110,18,0,1,6,43,293,466.7741108534392,467.8316860070918,"[38, 0, 216]",216,a,0.5342945273732767,colour,0.5
110,18,0,1,6,44,294,468.3521415765863,469.27971173624974,"[59, 0, 195]",195,l,0.4040914289653301,colour,0.5
110,18,0,1,6,45,295,469.7897106965538,470.63166229752824,"[28, 0, 226]",226,a,0.318551245611161,colour,0.5
110,18,0,1,6,46,296,471.1497756653698,472.12767145689577,"[2, 0, 252]",252,a,0.4545915345661342,colour,0.5
110,18,0,1,6,47,297,472.63414510223083,473.1997102081077,"[87, 0, 167]",167,l,0.04222815961111337,colour,0.5
110,18,0,1,6,48,298,473.7122447483707,474.48771830881014,"[50, 0, 204]",204,l,0.2522480725310743,colour,0.5
110,18,0,1,6,49,299,475.00919512065593,475.8478805575287,"[23, 0, 231]",231,a,0.3153748783515766,colour,0.5
110,18,0,1,6,50,300,476.3685259607155,477.23969580908306,"[44, 0, 210]",210,a,0.34778997290413827,colour,0.5
110,18,0,1,7,1,301,488.75827706581913,489.58366744592786,"[45, 0, 209]",209,l,0.3012468373635784,colour,0.5
110,18,0,1,7,2,302,490.1028107207967,491.0237083429238,"[68, 0, 186]",186,l,0.39747914986219257,colour,0.5
110,18,0,1,7,3,303,491.54034360696096,492.4957255901536,"[49, 0, 205]",205,l,0.431949726305902,colour,0.5
110,18,0,1,7,4,304,493.0090899638599,493.89577497844584,"[38, 0, 216]",216,a,0.36258243198972195,colour,0.5
110,18,0,1,7,5,305,494.4177070762962,495.2716780671617,"[5, 0, 249]",249,a,0.33050840778741986,colour,0.5
110,18,0,1,7,6,306,495.79271101474296,496.7036719042808,"[78, 0, 176]",176,l,0.3876022817566991,colour,0.5
110,18,0,1,7,7,307,497.2146137316013,498.1117199093569,"[58, 0, 196]",196,l,0.3738314592046663,colour,0.5
110,18,0,1,7,8,308,498.61352884361986,499.4156732559204,"[65, 0, 189]",189,l,0.278866542968899,colour,0.5
110,18,0,1,7,9,309,499.91375562013127,500.7677270048298,"[93, 0, 161]",161,l,0.33053794619627297,colour,0.5
110,18,0,1,7,10,310,501.28875207551755,502.1276773645077,"[60, 0, 194]",194,l,0.3156324535375461,colour,0.5
110,18,0,1,7,11,311,502.64870913058985,503.43967107555363,"[3, 0, 251]",251,a,0.26759585412219167,colour,0.5
110,18,0,1,7,12,312,503.96128021972254,504.7996663337108,"[22, 0, 232]",232,a,0.31509288458619267,colour,0.5
110,18,0,1,7,13,313,505.32086745346896,506.22370369546115,"[53, 0, 201]",201,l,0.37984903098549694,colour,0.5
110,18,0,1,7,14,314,506.7425047182478,507.9916331372224,"[9, 0, 245]",245,a,0.7258793003857136,colour,0.5
110,18,0,1,7,15,315,508.508088807459,509.3357040231349,"[16, 0, 238]",238,a,0.305010822834447,colour,0.5
110,18,0,1,7,16,316,509.84161604428664,510.65568099112716,"[20, 0, 234]",234,a,0.29064174834638834,colour,0.5
110,18,0,1,7,17,317,511.16984684113413,512.1357728674775,"[42, 0, 212]",212,a,0.4425871109124273,colour,0.5
110,18,0,1,7,18,318,512.6541119089816,513.4877356379293,"[88, 0, 166]",166,l,0.31042659806553274,colour,0.5
110,18,0,1,7,19,319,513.9978460565908,514.943694605492,"[39, 0, 215]",215,l,0.42243992269504815,colour,0.5
110,18,0,1,7,20,320,515.4509433397325,516.4477039569756,"[75, 0, 179]",179,l,0.47362177551258355,colour,0.5
110,18,0,1,7,21,321,516.9666361304699,517.9276938273106,"[31, 0, 223]",223,l,0.4377538337139413,colour,0.5
110,18,0,1,7,22,322,518.4353797304211,519.2476739459671,"[27, 0, 227]",227,a,0.28886904777027667,colour,0.5
110,18,0,1,7,23,323,519.7647168404656,520.6076731424546,"[63, 0, 191]",191,l,0.31975168792996556,colour,0.5
110,18,0,1,7,24,324,521.1240008128807,522.0396378349978,"[55, 0, 199]",199,l,0.39226266054902226,colour,0.5
110,18,0,1,7,25,325,522.5456845514709,523.4876856195042,"[92, 0, 162]",162,l,0.4185298203956336,colour,0.5
110,18,0,1,7,26,326,524.0010767746717,524.8396432701265,"[66, 0, 188]",188,l,0.3152039492269978,colour,0.5
110,18,0,1,7,27,327,525.360362322419,526.1916950497543,"[70, 0, 184]",184,l,0.3082108210073784,colour,0.5
110,18,0,1,7,28,328,526.7041508208495,527.4956897501834,"[87, 0, 167]",167,l,0.26816338615026325,colour,0.5
110,18,0,1,7,29,329,528.0167002485832,528.8556074206717,"[97, 0, 157]",157,l,0.31557692121714354,colour,0.5
110,18,0,1,7,30,330,529.3760523563251,530.3276672032662,"[37, 0, 217]",217,a,0.42824442393612117,colour,0.5
110,18,0,1,7,31,331,530.8447549962439,531.67162387399,"[11, 0, 243]",243,a,0.3035453222692013,colour,0.5
110,18,0,1,7,32,332,532.1897927740356,533.1676814763341,"[13, 0, 241]",241,a,0.4546876329695806,colour,0.5
110,18,0,1,7,33,333,533.6741366109345,534.5756341706729,"[48, 0, 206]",206,l,0.37815667502582073,colour,0.5
110,18,0,1,7,34,334,535.0960330263479,535.9596410330851,"[33, 0, 221]",221,a,0.3402627897448838,colour,0.5
110,18,0,1,7,35,335,536.4710058509372,537.3917463285616,"[28, 0, 226]",226,a,0.39741849759593606,colour,0.5
110,18,0,1,7,36,336,537.9084946262883,538.7516580913216,"[76, 0, 178]",178,l,0.31976507883518934,colour,0.5
110,18,0,1,7,37,337,539.2678191647865,540.095648238901,"[99, 0, 155]",155,l,0.30433852795977145,colour,0.5
110,18,0,1,7,38,338,540.6116092386656,541.3516563583398,"[17, 0, 237]",237,a,0.21676688734441996,colour,0.5
110,18,0,1,7,39,339,541.8616639832035,542.7196549593937,"[8, 0, 246]",246,a,0.3347327990923077,colour,0.5
110,18,0,1,7,40,340,543.236647047801,544.0396847026423,"[62, 0, 192]",192,l,0.27965029631741345,colour,0.5
110,18,0,1,7,41,341,544.5511566466885,545.3996456961613,"[84, 0, 170]",170,l,0.3250619125319645,colour,0.5
110,18,0,1,7,42,342,545.9104351052083,546.6716195417102,"[40, 0, 214]",214,a,0.23782622267026454,colour,0.5
110,18,0,1,7,43,343,547.1917427051812,547.8876530878479,"[54, 0, 200]",200,l,0.17253720259759575,colour,0.5
110,18,0,1,7,44,344,548.3948675574502,549.2156767217675,"[72, 0, 182]",182,l,0.29752971965353936,colour,0.5
110,18,0,1,7,45,345,549.7229924097192,550.5436881465139,"[86, 0, 168]",168,l,0.29735997202806175,colour,0.5
110,18,0,1,7,46,346,551.0510881175287,551.8316753732506,"[32, 0, 222]",222,a,0.2571833557449281,colour,0.5
110,18,0,1,7,47,347,552.3491010860307,553.023615395301,"[57, 0, 197]",197,l,0.15110607689712197,colour,0.5
110,18,0,1,7,48,348,553.5365792275406,554.3357694016304,"[41, 0, 213]",213,a,0.2758441693149507,colour,0.5
110,18,0,1,7,49,349,554.8493232150795,555.5436389157549,"[98, 0, 156]",156,l,0.1712264835368842,colour,0.5
110,18,0,1,7,50,350,556.052183009102,556.6156666392926,"[0, 0, 254]",254,a,0.04011517623439431,colour,0.5
110,18,0,1,8,1,351,579.463550347602,580.0796222544741,"[94, 0, 160]",160,l,0.10297101608011872,colour,0.5
110,18,0,1,8,2,352,580.5937983446056,581.2876473377692,"[58, 0, 196]",196,l,0.16916351858526468,colour,0.5
110,18,0,1,8,3,353,581.7984706175048,582.4476736309007,"[32, 0, 222]",222,a,0.1258310149423778,colour,0.5
110,18,0,1,8,4,354,582.9545935037313,583.575610933709,"[80, 0, 174]",174,l,0.09750285930931568,colour,0.5
110,18,0,1,8,5,355,584.0953638821375,584.6236305977218,"[13, 0, 241]",241,a,0.005123147740960121,colour,0.5
110,18,0,1,8,6,356,585.1422768390039,585.7356344700092,"[0, 0, 254]",254,a,0.07003762014210224,colour,0.5
110,18,0,1,8,7,357,586.2516880235635,586.8396472085733,"[41, 0, 213]",213,l,0.0646490203216672,colour,0.5
110,18,0,1,8,8,358,587.36108266667,587.9595933776582,"[87, 0, 167]",167,l,0.07511586940381676,colour,0.5
110,18,0,1,8,9,359,588.4703532482963,589.4876281180186,"[21, 0, 233]",233,a,0.49395840358920395,colour,0.5
110,18,0,1,8,10,360,590.0016978697386,590.7756381878862,"[19, 0, 235]",235,a,0.2506427565822378,colour,0.5
110,18,0,1,8,11,361,591.2828975559678,591.8076917320723,"[26, 0, 228]",228,a,0.0008853656472638249,colour,0.5
110,18,0,1,8,12,362,592.3303016386926,592.9276186027564,"[65, 0, 189]",189,l,0.0739914394216612,colour,0.5
110,18,0,1,8,13,363,593.4397443309426,594.0156715230551,"[34, 0, 220]",220,a,0.05285333492793143,colour,0.5
110,18,0,1,8,14,364,594.5334276725771,595.51966315147,"[37, 0, 217]",217,l,0.46346724627073854,colour,0.5
110,18,0,1,8,15,365,596.0335036847973,596.7596626158338,"[56, 0, 198]",198,l,0.2029129632283002,colour,0.5
110,18,0,1,8,16,366,597.2697620067047,597.9196081705159,"[47, 0, 207]",207,l,0.12648282991722226,colour,0.5
110,18,0,1,8,17,367,598.4260321913753,599.0156155969016,"[38, 0, 216]",216,a,0.06630908080842346,colour,0.5
110,18,0,1,8,18,368,599.5365792275406,600.1996452235617,"[53, 0, 201]",201,l,0.14039898163173348,colour,0.5
110,18,0,1,8,19,369,600.7085264490452,601.3916352640372,"[57, 0, 197]",197,l,0.16712221514899284,colour,0.5
110,18,0,1,8,20,370,601.9041422350565,602.4876265426865,"[72, 0, 182]",182,l,0.06013633369002491,colour,0.5
110,18,0,1,8,21,371,602.9978712627199,603.743598034489,"[11, 0, 243]",243,a,0.22271474834997207,colour,0.5
110,18,0,1,8,22,372,604.2635219119256,604.8716286788695,"[62, 0, 192]",192,l,0.08489624527283013,colour,0.5
110,18,0,1,8,23,373,605.3888362010475,606.1516172888223,"[66, 0, 188]",188,l,0.23939254775177687,colour,0.5
110,18,0,1,8,24,374,606.670078422525,607.3916273870273,"[88, 0, 166]",166,l,0.1982699135551229,colour,0.5
110,18,0,1,8,25,375,607.9072740977863,608.6076258809771,"[40, 0, 214]",214,l,0.17697190772742033,colour,0.5
110,18,0,1,8,26,376,609.125968860928,610.0796376144281,"[8, 0, 246]",246,a,0.4304168779635802,colour,0.5
110,18,0,1,8,27,377,610.5947723254794,611.2476089614211,"[78, 0, 176]",176,l,0.12783175217919052,colour,0.5
110,18,0,1,8,28,378,611.7685406905366,612.5196324314456,"[79, 0, 175]",175,l,0.22768705314956605,colour,0.5
110,18,0,1,8,29,379,613.0342468720628,613.7756492155604,"[31, 0, 223]",223,a,0.2180579142877832,colour,0.5
110,18,0,1,8,30,380,614.284193309024,615.0235854629427,"[96, 0, 158]",158,l,0.21602133696433157,colour,0.5
110,18,0,1,8,31,381,615.5342130012577,616.3436226892518,"[90, 0, 164]",164,l,0.28605186787899584,colour,0.5
110,18,0,1,8,32,382,616.8627754164627,617.6396089267218,"[25, 0, 229]",229,a,0.25355761020909995,colour,0.5
110,18,0,1,8,33,383,618.151353805908,618.9675947513897,"[82, 0, 172]",172,l,0.2930540544912219,colour,0.5
110,18,0,1,8,34,384,619.4792742521968,620.2796538409311,"[51, 0, 203]",203,l,0.27697844558861107,colour,0.5
110,18,0,1,8,35,385,620.7917842952302,621.6076290317578,"[73, 0, 181]",181,l,0.2936814511194825,colour,0.5
110,18,0,1,8,36,386,622.1198772460921,622.8716070173541,"[77, 0, 177]",177,l,0.22808011143933982,colour,0.5
110,18,0,1,8,37,387,623.3834306657081,624.0796112267999,"[55, 0, 199]",199,l,0.17280107946135104,colour,0.5
110,18,0,1,8,38,388,624.5865811180556,625.1915914682904,"[5, 0, 249]",249,a,0.08229764981660992,colour,0.5
110,18,0,1,8,39,389,625.711434213561,626.4556415276602,"[35, 0, 219]",219,a,0.22080105100758374,colour,0.5
110,18,0,1,8,40,390,626.977160874987,627.7836139616556,"[50, 0, 204]",204,l,0.2830424912972376,colour,0.5
110,18,0,1,8,41,391,628.305318810395,629.407633285271,"[20, 0, 234]",234,a,0.5789566548774019,colour,0.5
110,18,0,1,8,42,392,629.9146795826964,630.695625238237,"[16, 0, 238]",238,a,0.2576713308226317,colour,0.5
110,18,0,1,8,43,393,631.2116063241847,632.0236295737559,"[24, 0, 230]",230,a,0.2889753862982616,colour,0.5
110,18,0,1,8,44,394,632.5397299949545,633.311679028091,"[86, 0, 168]",168,l,0.24900593282654881,colour,0.5
110,18,0,1,8,45,395,633.8209265304031,634.5995898487745,"[54, 0, 200]",200,l,0.25563435966614634,colour,0.5
110,18,0,1,8,46,396,635.1180206564022,635.7676222418668,"[45, 0, 209]",209,l,0.12637806683778763,colour,0.5
110,18,0,1,8,47,397,636.2666671655606,637.0475856456906,"[83, 0, 171]",171,l,0.25758901704102755,colour,0.5
110,18,0,1,8,48,398,637.5635143500986,638.3116593358573,"[44, 0, 210]",210,l,0.22483245795592666,colour,0.5
110,18,0,1,8,49,399,638.82986368204,639.6155831440119,"[22, 0, 232]",232,a,0.26327142596710473,colour,0.5
110,18,0,1,8,50,400,640.1281105950475,640.7916259692283,"[9, 0, 245]",245,a,0.14018039719667286,colour,0.5
110,18,0,1,9,1,401,651.5803851339733,652.199625925161,"[33, 0, 221]",221,l,0.09519925457425416,colour,0.5
110,18,0,1,9,2,402,652.7072681114078,653.3356126509607,"[80, 0, 174]",174,l,0.10502531647216529,colour,0.5
110,18,0,1,9,3,403,653.8479049759917,654.3836354656378,"[49, 0, 205]",205,l,0.0123923618812114,colour,0.5
110,18,0,1,9,4,404,654.8947970590089,655.5436274942476,"[31, 0, 223]",223,a,0.12549112597480416,colour,0.5
110,18,0,1,9,5,405,656.0509900498437,656.8076145382365,"[73, 0, 181]",181,l,0.23315678536891937,colour,0.5
110,18,0,1,9,6,406,657.3166032837471,657.943574088742,"[62, 0, 192]",192,l,0.10356611735187471,colour,0.5
110,18,0,1,9,7,407,658.4572653544601,659.1355672798818,"[12, 0, 242]",242,a,0.1549929422326386,colour,0.5
110,18,0,1,9,8,408,659.6447230159538,660.3996070992434,"[57, 0, 197]",197,l,0.23155501391738653,colour,0.5
110,18,0,1,9,9,409,660.9104315605946,661.5116357838269,"[38, 0, 216]",216,a,0.0785486304666847,colour,0.5
110,18,0,1,9,10,410,662.0195796560729,662.7595921173925,"[69, 0, 185]",185,l,0.21649749670177698,colour,0.5
110,18,0,1,9,11,411,663.2696186468238,663.9916083249263,"[9, 0, 245]",245,a,0.1984302089549601,colour,0.5
110,18,0,1,9,12,412,664.5040597637417,665.2316314200871,"[36, 0, 218]",218,a,0.2032244954025373,colour,0.5
110,18,0,1,9,13,413,665.7394146031002,666.4875804627081,"[44, 0, 210]",210,l,0.2247871656436473,colour,0.5
110,18,0,1,9,14,414,667.0071101003559,667.6795905892504,"[99, 0, 155]",155,l,0.14930738252587616,colour,0.5
110,18,0,1,9,15,415,668.194552402012,668.807582636713,"[94, 0, 160]",160,l,0.08965193468611687,colour,0.5
110,18,0,1,9,16,416,669.3195015958045,670.1195924954955,"[35, 0, 219]",219,l,0.2767208704026416,colour,0.5
110,18,0,1,9,17,417,670.6319974604994,671.2076143019367,"[15, 0, 239]",239,a,0.05217828298918903,colour,0.5
110,18,0,1,9,18,418,671.7258501558099,672.4076076853089,"[93, 0, 161]",161,l,0.15845169720705599,colour,0.5
110,18,0,1,9,19,419,672.9291317587486,673.5996000887826,"[65, 0, 189]",189,l,0.14750553749036044,colour,0.5
110,18,0,1,9,20,420,674.1164062819444,674.6955783705926,"[63, 0, 191]",191,l,0.05586743773892522,colour,0.5
110,18,0,1,9,21,421,675.210140823503,675.7436543544754,"[88, 0, 166]",166,l,0.010477089206688106,colour,0.5
110,18,0,1,9,22,422,676.2571573619498,676.8555731560336,"[77, 0, 177]",177,l,0.0750969648361206,colour,0.5
110,18,0,1,9,23,423,677.3664929281222,677.9195861151675,"[51, 0, 203]",203,l,0.029843280790373683,colour,0.5
110,18,0,1,9,24,424,678.4290187249426,679.6075683794916,"[78, 0, 176]",176,l,0.6553592189447954,colour,0.5
110,18,0,1,9,25,425,680.1164712664904,680.8555680360878,"[75, 0, 179]",179,l,0.21568105416372418,colour,0.5
110,18,0,1,9,26,426,681.366507106577,681.9435882671969,"[2, 0, 252]",252,a,0.05375406064558774,colour,0.5
110,18,0,1,9,27,427,682.4602971803397,683.0955576542765,"[46, 0, 208]",208,l,0.11198142310604453,colour,0.5
110,18,0,1,9,28,428,683.6189174435567,684.5196017114213,"[45, 0, 209]",209,l,0.37740561086684465,colour,0.5
110,18,0,1,9,29,429,685.0407847142778,685.7516238266835,"[61, 0, 193]",193,l,0.1875017723068595,colour,0.5
110,18,0,1,9,30,430,686.2594507266767,686.9595835314831,"[64, 0, 190]",190,l,0.17684902774635702,colour,0.5
110,18,0,1,9,31,431,687.4781376129249,688.255583947408,"[98, 0, 156]",156,l,0.25406133907381445,colour,0.5
110,18,0,1,9,32,432,688.7750379666686,689.8796001203591,"[72, 0, 182]",182,l,0.5811826720600948,colour,0.5
110,18,0,1,9,33,433,690.4000745944213,691.167662177817,"[34, 0, 220]",220,a,0.24426639103330672,colour,0.5
110,18,0,1,9,34,434,691.6813302066876,692.2875977131771,"[13, 0, 241]",241,a,0.0828872371930629,colour,0.5
110,18,0,1,9,35,435,692.8063286313554,693.583548898343,"[23, 0, 231]",231,a,0.2539101022994146,colour,0.5
110,18,0,1,9,36,436,694.1031805421226,694.75168014667,"[87, 0, 167]",167,l,0.12504253536462784,colour,0.5
110,18,0,1,9,37,437,695.2594460005639,695.9915457033785,"[0, 0, 254]",254,a,0.2087871751282364,colour,0.5
110,18,0,1,9,38,438,696.5094176436542,697.1916044652462,"[27, 0, 227]",227,a,0.15886759851127863,colour,0.5
110,18,0,1,9,39,439,697.7124731790973,698.4316082618898,"[32, 0, 222]",222,l,0.19585327501408756,colour,0.5
110,18,0,1,9,40,440,698.9469379266957,699.5035899055656,"[79, 0, 175]",175,l,0.0334150695707649,colour,0.5
110,18,0,1,9,41,441,700.0250273328274,700.6956142105628,"[47, 0, 207]",207,l,0.14712980843614787,colour,0.5
110,18,0,1,9,42,442,701.2125251666876,701.8715841743397,"[7, 0, 247]",247,a,0.13615371647756547,colour,0.5
110,18,0,1,9,43,443,702.3845629728166,703.1916840220802,"[21, 0, 233]",233,a,0.28365689085330814,colour,0.5
110,18,0,1,9,44,444,703.7040436947718,705.0635836670408,"[86, 0, 168]",168,l,0.8361821521539241,colour,0.5
110,18,0,1,9,45,445,705.5791535777971,706.3755502026761,"[19, 0, 235]",235,a,0.27327274926938117,colour,0.5
110,18,0,1,9,46,446,706.8916104517411,707.5835607136833,"[54, 0, 200]",200,l,0.16857471887487918,colour,0.5
110,18,0,1,9,47,447,708.0823642098112,708.8156253643101,"[10, 0, 244]",244,a,0.20989545760676265,colour,0.5
110,18,0,1,9,48,448,709.3330380801344,710.0715338407317,"[41, 0, 213]",213,l,0.21583780471701175,colour,0.5
110,18,0,1,9,49,449,710.5822960744845,711.8395826178603,"[82, 0, 172]",172,l,0.731664109393023,colour,0.5
110,18,0,1,9,50,450,712.3501432023477,713.0395704873372,"[59, 0, 195]",195,l,0.16604740952607244,colour,0.5
110,18,0,1,10,1,451,717.6848472508136,718.7435531361261,"[6, 0, 248]",248,a,0.5412927756551653,colour,0.5
110,18,0,1,10,2,452,719.2572349495022,720.0395515827695,"[57, 0, 197]",197,l,0.2589174594031647,colour,0.5
110,18,0,1,10,3,453,720.5416562953033,721.3676409889013,"[41, 0, 213]",213,l,0.3027355750091374,colour,0.5
110,18,0,1,10,4,454,721.8853660245659,722.6555506280856,"[96, 0, 158]",158,l,0.2467905496014282,colour,0.5
110,18,0,1,10,5,455,723.16655586462,723.9435677871807,"[15, 0, 239]",239,a,0.2535450072027743,colour,0.5
110,18,0,1,10,6,456,724.4635263230884,725.239606799907,"[26, 0, 228]",228,a,0.25282111833803356,colour,0.5
110,18,0,1,10,7,457,725.7604018645361,726.4636421137257,"[75, 0, 179]",179,l,0.17993677977938205,colour,0.5
110,18,0,1,10,8,458,726.9791383753764,727.7355753930751,"[81, 0, 173]",173,l,0.23330723447725177,colour,0.5
110,18,0,1,10,9,459,728.2448134430451,728.9596114945598,"[62, 0, 192]",192,l,0.19149261293932796,colour,0.5
110,18,0,1,10,10,460,729.479141132324,730.215579441865,"[61, 0, 193]",193,l,0.2111738814273849,colour,0.5
110,18,0,1,10,11,461,730.7309536112007,731.5435199742205,"[35, 0, 219]",219,a,0.2898497241549194,colour,0.5
110,18,0,1,10,12,462,732.0615510281641,732.8795867295703,"[32, 0, 222]",222,a,0.29460895829834044,colour,0.5
110,18,0,1,10,13,463,733.3896550067002,734.1835192022845,"[86, 0, 168]",168,l,0.2705008616903797,colour,0.5
110,18,0,1,10,14,464,734.7022379112896,735.5275637005689,"[21, 0, 233]",233,a,0.30194355081766844,colour,0.5
110,18,0,1,10,15,465,736.0461043912219,736.8795835787896,"[79, 0, 175]",175,l,0.31058177340310067,colour,0.5
110,18,0,1,10,16,466,737.3897113266867,738.3275813448709,"[50, 0, 204]",204,l,0.4144672997063026,colour,0.5
110,18,0,1,10,17,467,738.8428409050684,739.6875990522094,"[87, 0, 167]",167,l,0.3214176562614739,colour,0.5
110,18,0,1,10,18,468,740.2022217635531,740.9915358573198,"[94, 0, 160]",160,l,0.26590389222837985,colour,0.5
110,18,0,1,10,19,469,741.5011984731536,742.3355965032242,"[4, 0, 250]",250,a,0.3089953620219603,colour,0.5
110,18,0,1,10,20,470,742.8356784231728,743.6315847099759,"[71, 0, 183]",183,l,0.2725685528712347,colour,0.5
110,18,0,1,10,21,471,744.1480553463334,744.879556403379,"[46, 0, 208]",208,l,0.20805186475627124,colour,0.5
110,18,0,1,10,22,472,745.3981140294345,746.0075070970925,"[33, 0, 221]",221,a,0.0860021646367386,colour,0.5
110,18,0,1,10,23,473,746.5231912231538,747.3115147943608,"[99, 0, 155]",155,l,0.26495826803147793,colour,0.5
110,18,0,1,10,24,474,747.8200171401259,748.6315402053297,"[3, 0, 251]",251,a,0.2881447651889175,colour,0.5
110,18,0,1,10,25,475,749.1481179678813,749.8475170377642,"[65, 0, 189]",189,l,0.17599635140504688,colour,0.5
110,18,0,1,10,26,476,750.3669159185374,751.1675692301942,"[43, 0, 211]",211,l,0.27731045766267926,colour,0.5
110,18,0,1,10,27,477,751.6792790570762,752.4955853810534,"[49, 0, 205]",205,l,0.2931233714334667,colour,0.5
110,18,0,1,10,28,478,753.0074054847937,753.8075026860461,"[16, 0, 238]",238,a,0.2766657320316881,colour,0.5
110,18,0,1,10,29,479,754.3199375832919,755.079548211419,"[59, 0, 195]",195,l,0.23618979274760932,colour,0.5
110,18,0,1,10,30,480,755.6012172201881,756.4715399059933,"[91, 0, 163]",163,l,0.34688727813772857,colour,0.5
110,18,0,1,10,31,481,756.9918147001881,758.047512390418,"[42, 0, 212]",212,l,0.5304935205494985,colour,0.5
110,18,0,1,10,32,482,758.5561368283816,759.2315940046683,"[98, 0, 156]",156,l,0.15203122096136212,colour,0.5
110,18,0,1,10,33,483,759.7436988591217,760.4874942104798,"[0, 0, 254]",254,a,0.2211499986005947,colour,0.5
110,18,0,1,10,34,484,760.9941628095694,761.7516238266835,"[85, 0, 169]",169,l,0.2323241950944066,colour,0.5
110,18,0,1,10,35,485,762.2616507500643,763.0395342535339,"[68, 0, 186]",186,l,0.25462729576975107,colour,0.5
110,18,0,1,10,36,486,763.5585172331193,764.3435773969395,"[83, 0, 171]",171,l,0.26174881763290614,colour,0.5
110,18,0,1,10,37,487,764.8553210946266,765.6875297353836,"[47, 0, 207]",207,l,0.308832703740336,colour,0.5
110,18,0,1,10,38,488,766.1990064054262,767.3516315460438,"[44, 0, 210]",210,a,0.6291444406379014,colour,0.5
110,18,0,1,10,39,489,767.8709961622953,768.6715167479124,"[28, 0, 226]",226,a,0.2772537439595908,colour,0.5
110,18,0,1,10,40,490,769.1834585500183,770.079563571373,"[74, 0, 180]",180,l,0.372802339727059,colour,0.5
110,18,0,1,10,41,491,770.5897023469443,771.351578376838,"[29, 0, 225]",225,a,0.23850442515686154,colour,0.5
110,18,0,1,10,42,492,771.8709386608098,772.5915774473688,"[89, 0, 165]",165,l,0.19725969876162708,colour,0.5
110,18,0,1,10,43,493,773.1052994331112,773.8795508896001,"[30, 0, 224]",224,a,0.25083967950195074,colour,0.5
110,18,0,1,10,44,494,774.3865451993188,775.0715775577119,"[23, 0, 231]",231,a,0.16175645834300667,colour,0.5
110,18,0,1,10,45,495,775.5897251900751,776.3675236228155,"[24, 0, 230]",230,a,0.2542755913455039,colour,0.5
110,18,0,1,10,46,496,776.8865782823414,777.4395308664534,"[8, 0, 246]",246,a,0.029544745571911335,colour,0.5
110,18,0,1,10,47,497,777.949078085483,779.0475316888187,"[27, 0, 227]",227,a,0.5750532479723915,colour,0.5
110,18,0,1,10,48,498,779.558406168595,780.3435557354242,"[72, 0, 182]",182,l,0.2616980115417391,colour,0.5
110,18,0,1,10,49,499,780.8576629025629,781.6475224727765,"[88, 0, 166]",166,l,0.26647024252451956,colour,0.5
110,18,0,1,10,50,500,782.1572256548097,782.7355304947123,"[95, 0, 159]",159,l,0.05484186299145222,colour,0.5
110,18,0,1,11,1,501,804.0314040922094,806.6315185438143,"[17, 0, 237]",237,a,2.0759701213100925,colour,0.5
110,18,0,1,11,2,502,807.1416841008468,808.1275091923308,"[40, 0, 214]",214,a,0.46256770216859877,colour,0.5
110,18,0,1,11,3,503,808.6415588578675,809.5515753049403,"[13, 0, 241]",241,a,0.3867232177872211,colour,0.5
110,18,0,1,11,4,504,810.063391864067,810.8715191896772,"[80, 0, 174]",174,l,0.2849727300927043,colour,0.5
110,18,0,1,11,5,505,811.3915596455336,812.2155176079832,"[3, 0, 251]",251,a,0.3008967083878815,colour,0.5
110,18,0,1,11,6,506,812.7353339655092,813.5355556220748,"[50, 0, 204]",204,l,0.27685241494327784,colour,0.5
110,18,0,1,11,7,507,814.0357387603726,814.903561312356,"[97, 0, 157]",157,l,0.34454271337017417,colour,0.5
110,18,0,1,11,8,508,815.4106540834764,816.2235347356182,"[81, 0, 173]",173,l,0.28950707823969424,colour,0.5
110,18,0,1,11,9,509,816.7263621555176,817.5274916267954,"[21, 0, 233]",233,a,0.2778007958550006,colour,0.5
110,18,0,1,11,10,510,818.0264443905326,818.831494597951,"[56, 0, 198]",198,l,0.2817392550641671,colour,0.5
110,18,0,1,11,11,511,819.3389536458999,820.1914823730476,"[7, 0, 247]",247,a,0.3292465255362913,colour,0.5
110,18,0,1,11,12,512,820.6983392304974,821.5516068125144,"[6, 0, 248]",248,a,0.32986171275842935,colour,0.5
110,18,0,1,11,13,513,822.0578287903918,822.9915055311285,"[91, 0, 163]",163,l,0.41043825598899275,colour,0.5
110,18,0,1,11,14,514,823.5110001165885,824.2955022007227,"[71, 0, 183]",183,l,0.2616137284785509,colour,0.5
110,18,0,1,11,15,515,824.8078256396111,825.7594814467011,"[77, 0, 177]",177,l,0.42842204845510423,colour,0.5
110,18,0,1,11,16,516,826.2765723904595,826.9594886146951,"[31, 0, 223]",223,l,0.15955919190309942,colour,0.5
110,18,0,1,11,17,517,827.4797441103728,828.1434993367875,"[23, 0, 231]",231,a,0.14051083393860608,colour,0.5
110,18,0,1,11,18,518,828.6515723904595,829.1995270698098,"[55, 0, 199]",199,l,0.024654754670336843,colour,0.5
110,18,0,1,11,19,519,829.713988304371,830.3034866391681,"[14, 0, 240]",240,a,0.06630868697538972,colour,0.5
110,18,0,1,11,20,520,830.8233041781932,831.447483797092,"[1, 0, 253]",253,a,0.10078832192812115,colour,0.5
110,18,0,1,11,21,521,831.9649264452746,832.5354500713293,"[87, 0, 167]",167,l,0.04707325214985758,colour,0.5
110,18,0,1,11,22,522,833.043082411401,833.7835107740248,"[26, 0, 228]",228,l,0.21706621022894979,colour,0.5
110,18,0,1,11,23,523,834.2930379068712,835.0395744257839,"[39, 0, 215]",215,a,0.22319957276340574,colour,0.5
110,18,0,1,11,24,524,835.5587200637674,836.2155317864381,"[92, 0, 162]",162,l,0.13356851181015372,colour,0.5
110,18,0,1,11,25,525,836.730529833003,837.4954569872934,"[49, 0, 205]",205,l,0.2416280172765255,colour,0.5
110,18,0,1,11,26,526,838.0118047437863,838.8395018794108,"[44, 0, 210]",210,l,0.3045996477594599,colour,0.5
110,18,0,1,11,27,527,839.3555609468604,840.0154962615343,"[85, 0, 169]",169,l,0.136592460796237,colour,0.5
110,18,0,1,11,28,528,840.5274585437728,841.3354850448668,"[28, 0, 226]",226,l,0.2971484768204391,colour,0.5
110,18,0,1,11,29,529,841.8430480681127,842.6474815128604,"[63, 0, 191]",191,l,0.28102166787721217,colour,0.5
110,18,0,1,11,30,530,843.157237863983,843.983512822073,"[25, 0, 229]",229,a,0.3032712055137381,colour,0.5
110,18,0,1,11,31,531,844.5009948547231,845.4714725583326,"[69, 0, 185]",185,l,0.4597209837520495,colour,0.5
110,18,0,1,11,32,532,845.9886202159105,846.8154804289807,"[30, 0, 224]",224,a,0.30348467000294477,colour,0.5
110,18,0,1,11,33,533,847.3330916431732,848.1675070025958,"[9, 0, 245]",245,a,0.3110780193237588,colour,0.5
110,18,0,1,11,34,534,848.6768340616254,849.4634885138366,"[93, 0, 161]",161,l,0.2632718198001385,colour,0.5
110,18,0,1,11,35,535,849.973741504713,850.9034707277315,"[67, 0, 187]",187,l,0.4064430829603225,colour,0.5
110,18,0,1,11,36,536,851.4131353128469,852.2154876757413,"[27, 0, 227]",227,a,0.27900714590214193,colour,0.5
110,18,0,1,11,37,537,852.7257028573658,853.6394651730079,"[16, 0, 238]",238,a,0.39039661863353103,colour,0.5
110,18,0,1,11,38,538,854.1492116779555,854.9354415643029,"[74, 0, 180]",180,l,0.261028079665266,colour,0.5
110,18,0,1,11,39,539,855.4478252615081,856.3515322968597,"[52, 0, 202]",202,l,0.38035906141158193,colour,0.5
110,18,0,1,11,40,540,856.8696326677455,857.7194552795263,"[32, 0, 222]",222,a,0.32629268104210496,colour,0.5
110,18,0,1,11,41,541,858.229027704685,859.2794797610259,"[19, 0, 235]",235,a,0.5272068761987612,colour,0.5
110,18,0,1,11,42,542,859.7915113600902,860.4554737493163,"[57, 0, 197]",197,l,0.14065458765253425,colour,0.5
110,18,0,1,11,43,543,860.9633770554792,861.8314611210953,"[95, 0, 159]",159,l,0.34490111318882555,colour,0.5
110,18,0,1,11,44,544,862.3259791797027,863.135490086046,"[82, 0, 172]",172,l,0.28613378782756627,colour,0.5
110,18,0,1,11,45,545,863.6540268382523,864.4554784755455,"[72, 0, 182]",182,l,0.2843370628543198,colour,0.5
110,18,0,1,11,46,546,864.9759687033948,865.8874203249579,"[60, 0, 194]",194,l,0.3883462568046525,colour,0.5
110,18,0,1,11,47,547,866.3979092295049,867.0474718242185,"[62, 0, 192]",192,l,0.12617011624388397,colour,0.5
110,18,0,1,11,48,548,867.5416432984639,868.3034933345625,"[65, 0, 189]",189,l,0.23851624072995037,colour,0.5
110,18,0,1,11,49,549,868.8229000922292,869.5914947397541,"[48, 0, 206]",206,l,0.24525967054069042,colour,0.5
110,18,0,1,11,50,550,870.1041289230343,870.9114898245316,"[2, 0, 252]",252,a,0.28404482908081263,colour,0.5
110,18,0,1,12,1,551,876.8845263450639,877.6394545391668,"[25, 0, 229]",229,a,0.23106310050934553,colour,0.5
110,18,0,1,12,2,552,878.1514010675019,878.9115465383511,"[50, 0, 204]",204,l,0.2345521814422682,colour,0.5
110,18,0,1,12,3,553,879.419311210746,880.1754359086044,"[69, 0, 185]",185,l,0.2326967732515186,colour,0.5
110,18,0,1,12,4,554,880.684950044495,881.4155113853049,"[39, 0, 215]",215,a,0.2147263716906309,colour,0.5
110,18,0,1,12,5,555,881.9276091504144,882.6954901490826,"[77, 0, 177]",177,l,0.2445515354629606,colour,0.5
110,18,0,1,12,6,556,883.2089096611599,884.1915950129041,"[82, 0, 172]",172,l,0.45974697754718363,colour,0.5
110,18,0,1,12,7,557,884.7088675196283,886.0074098170735,"[36, 0, 218]",218,a,0.7751592712011188,colour,0.5
110,18,0,1,12,8,558,886.5213362089125,887.5114321655128,"[74, 0, 180]",180,l,0.46679642575327307,colour,0.5
110,18,0,1,12,9,559,888.0213724427158,888.791442830814,"[44, 0, 210]",210,a,0.24677085725124925,colour,0.5
110,18,0,1,12,10,560,889.3026449903846,889.9354955211747,"[95, 0, 159]",159,l,0.10964749217964709,colour,0.5
110,18,0,1,12,11,561,890.4416568467859,891.1834498854587,"[35, 0, 219]",219,a,0.21803231432568282,colour,0.5
110,18,0,1,12,12,562,891.6828295780579,892.3514346231241,"[57, 0, 197]",197,l,0.14523659111000597,colour,0.5
110,18,0,1,12,13,563,892.8710603591753,893.6074305333896,"[8, 0, 246]",246,a,0.2132203048095107,colour,0.5
110,18,0,1,12,14,564,894.1209843469551,894.8634658283554,"[48, 0, 206]",206,l,0.21882000612094998,colour,0.5
110,18,0,1,12,15,565,895.3712084452854,896.1674987317529,"[60, 0, 194]",194,l,0.2729529463686049,colour,0.5
110,18,0,1,12,16,566,896.683753934456,897.5354776405729,"[91, 0, 163]",163,l,0.32834619376808405,colour,0.5
110,18,0,1,12,17,567,898.046228452702,898.7915019077482,"[2, 0, 252]",252,a,0.2219306011684239,colour,0.5
110,18,0,1,12,18,568,899.3013449050486,900.0394625735935,"[97, 0, 157]",157,l,0.2146621746942401,colour,0.5
110,18,0,1,12,19,569,900.5513330895919,901.3274458618835,"[12, 0, 242]",242,a,0.25096807326190174,colour,0.5
110,18,0,1,12,20,570,901.8344870392466,902.5194591392064,"[34, 0, 220]",220,l,0.16174424905329943,colour,0.5
110,18,0,1,12,21,571,903.0375914116157,903.7914542524377,"[33, 0, 221]",221,l,0.23072321142535657,colour,0.5
110,18,0,1,12,22,572,904.3030703440309,904.9834509881912,"[6, 0, 248]",248,a,0.1568834027275443,colour,0.5
110,18,0,1,12,23,573,905.4907245347276,906.1114619402215,"[37, 0, 217]",217,l,0.09745126543566585,colour,0.5
110,18,0,1,12,24,574,906.6313082301058,907.223483929527,"[75, 0, 179]",179,l,0.06877061782870442,colour,0.5
110,18,0,1,12,25,575,907.7406792424154,908.4474412618438,"[43, 0, 211]",211,l,0.18350108549930155,colour,0.5
110,18,0,1,12,26,576,908.9594508054433,909.7754991602851,"[84, 0, 170]",170,l,0.2927385839866474,colour,0.5
110,18,0,1,12,27,577,910.2781820386881,911.3594545075903,"[73, 0, 181]",181,l,0.5578981073340401,colour,0.5
110,18,0,1,12,28,578,911.8719784140121,912.6794484108686,"[71, 0, 183]",183,l,0.28414053365122527,colour,0.5
110,18,0,1,12,29,579,913.2000441894634,914.0154738123529,"[29, 0, 225]",225,a,0.2989518971880898,colour,0.5
110,18,0,1,12,30,580,914.5368509812979,915.3834369672695,"[9, 0, 245]",245,a,0.32324510137550533,colour,0.5
110,18,0,1,12,31,581,915.8837748870719,916.8394380763639,"[93, 0, 161]",161,l,0.4400416846619919,colour,0.5
110,18,0,1,12,32,582,917.3609629374696,918.1194727662951,"[31, 0, 223]",223,l,0.2351401933701709,colour,0.5
110,18,0,1,12,33,583,918.6266797528369,919.4314125204692,"[41, 0, 213]",213,l,0.2814891629386693,colour,0.5
110,18,0,1,12,34,584,919.9411684777588,920.711425942718,"[38, 0, 216]",216,l,0.24700913403648883,colour,0.5
110,18,0,1,12,35,585,921.2223185393959,922.1754512686748,"[98, 0, 156]",156,l,0.44250125251710415,colour,0.5
110,18,0,1,12,36,586,922.6942940390436,923.6554639820242,"[24, 0, 230]",230,a,0.4378530828980729,colour,0.5
110,18,0,1,12,37,587,924.1630652082385,925.1674491071608,"[83, 0, 171]",171,l,0.48113793111406267,colour,0.5
110,18,0,1,12,38,588,925.6786311805481,926.6154835009947,"[59, 0, 195]",195,l,0.41365518944803625,colour,0.5
110,18,0,1,12,39,589,927.1317902974552,927.9674257915467,"[92, 0, 162]",162,l,0.312311150948517,colour,0.5
110,18,0,1,12,40,590,928.4754763960373,929.2794179272605,"[89, 0, 165]",165,l,0.28061718808021396,colour,0.5
110,18,0,1,12,41,591,929.7880175529281,930.6554249912733,"[27, 0, 227]",227,a,0.3441027875524014,colour,0.5
110,18,0,1,12,42,592,931.1630096759181,931.8314433980267,"[72, 0, 182]",182,l,0.14532087417319417,colour,0.5
110,18,0,1,12,43,593,932.3504496144596,933.1514156397898,"[61, 0, 193]",193,l,0.2775971775408834,colour,0.5
110,18,0,1,12,44,594,933.6710772158112,934.3274600403383,"[22, 0, 232]",232,a,0.13303288142196834,colour,0.5
110,18,0,1,12,45,595,934.8449727931293,935.5514524249593,"[23, 0, 231]",231,a,0.18315843946766108,colour,0.5
110,18,0,1,12,46,596,936.0637061530724,936.7914581908844,"[96, 0, 158]",158,l,0.20463958370964974,colour,0.5
110,18,0,1,12,47,597,937.2980921315029,938.0634202209767,"[86, 0, 168]",168,l,0.24202777084428817,colour,0.5
110,18,0,1,12,48,598,938.5793430176564,939.4154629422119,"[46, 0, 208]",208,l,0.3129873842699453,colour,0.5
110,18,0,1,12,49,599,939.9230499900877,940.7674339835066,"[1, 0, 253]",253,a,0.32102302263956517,colour,0.5
110,18,0,1,12,50,600,941.2825261591934,942.0794328146148,"[94, 0, 160]",160,l,0.2736461153253913,colour,0.5
110,18,0,1,13,1,601,967.425486714812,968.0473847843241,"[64, 0, 190]",190,l,0.09773562231566757,colour,0.5
110,18,0,1,13,2,602,968.5672042926308,969.2233996464638,"[52, 0, 202]",202,l,0.13296671526040882,colour,0.5
110,18,0,1,13,3,603,969.7337396772346,970.3354401463876,"[3, 0, 251]",251,a,0.07835958444047719,colour,0.5
110,18,0,1,13,4,604,970.8430488557788,971.5354004467372,"[85, 0, 169]",169,l,0.16882284183520824,colour,0.5
110,18,0,1,13,5,605,972.0462371172616,972.631432685419,"[73, 0, 181]",181,l,0.06232572323642671,colour,0.5
110,18,0,1,13,6,606,973.1275351861259,973.7434192284709,"[91, 0, 163]",163,l,0.09061567566823214,colour,0.5
110,18,0,1,13,7,607,974.2545820034575,974.9914696911583,"[25, 0, 229]",229,a,0.21354365232400596,colour,0.5
110,18,0,1,13,8,608,975.5072298295563,976.1034030650044,"[6, 0, 248]",248,a,0.07282014156226069,colour,0.5
110,18,0,1,13,9,609,976.6166847309796,977.1434666474815,"[67, 0, 187]",187,l,0.0034953824942931533,colour,0.5
110,18,0,1,13,10,610,977.6634909557179,978.3034315006807,"[11, 0, 243]",243,a,0.11671742028556764,colour,0.5
110,18,0,1,13,11,611,978.8212825671071,979.9833958498202,"[36, 0, 218]",218,a,0.6504046373302117,colour,0.5
110,18,0,1,13,12,612,980.4971930601168,981.2473509922856,"[41, 0, 213]",213,l,0.2270868319319561,colour,0.5
110,18,0,1,13,13,613,981.7627799062757,982.4793912244495,"[24, 0, 230]",230,a,0.19348901801276952,colour,0.5
110,18,0,1,13,14,614,982.9970461555058,983.5753864415456,"[56, 0, 198]",198,l,0.054950170568190515,colour,0.5
110,18,0,1,13,15,615,984.0815304379212,984.6634102172684,"[68, 0, 186]",186,l,0.05842507316265255,colour,0.5
110,18,0,1,13,16,616,985.1753059395123,985.7433991422877,"[83, 0, 171]",171,l,0.044781462755054235,colour,0.5
110,18,0,1,13,17,617,986.2534323671134,986.9594334762078,"[12, 0, 242]",242,a,0.18265392282046378,colour,0.5
110,18,0,1,13,18,618,987.4721917209681,988.0233806631295,"[40, 0, 214]",214,a,0.04026444396004081,colour,0.5
110,18,0,1,13,19,619,988.5254704095423,989.2473738354165,"[17, 0, 237]",237,a,0.1985704181715846,colour,0.5
110,18,0,1,13,20,620,989.7598729295423,990.4313754989998,"[43, 0, 211]",211,a,0.14820894633885473,colour,0.5
110,18,0,1,13,21,621,990.9493675621925,991.5034154318273,"[90, 0, 164]",164,l,0.03074636950623244,colour,0.5
110,18,0,1,13,22,622,992.0119914266979,992.6874407262076,"[99, 0, 155]",155,l,0.15211038407869637,colour,0.5
110,18,0,1,13,23,623,993.1995184051339,993.9273897781968,"[13, 0, 241]",241,a,0.2046080760192126,colour,0.5
110,18,0,1,13,24,624,994.433931952808,995.015419461648,"[29, 0, 225]",225,l,0.05817852565087378,colour,0.5
110,18,0,1,13,25,625,995.5295348993968,996.2074394343654,"[75, 0, 179]",179,l,0.15477672091219574,colour,0.5
110,18,0,1,13,26,626,996.7169874410611,997.3673747490393,"[63, 0, 191]",191,l,0.12703342642635107,colour,0.5
110,18,0,1,13,27,627,997.8889433271252,998.647395260632,"[22, 0, 232]",232,a,0.2352154180407524,colour,0.5
110,18,0,1,13,28,628,999.1544742471306,999.7433853576658,"[1, 0, 253]",253,a,0.0655591981485486,colour,0.5
110,18,0,1,13,29,629,1000.2637987856288,1000.9193777706241,"[97, 0, 157]",157,l,0.1322593679651618,colour,0.5
110,18,0,1,13,30,630,1001.4358204440214,1002.1674116918584,"[48, 0, 206]",206,l,0.2084275938104838,colour,0.5
110,18,0,1,13,31,631,1002.6837909560418,1003.6473590267124,"[51, 0, 203]",203,l,0.4401885891566053,colour,0.5
110,18,0,1,13,32,632,1004.1681210083188,1004.8396054608747,"[81, 0, 173]",173,l,0.1482526632025838,colour,0.5
110,18,0,1,13,33,633,1005.3525129732443,1005.9674076746451,"[49, 0, 205]",205,l,0.09162746591027826,colour,0.5
110,18,0,1,13,34,634,1006.4774838286685,1007.1914473207435,"[37, 0, 217]",217,l,0.19201445893850178,colour,0.5
110,18,0,1,13,35,635,1007.7103507433785,1008.3673944413895,"[95, 0, 159]",159,l,0.1336047457298264,colour,0.5
110,18,0,1,13,36,636,1008.8822550356854,1009.5913541368209,"[84, 0, 170]",170,l,0.18578302871901542,colour,0.5
110,18,0,1,13,37,637,1010.1010033618659,1010.8714073374867,"[46, 0, 208]",208,l,0.2470142540987581,colour,0.5
110,18,0,1,13,38,638,1011.382288512541,1012.1433760629734,"[50, 0, 204]",204,l,0.237821496441029,colour,0.5
110,18,0,1,13,39,639,1012.664954880951,1013.4313593512634,"[14, 0, 240]",240,a,0.2430647670989856,colour,0.5
110,18,0,1,13,40,640,1013.9338649990968,1014.5353756344412,"[74, 0, 180]",180,l,0.07821976917330176,colour,0.5
110,18,0,1,13,41,641,1015.0432060790481,1015.8073746861191,"[92, 0, 162]",162,l,0.2407509224722162,colour,0.5
110,18,0,1,13,42,642,1016.3119653541362,1016.9993832372129,"[98, 0, 156]",156,l,0.16398720152210444,colour,0.5
110,18,0,1,13,43,643,1017.5151398309972,1018.3034141714452,"[70, 0, 184]",184,l,0.26487122813705355,colour,0.5
110,18,0,1,13,44,644,1018.8119645664701,1019.7673693927936,"[72, 0, 182]",182,l,0.4319843847770244,colour,0.5
110,18,0,1,13,45,645,1020.2807388864458,1021.0153639293276,"[20, 0, 234]",234,a,0.21127903822343796,colour,0.5
110,18,0,1,13,46,646,1021.5307940248167,1022.1753937670728,"[18, 0, 236]",236,a,0.12140733748674393,colour,0.5
110,18,0,1,13,47,647,1022.6745308507234,1023.3833834042307,"[78, 0, 176]",176,l,0.18552387808449566,colour,0.5
110,18,0,1,13,48,648,1023.8838788623689,1024.59939843975,"[0, 0, 254]",254,a,0.19226100645028055,colour,0.5
110,18,0,1,13,49,649,1025.1186638068175,1025.8233947628178,"[26, 0, 228]",228,a,0.18145190516952425,colour,0.5
110,18,0,1,13,50,650,1026.3376508036163,1026.903414407745,"[5, 0, 249]",249,a,0.04008485015947372,colour,0.5
110,18,0,1,14,1,651,1031.5188742780592,1032.2474140076665,"[48, 0, 206]",206,l,0.2043052085209638,colour,0.5
110,18,0,1,14,2,652,1032.7540790621424,1033.3513869678136,"[16, 0, 238]",238,a,0.07395599328447133,colour,0.5
110,18,0,1,14,3,653,1033.863458739128,1034.4553276324878,"[56, 0, 198]",198,l,0.06862647016532719,colour,0.5
110,18,0,1,14,4,654,1034.9729203359457,1035.919328146032,"[85, 0, 169]",169,l,0.42308267927728593,colour,0.5
110,18,0,1,14,5,655,1036.4260046221316,1037.055384582607,"[31, 0, 223]",223,a,0.10614935262128711,colour,0.5
110,18,0,1,14,6,656,1037.566593043739,1038.1434044198832,"[1, 0, 253]",253,a,0.05358431302011013,colour,0.5
110,18,0,1,14,7,657,1038.660250785295,1039.2793690903345,"[3, 0, 251]",251,a,0.09571322344709188,colour,0.5
110,18,0,1,14,8,658,1039.8008600806352,1040.4393760850653,"[69, 0, 185]",185,l,0.11503097205422819,colour,0.5
110,18,0,1,14,9,659,1040.9572661421262,1041.5993685073918,"[81, 0, 173]",173,l,0.11887057591229677,colour,0.5
110,18,0,1,14,10,660,1042.1134217175422,1042.7673965682043,"[4, 0, 250]",250,a,0.13080213812645525,colour,0.5
110,18,0,1,14,11,661,1043.2853685452137,1043.8393644271418,"[60, 0, 194]",194,l,0.03096456010825932,colour,0.5
110,18,0,1,14,12,662,1044.3478143913671,1045.0393503274536,"[27, 0, 227]",227,a,0.16821198677644134,colour,0.5
110,18,0,1,14,13,663,1045.5509703574935,1046.2314478878397,"[15, 0, 239]",239,a,0.15717721171677113,colour,0.5
110,18,0,1,14,14,664,1046.7385024559917,1047.5033516287804,"[23, 0, 231]",231,a,0.24154018959961832,colour,0.5
110,18,0,1,14,15,665,1048.0196741791442,1048.5993763842853,"[92, 0, 162]",162,l,0.05640858202241361,colour,0.5
110,18,0,1,14,16,666,1049.113435108331,1049.8073928030208,"[25, 0, 229]",229,l,0.17072236072272062,colour,0.5
110,18,0,1,14,17,667,1050.3166367606027,1050.9273815074703,"[29, 0, 225]",225,l,0.08753658831119537,colour,0.5
110,18,0,1,14,18,668,1051.4339788204525,1052.367347967578,"[73, 0, 181]",181,l,0.40992192400153726,colour,0.5
110,18,0,1,14,19,669,1052.887075315928,1053.487368573551,"[14, 0, 240]",240,a,0.0774277449818328,colour,0.5
110,18,0,1,14,20,670,1053.9859239467187,1054.5833275568439,"[2, 0, 252]",252,a,0.0740513039054349,colour,0.5
110,18,0,1,14,21,671,1055.0952941713622,1055.703431658214,"[34, 0, 220]",220,l,0.08483283605892211,colour,0.5
110,18,0,1,14,22,672,1056.2202417898225,1056.8953582894756,"[93, 0, 161]",161,l,0.15187959023751318,colour,0.5
110,18,0,1,14,23,673,1057.4077825528802,1058.0793717685156,"[86, 0, 168]",168,l,0.1481691679218784,colour,0.5
110,18,0,1,14,24,674,1058.5955241774209,1059.2553889936535,"[53, 0, 201]",201,l,0.13675905764102936,colour,0.5
110,18,0,1,14,25,675,1059.7671196945012,1060.7593380867038,"[59, 0, 195]",195,l,0.46883379062637687,colour,0.5
110,18,0,1,14,26,676,1061.2671137867728,1061.8873545526294,"[19, 0, 235]",235,a,0.09688058274332434,colour,0.5
110,18,0,1,14,27,677,1062.4087025769986,1063.4233449806925,"[87, 0, 167]",167,l,0.49125307600479573,colour,0.5
110,18,0,1,14,28,678,1063.9400373522658,1064.6313712454867,"[6, 0, 248]",248,a,0.16799379617441446,colour,0.5
110,18,0,1,14,29,679,1065.1430605923524,1065.855377414613,"[66, 0, 188]",188,l,0.1891913713188842,colour,0.5
110,18,0,1,14,30,680,1066.3615391340572,1067.1433469183976,"[37, 0, 217]",217,l,0.258774493355304,colour,0.5
110,18,0,1,14,31,681,1067.6583752910374,1068.2714007996256,"[21, 0, 233]",233,a,0.08964051317889243,colour,0.5
110,18,0,1,14,32,682,1068.7834548478713,1069.4793695629342,"[94, 0, 160]",160,l,0.17256004572845995,colour,0.5
110,18,0,1,14,33,683,1070.0068143220851,1070.7913447632454,"[10, 0, 244]",244,a,0.26608584891073406,colour,0.5
110,18,0,1,14,34,684,1071.299006247893,1072.0553711918183,"[70, 0, 184]",184,l,0.23290984390769154,colour,0.5
110,18,0,1,14,35,685,1072.5685788148548,1073.343341483269,"[91, 0, 163]",163,l,0.25145368522498757,colour,0.5
110,18,0,1,14,36,686,1073.849808433326,1074.6873682584846,"[67, 0, 187]",187,l,0.32497999258339405,colour,0.5
110,18,0,1,14,37,687,1075.1983923997032,1075.791376664769,"[35, 0, 219]",219,l,0.06956185435410589,colour,0.5
110,18,0,1,14,38,688,1076.3077953135362,1077.0793367162114,"[88, 0, 166]",166,l,0.24808630265761167,colour,0.5
110,18,0,1,14,39,689,1077.5890619534766,1078.1993069099262,"[50, 0, 204]",204,l,0.0869718132307753,colour,0.5
110,18,0,1,14,40,690,1078.7016313885106,1079.4793545968132,"[43, 0, 211]",211,l,0.2543295482173562,colour,0.5
110,18,0,1,14,41,691,1079.9985916069709,1080.6873150892789,"[71, 0, 183]",183,l,0.1654141052858904,colour,0.5
110,18,0,1,14,42,692,1081.2017621453851,1081.8073219107464,"[82, 0, 172]",172,l,0.08230158837977797,colour,0.5
110,18,0,1,14,43,693,1082.3267235484673,1083.215362432762,"[13, 0, 241]",241,l,0.3653283257735893,colour,0.5
110,18,0,1,14,44,694,1083.7329208715819,1084.3833739518886,"[95, 0, 159]",159,l,0.12714330945163965,colour,0.5
110,18,0,1,14,45,695,1084.9047267023707,1086.063402104075,"[28, 0, 226]",226,l,0.6352758340071887,colour,0.5
110,18,0,1,14,46,696,1086.5671830249485,1087.2793454595376,"[76, 0, 178]",178,l,0.18872466392349452,colour,0.5
110,18,0,1,14,47,697,1087.7754381141858,1088.4953679781174,"[33, 0, 221]",221,l,0.19653738546185195,colour,0.5
110,18,0,1,14,48,698,1089.009817791055,1089.7353737440426,"[30, 0, 224]",224,l,0.20214299450162798,colour,0.5
110,18,0,1,14,49,699,1090.247100112494,1091.023329856922,"[83, 0, 171]",171,l,0.25295975210610777,colour,0.5
110,18,0,1,14,50,700,1091.5439547802089,1092.1913587054005,"[80, 0, 174]",174,l,0.12407367443665862,colour,0.5
110,18,0,1,15,1,701,1098.4698451870354,1099.3992758748354,"[83, 0, 171]",171,l,0.4054624065756798,colour,0.5
110,18,0,1,15,2,702,1099.9081456788117,1100.6953404876404,"[46, 0, 208]",208,l,0.26383541338145733,colour,0.5
110,18,0,1,15,3,703,1101.2050129496492,1101.96733363159,"[72, 0, 182]",182,l,0.24857861013151705,colour,0.5
110,18,0,1,15,4,704,1102.4767107091611,1103.1833455162123,"[32, 0, 222]",222,a,0.18329667940270156,colour,0.5
110,18,0,1,15,5,705,1103.6974845848745,1104.4153885053238,"[56, 0, 198]",198,l,0.1946016326546669,colour,0.5
110,18,0,1,15,6,706,1104.9318827724783,1105.7113625336206,"[67, 0, 187]",187,l,0.25622867327183485,colour,0.5
110,18,0,1,15,7,707,1106.2171827885322,1106.8713852821384,"[29, 0, 225]",225,a,0.1309474672889337,colour,0.5
110,18,0,1,15,8,708,1107.3890985024627,1107.9913468111772,"[77, 0, 177]",177,l,0.07885267946403474,colour,0.5
110,18,0,1,15,9,709,1108.4995596802328,1109.0953461590689,"[8, 0, 246]",246,a,0.07243653573095798,colour,0.5
110,18,0,1,15,10,710,1109.6089043049142,1110.1753272071946,"[80, 0, 174]",174,l,0.04303278692532331,colour,0.5
110,18,0,1,15,11,711,1110.6745722044725,1111.6873422646895,"[79, 0, 175]",175,l,0.489424055442214,colour,0.5
110,18,0,1,15,12,712,1112.205783312209,1112.855328577687,"[25, 0, 229]",229,a,0.12645447289105505,colour,0.5
110,18,0,1,15,13,713,1113.3620570414932,1114.0633465717547,"[86, 0, 168]",168,l,0.1785098760155961,colour,0.5
110,18,0,1,15,14,714,1114.5808010352775,1115.1113622972043,"[73, 0, 181]",181,l,0.00722155871335417,colour,0.5
110,18,0,1,15,15,715,1115.6254316550912,1116.3593123292085,"[88, 0, 166]",166,l,0.21061265096068382,colour,0.5
110,18,0,1,15,16,716,1116.8753509166418,1117.527435700642,"[94, 0, 160]",160,l,0.1290195913752541,colour,0.5
110,18,0,1,15,17,717,1118.0345532841748,1118.7353390855715,"[26, 0, 228]",228,a,0.17743073822930455,colour,0.5
110,18,0,1,15,18,718,1119.2532232350204,1119.8633260129718,"[24, 0, 230]",230,a,0.08667564101051539,colour,0.5
110,18,0,1,15,19,719,1120.3783008226892,1121.0473918735515,"[14, 0, 240]",240,a,0.14650477503892034,colour,0.5
110,18,0,1,15,20,720,1121.5657340657199,1122.1593252473976,"[51, 0, 203]",203,l,0.07027117081452161,colour,0.5
110,18,0,1,15,21,721,1122.675121225766,1123.2873172948603,"[0, 0, 254]",254,a,0.08885833516251296,colour,0.5
110,18,0,1,15,22,722,1123.800137767219,1124.4553540202323,"[93, 0, 161]",161,l,0.12960957270115614,colour,0.5
110,18,0,1,15,23,723,1124.9742322367383,1125.5753112169914,"[74, 0, 180]",180,l,0.07804726460017264,colour,0.5
110,18,0,1,15,24,724,1126.08354850451,1126.86331577308,"[39, 0, 215]",215,l,0.25646340544335544,colour,0.5
110,18,0,1,15,25,725,1127.3812137070345,1128.0073007218307,"[63, 0, 191]",191,l,0.10404818470124155,colour,0.5
110,18,0,1,15,26,726,1128.5210723321652,1129.2153163527837,"[5, 0, 249]",249,a,0.1710516158491373,colour,0.5
110,18,0,1,15,27,727,1129.7241826121463,1130.271366928937,"[97, 0, 157]",157,l,0.023908022907562554,colour,0.5
110,18,0,1,15,28,728,1130.783867992228,1131.407311119372,"[81, 0, 173]",173,l,0.09994431026279926,colour,0.5
110,18,0,1,15,29,729,1131.9265115018934,1132.5753348477883,"[75, 0, 179]",179,l,0.1336957240710035,colour,0.5
110,18,0,1,15,30,730,1133.0901040697936,1133.6473350021988,"[47, 0, 207]",207,l,0.033860115450806916,colour,0.5
110,18,0,1,15,31,731,1134.1682009591023,1134.8472929394338,"[16, 0, 238]",238,a,0.15559040661901236,colour,0.5
110,18,0,1,15,32,732,1135.3557606267277,1135.9913286942756,"[21, 0, 233]",233,a,0.11209169984795153,colour,0.5
110,18,0,1,15,33,733,1136.5128125954652,1137.3033031069208,"[42, 0, 212]",212,a,0.26724611897952855,colour,0.5
110,18,0,1,15,34,734,1137.8097117678262,1138.8233597105136,"[59, 0, 195]",195,l,0.4902546765515581,colour,0.5
110,18,0,1,15,35,735,1139.3284990058746,1140.0713243148057,"[50, 0, 204]",204,l,0.2195529533782974,colour,0.5
110,18,0,1,15,36,736,1140.5659743117867,1141.359313510824,"[82, 0, 172]",172,l,0.2699120620964095,colour,0.5
110,18,0,1,15,37,737,1141.8784544225782,1142.5353634252679,"[22, 0, 232]",232,l,0.13352006883360445,colour,0.5
110,18,0,1,15,38,738,1143.0504114901414,1143.9674001915846,"[34, 0, 220]",220,a,0.39354659838136286,colour,0.5
110,18,0,1,15,39,739,1144.4879152317299,1145.3353724048939,"[48, 0, 206]",206,l,0.3241363746346906,colour,0.5
110,18,0,1,15,40,740,1145.8495748826535,1146.479269132251,"[19, 0, 235]",235,a,0.1063939310843125,colour,0.5
110,18,0,1,15,41,741,1146.9902255318593,1147.6313259531744,"[76, 0, 178]",178,l,0.11780561658088118,colour,0.5
110,18,0,1,15,42,742,1148.1463818950579,1148.903308857116,"[23, 0, 231]",231,a,0.2335789882345125,colour,0.5
110,18,0,1,15,43,743,1149.4120345134288,1150.327285172767,"[38, 0, 216]",216,l,0.3925355958053842,colour,0.5
110,18,0,1,15,44,744,1150.8339766149875,1151.415359754581,"[70, 0, 184]",184,l,0.05810802720952779,colour,0.5
110,18,0,1,15,45,745,1151.9276442027185,1152.5832716308068,"[49, 0, 205]",205,l,0.13231371878646314,colour,0.5
110,18,0,1,15,46,746,1153.099556765752,1153.7033016891219,"[62, 0, 192]",192,l,0.08044421090744436,colour,0.5
110,18,0,1,15,47,747,1154.22460717801,1155.1273162078578,"[33, 0, 221]",221,l,0.37945203436538577,colour,0.5
110,18,0,1,15,48,748,1155.647128233104,1156.2633076597704,"[37, 0, 217]",217,a,0.09300710808020085,colour,0.5
110,18,0,1,15,49,749,1156.7721573776798,1157.8873005957576,"[9, 0, 245]",245,a,0.591733016539365,colour,0.5
110,18,0,1,15,50,750,1158.3970577346627,1158.9354321119608,"[64, 0, 190]",190,l,0.015118563431315124,colour,0.5
110,18,0,1,16,1,751,1164.8071159293177,1165.4632856831886,"[65, 0, 189]",189,l,0.13196634664200246,colour,0.5
110,18,0,1,16,2,752,1165.979883137974,1167.0712928071152,"[23, 0, 231]",231,a,0.5682857935316861,colour,0.5
110,18,0,1,16,3,753,1167.5891340273665,1168.3353062388487,"[77, 0, 177]",177,l,0.22274822532199323,colour,0.5
110,18,0,1,16,4,754,1168.8547736488981,1169.5112683256157,"[82, 0, 172]",172,l,0.1330801428994164,colour,0.5
110,18,0,1,16,5,755,1170.0266468273476,1170.663314118865,"[10, 0, 244]",244,a,0.1132626038743183,colour,0.5
110,18,0,1,16,6,756,1171.1835924576735,1171.9273370029405,"[32, 0, 222]",222,a,0.2203886944334954,colour,0.5
110,18,0,1,16,7,757,1172.433599940734,1173.0072696079733,"[80, 0, 174]",174,l,0.050307908677496016,colour,0.5
110,18,0,1,16,8,758,1173.527330543846,1174.2792706288164,"[15, 0, 239]",239,a,0.22674339835066348,colour,0.5
110,18,0,1,16,9,759,1174.7952146932948,1175.42330402066,"[83, 0, 171]",171,l,0.1049969595624134,colour,0.5
110,18,0,1,16,10,760,1175.935912603978,1176.5192633977858,"[79, 0, 175]",175,l,0.06008158903568983,colour,0.5
110,18,0,1,16,11,761,1177.0296069732867,1177.7832843125798,"[63, 0, 191]",191,l,0.23051132226828486,colour,0.5
110,18,0,1,16,12,762,1178.2951961824438,1178.9032765617594,"[35, 0, 219]",219,a,0.08502621436491609,colour,0.5
110,18,0,1,16,13,763,1179.4202245393535,1180.0072928449372,"[37, 0, 217]",217,a,0.06421106366906315,colour,0.5
110,18,0,1,16,14,764,1180.513884644024,1181.0873310007155,"[25, 0, 229]",229,a,0.05018542264588177,colour,0.5
110,18,0,1,16,15,765,1181.6077022871468,1182.6153228118783,"[28, 0, 226]",226,a,0.484218200086616,colour,0.5
110,18,0,1,16,16,766,1183.1233332440024,1183.8472720655845,"[41, 0, 213]",213,l,0.19906469469424337,colour,0.5
110,18,0,1,16,17,767,1184.3592418307671,1185.2393291385379,"[11, 0, 243]",243,a,0.3570429889950901,colour,0.5
110,18,0,1,16,18,768,1185.7497696001083,1186.5113025902538,"[61, 0, 193]",193,l,0.23809718864504248,colour,0.5
110,18,0,1,16,19,769,1187.03115478775,1187.6712780772941,"[33, 0, 221]",221,a,0.11709826928563416,colour,0.5
110,18,0,1,16,20,770,1188.1873324185144,1188.903309644782,"[72, 0, 182]",182,l,0.19267966458573937,colour,0.5
110,18,0,1,16,21,771,1189.4218389138114,1190.1593047673814,"[99, 0, 155]",155,l,0.21486539917532355,colour,0.5
110,18,0,1,16,22,772,1190.6717317877337,1191.3912961626193,"[70, 0, 184]",184,l,0.19621088716667145,colour,0.5
110,18,0,1,16,23,773,1191.9061039815424,1192.7033595844405,"[74, 0, 180]",180,l,0.2739040843443945,colour,0.5
110,18,0,1,16,24,774,1193.2186746769585,1193.9672918838914,"[78, 0, 176]",176,l,0.2256705620093271,colour,0.5
110,18,0,1,16,25,775,1194.4841618801001,1195.0553010873264,"[5, 0, 249]",249,a,0.04799406393431127,colour,0.5
110,18,0,1,16,26,776,1195.5623194215586,1196.4554154601647,"[95, 0, 159]",159,l,0.3698181692743674,colour,0.5
110,18,0,1,16,27,777,1196.9685797600541,1197.7512500669109,"[84, 0, 170]",170,l,0.2592699514934793,colour,0.5
110,18,0,1,16,28,778,1198.2654718431877,1199.167276996537,"[49, 0, 205]",205,l,0.3785654871026054,colour,0.5
110,18,0,1,16,29,779,1199.6873375385767,1200.415247508441,"[68, 0, 186]",186,l,0.20476206974126399,colour,0.5
110,18,0,1,16,30,780,1200.9216916154837,1201.7112928228453,"[7, 0, 247]",247,a,0.26625795965082943,colour,0.5
110,18,0,1,16,31,781,1202.2187179999892,1202.9192513461458,"[22, 0, 232]",232,a,0.17769185814540833,colour,0.5
110,18,0,1,16,32,782,1203.4395462264074,1204.1352746523917,"[90, 0, 164]",164,l,0.1723402797942981,colour,0.5
110,18,0,1,16,33,783,1204.6426884080283,1205.4152691700729,"[40, 0, 214]",214,l,0.24918276979587972,colour,0.5
110,18,0,1,16,34,784,1205.917266756529,1206.711281401338,"[69, 0, 185]",185,l,0.2706422524061054,colour,0.5
110,18,0,1,16,35,785,1207.2298201227095,1207.991320817382,"[2, 0, 252]",252,a,0.23834491765592247,colour,0.5
110,18,0,1,16,36,786,1208.5109603380552,1209.2552487845533,"[0, 0, 254]",254,a,0.22095858945976943,colour,0.5
110,18,0,1,16,37,787,1209.7766507657943,1210.847352410201,"[45, 0, 209]",209,l,0.5477128580678254,colour,0.5
110,18,0,1,16,38,788,1211.357244244311,1213.2952682563337,"[20, 0, 234]",234,l,1.4147674103733152,colour,0.5
110,18,0,1,16,39,789,1213.8103096259292,1214.575273407856,"[44, 0, 210]",210,l,0.24151774041820318,colour,0.5
110,18,0,1,16,40,790,1215.0916294350754,1215.7752888465766,"[67, 0, 187]",187,l,0.1585903309751302,colour,0.5
110,18,0,1,16,41,791,1216.2962958003627,1217.0633367255796,"[92, 0, 162]",162,l,0.2420923615572974,colour,0.5
110,18,0,1,16,42,792,1217.5790752024623,1218.287262156373,"[98, 0, 156]",156,l,0.1856057980330661,colour,0.5
110,18,0,1,16,43,793,1218.7975978549803,1219.5193732808111,"[39, 0, 215]",215,a,0.19916945765726268,colour,0.5
110,18,0,1,16,44,794,1220.0319830457447,1220.7193004981382,"[93, 0, 161]",161,l,0.16488674574065953,colour,0.5
110,18,0,1,16,45,795,1221.2353024579352,1221.983361191349,"[76, 0, 178]",178,l,0.22467649495229125,colour,0.5
110,18,0,1,16,46,796,1222.5016525774263,1223.2312738079345,"[36, 0, 218]",218,a,0.20624647510703653,colour,0.5
110,18,0,1,16,47,797,1223.7516785713378,1224.3992498810403,"[71, 0, 183]",183,l,0.12415323127061129,colour,0.5
110,18,0,1,16,48,798,1224.9078735313378,1225.5112706887303,"[46, 0, 208]",208,l,0.07997750351205468,colour,0.5
110,18,0,1,16,49,799,1226.0328873159597,1226.7992464939598,"[14, 0, 240]",240,a,0.24291628727223724,colour,0.5
110,18,0,1,16,50,800,1227.3140456483234,1228.2313364294823,"[55, 0, 199]",199,l,0.393950684228912,colour,0.5
