id,age,condition,counterbalance,block,trialinblock,trial,tstart,tend,trialstim,trialintensity,response,RT,trialtype,colourfreq
007,64,0,2,Practice,1,NA,6.3015613704919815e-06,21.10101903625764,"[91, 0, 163]",163,a,20.574177670059726,colour,0.5
007,64,0,2,Practice,2,NA,21.615510585485026,24.524914673296735,"[94, 0, 160]",160,l,2.386022655526176,colour,0.5
007,64,0,2,Practice,3,NA,25.038884377107024,25.972921932814643,"[26, 0, 228]",228,a,0.41065376019105315,colour,0.5
007,64,0,2,Practice,4,NA,26.48167593916878,34.48505001445301,"[11, 0, 243]",243,a,7.480105676688254,colour,0.5
007,64,0,2,Practice,5,NA,34.998323399340734,36.97289633285254,"[21, 0, 233]",233,a,1.4516365467570722,colour,0.5
007,64,0,2,Practice,6,NA,37.482575088739395,38.836878600297496,"[88, 0, 166]",166,l,0.8311111251823604,colour,0.5
007,64,0,2,Practice,7,NA,39.35771854687482,40.65288062626496,"[85, 0, 169]",169,l,0.7719385791569948,colour,0.5
007,64,0,2,Practice,8,NA,41.172161338152364,42.34890034375712,"[0, 0, 254]",254,a,0.653810101794079,colour,0.5
007,64,0,2,Practice,9,NA,42.859778359532356,44.628872979199514,"[50, 0, 204]",204,a,1.24573091045022,colour,0.5
007,64,0,2,Practice,10,NA,45.14120743609965,46.24493455467746,"[12, 0, 242]",242,a,0.5805638765450567,colour,0.5
007,64,0,2,1,1,1,5.823632784653455,7.143953327555209,"[99, 0, 155]",155,l,0.7962707546539605,colour,0.5
007,64,0,2,1,2,2,7.652671494055539,8.807966393884271,"[8, 0, 246]",246,a,0.6321651346515864,colour,0.5
007,64,0,2,1,3,3,9.324690653942525,10.511951244901866,"[38, 0, 216]",216,a,0.6639386292081326,colour,0.5
007,64,0,2,1,4,4,11.027971702860668,12.135914151091129,"[31, 0, 223]",223,a,0.5847244616597891,colour,0.5
007,64,0,2,1,5,5,12.65304092131555,13.847966141765937,"[49, 0, 205]",205,a,0.6717324401251972,colour,0.5
007,64,0,2,1,6,6,14.357723272871226,15.399951399303973,"[85, 0, 169]",169,l,0.5189301893115044,colour,0.5
007,64,0,2,1,7,7,15.920375051209703,16.935974094318226,"[61, 0, 193]",193,a,0.4925740410108119,colour,0.5
007,64,0,2,1,8,8,17.45169522962533,18.447979690041393,"[25, 0, 229]",229,a,0.47298809862695634,colour,0.5
007,64,0,2,1,9,9,18.967395490966737,20.007982856594026,"[3, 0, 251]",251,a,0.5173296006396413,colour,0.5
007,64,0,2,1,10,10,20.514549838379025,21.528091432061046,"[82, 0, 172]",172,l,0.4909734525717795,colour,0.5
007,64,0,2,1,11,11,22.04579676152207,22.999990941490978,"[44, 0, 210]",210,a,0.4290404424536973,colour,0.5
007,64,0,2,1,12,12,23.517398523632437,24.41596122342162,"[7, 0, 247]",247,a,0.3752667319495231,colour,0.5
007,64,0,2,1,13,13,24.923756609670818,25.935935103567317,"[68, 0, 186]",186,l,0.48893254436552525,colour,0.5
007,64,0,2,1,14,14,26.455098843434826,27.423973618540913,"[24, 0, 230]",230,a,0.44560440722852945,colour,0.5
007,64,0,2,1,15,15,27.93952658167109,29.05593001516536,"[36, 0, 218]",218,a,0.5931452747900039,colour,0.5
007,64,0,2,1,16,16,29.55753139150329,30.63992704404518,"[77, 0, 177]",177,l,0.5591524599585682,colour,0.5
007,64,0,2,1,17,17,31.153206730261445,32.11196558107622,"[62, 0, 192]",192,a,0.43553968286141753,colour,0.5
007,64,0,2,1,18,18,32.63073862576857,33.78391975630075,"[57, 0, 197]",197,a,0.6298048179596663,colour,0.5
007,64,0,2,1,19,19,34.30268256110139,35.399960457812995,"[0, 0, 254]",254,a,0.5740173747763038,colour,0.5
007,64,0,2,1,20,20,35.91962674446404,36.91190894600004,"[84, 0, 170]",170,l,0.4690504304599017,colour,0.5
007,64,0,2,1,21,21,37.41365919588134,38.29593953047879,"[13, 0, 241]",241,a,0.35937072918750346,colour,0.5
007,64,0,2,1,22,22,38.804373340448365,39.67988740745932,"[90, 0, 164]",164,l,0.3528490399476141,colour,0.5
007,64,0,2,1,23,23,40.195079607889056,41.23190338490531,"[70, 0, 184]",184,l,0.5166632139589638,colour,0.5
007,64,0,2,1,24,24,41.73893274134025,42.80788920004852,"[54, 0, 200]",200,a,0.5457144477404654,colour,0.5
007,64,0,2,1,25,25,43.31716190115549,44.327909947838634,"[83, 0, 171]",171,l,0.48743711272254586,colour,0.5
007,64,0,2,1,26,26,44.848516738042235,45.84791927412152,"[75, 0, 179]",179,l,0.47605103603564203,colour,0.5
007,64,0,2,1,27,27,46.36437926371582,47.32788237882778,"[5, 0, 249]",249,a,0.4404221868608147,colour,0.5
007,64,0,2,1,28,28,47.84897832502611,48.807916769292206,"[72, 0, 182]",182,l,0.4355574056971818,colour,0.5
007,64,0,2,1,29,29,49.317837346345186,50.31192178535275,"[11, 0, 243]",243,a,0.470805800287053,colour,0.5
007,64,0,2,1,30,30,50.81793974619359,51.784004039131105,"[35, 0, 219]",219,a,0.44344377028755844,colour,0.5
007,64,0,2,1,31,31,52.30242892447859,53.247890366008505,"[50, 0, 204]",204,a,0.4222154919989407,colour,0.5
007,64,0,2,1,32,32,53.75124671822414,54.74388259300031,"[22, 0, 232]",232,a,0.46925956243649125,colour,0.5
007,64,0,2,1,33,33,55.251431431854144,56.23991066007875,"[34, 0, 220]",220,a,0.46517420187592506,colour,0.5
007,64,0,2,1,34,34,56.751572428504005,58.05595443351194,"[60, 0, 194]",194,a,0.7811734708957374,colour,0.5
007,64,0,2,1,35,35,58.56934518436901,59.711889332393184,"[65, 0, 189]",189,a,0.6223150559235364,colour,0.5
007,64,0,2,1,36,36,60.221433393191546,61.42387594492175,"[63, 0, 191]",191,a,0.6791769100818783,colour,0.5
007,64,0,2,1,37,37,61.94063683249988,62.95186930941418,"[23, 0, 231]",231,a,0.4878553769085556,colour,0.5
007,64,0,2,1,38,38,63.47209603828378,64.45591607294045,"[12, 0, 242]",242,a,0.4605102820787579,colour,0.5
007,64,0,2,1,39,39,64.9519776168745,65.90389655088075,"[94, 0, 160]",160,l,0.4233344071544707,colour,0.5
007,64,0,2,1,40,40,66.40758294588886,67.41591041744687,"[16, 0, 238]",238,a,0.48495982377789915,colour,0.5
007,64,0,2,1,41,41,67.92704522050917,68.815872450592,"[76, 0, 178]",178,l,0.3653957792557776,colour,0.5
007,64,0,2,1,42,42,69.33356478321366,70.24791754130274,"[21, 0, 233]",233,a,0.39109302405267954,colour,0.5
007,64,0,2,1,43,43,70.75545495864935,71.69586848071776,"[98, 0, 156]",156,l,0.4170529635157436,colour,0.5
007,64,0,2,1,44,44,72.20877204439603,73.21585850859992,"[96, 0, 158]",158,l,0.48438992933370173,colour,0.5
007,64,0,2,1,45,45,73.72533522173762,74.78388037160039,"[56, 0, 198]",198,a,0.5347107951529324,colour,0.5
007,64,0,2,1,46,46,75.30409607314505,76.4798414062243,"[19, 0, 235]",235,a,0.6526777958497405,colour,0.5
007,64,0,2,1,47,47,76.99178950046189,77.99187142029405,"[28, 0, 226]",226,a,0.4767694103065878,colour,0.5
007,64,0,2,1,48,48,78.50746573740616,79.5198714802973,"[73, 0, 181]",181,l,0.48904360900633037,colour,0.5
007,64,0,2,1,49,49,80.0387937927153,81.00786864128895,"[39, 0, 215]",215,a,0.4457796684000641,colour,0.5
007,64,0,2,1,50,50,81.52337906928733,82.5598759544082,"[17, 0, 237]",237,a,0.5132036742288619,colour,0.5
007,64,0,2,2,1,51,89.74451707815751,90.77586561348289,"[22, 0, 232]",232,a,0.5064051111694425,colour,0.5
007,64,0,2,2,2,52,91.29315701127052,92.20788077195175,"[48, 0, 206]",206,a,0.39137226063758135,colour,0.5
007,64,0,2,2,3,53,92.71516218944453,93.631884716684,"[77, 0, 177]",177,l,0.3934852422680706,colour,0.5
007,64,0,2,2,4,54,94.15281406627037,95.11187735944986,"[79, 0, 175]",175,l,0.4358606666792184,colour,0.5
007,64,0,2,2,5,55,95.62164827529341,96.61580163729377,"[57, 0, 197]",197,a,0.4716517806518823,colour,0.5
007,64,0,2,2,6,56,97.13735956442542,98.09584784321487,"[23, 0, 231]",231,a,0.4354443720076233,colour,0.5
007,64,0,2,2,7,57,98.60618274589069,99.46382803749293,"[71, 0, 183]",183,l,0.33437689300626516,colour,0.5
007,64,0,2,2,8,58,99.981829932658,100.9838338191621,"[4, 0, 250]",250,a,0.4786866509821266,colour,0.5
007,64,0,2,2,9,59,101.49759636027738,102.39984309184365,"[42, 0, 212]",212,a,0.3789676991291344,colour,0.5
007,64,0,2,2,10,60,102.91964131686836,103.95180038642138,"[50, 0, 204]",204,a,0.5090753843542188,colour,0.5
007,64,0,2,2,11,61,104.46650106762536,105.3518356748391,"[70, 0, 184]",184,l,0.361977199325338,colour,0.5
007,64,0,2,2,12,62,105.87494102143683,106.81584173068404,"[88, 0, 166]",166,l,0.41762719047255814,colour,0.5
007,64,0,2,2,13,63,107.32817264297046,108.15180700295605,"[14, 0, 240]",240,a,0.30042503820732236,colour,0.5
007,64,0,2,2,14,64,108.67190494458191,109.71179205249064,"[20, 0, 234]",234,a,0.5165694786701351,colour,0.5
007,64,0,2,2,15,65,110.21903211646713,111.08778739883564,"[54, 0, 200]",200,a,0.34551839134655893,colour,0.5
007,64,0,2,2,16,66,111.59406175324693,112.559847203549,"[52, 0, 202]",202,a,0.4429006571881473,colour,0.5
007,64,0,2,2,17,67,113.07867853762582,113.87182688433677,"[92, 0, 162]",162,l,0.2699205141980201,colour,0.5
007,64,0,2,2,18,68,114.39111783611588,115.47182979877107,"[86, 0, 168]",168,l,0.5572812994942069,colour,0.5
007,64,0,2,2,19,69,115.9850677375216,116.86378691997379,"[98, 0, 156]",156,l,0.3553625624626875,colour,0.5
007,64,0,2,2,20,70,117.37713552918285,118.37580866343342,"[36, 0, 218]",218,a,0.4752653141040355,colour,0.5
007,64,0,2,2,21,71,118.89287123689428,119.84780663438141,"[32, 0, 222]",222,a,0.43065245263278484,colour,0.5
007,64,0,2,2,22,72,120.36174246738665,121.31183356395923,"[64, 0, 190]",190,a,0.4266549195162952,colour,0.5
007,64,0,2,2,23,73,121.830646781018,122.87983652250841,"[55, 0, 199]",199,a,0.525876444298774,colour,0.5
007,64,0,2,2,24,74,123.39320955029689,124.34381028288044,"[29, 0, 225]",225,a,0.42722323862835765,colour,0.5
007,64,0,2,2,25,75,124.86208590073511,125.47183846333064,"[91, 0, 163]",163,l,0.08638649014756083,colour,0.5
007,64,0,2,2,26,76,125.98722167918459,128.08780630351976,"[74, 0, 180]",180,l,1.5775592285208404,colour,0.5
007,64,0,2,2,27,77,128.596770623466,129.59184637176804,"[81, 0, 173]",173,l,0.4717805681284517,colour,0.5
007,64,0,2,2,28,78,130.11246576486155,131.0958025509026,"[2, 0, 252]",252,a,0.4600447565317154,colour,0.5
007,64,0,2,2,29,79,131.6125953400042,132.55976134515367,"[21, 0, 233]",233,a,0.4237818156834692,colour,0.5
007,64,0,2,2,30,80,133.0659002168104,133.95176690956578,"[25, 0, 229]",229,a,0.3626278324518353,colour,0.5
007,64,0,2,2,31,81,134.4722386104986,135.48782150587067,"[7, 0, 247]",247,a,0.4921872846316546,colour,0.5
007,64,0,2,2,32,82,136.00360565655865,136.95977576007135,"[96, 0, 158]",158,l,0.4330742091406137,colour,0.5
007,64,0,2,2,33,83,137.47248082561418,138.50381163763814,"[89, 0, 165]",165,l,0.508016727399081,colour,0.5
007,64,0,2,2,34,84,139.01947960373946,140.0397886466235,"[12, 0, 242]",242,a,0.49706506240181625,colour,0.5
007,64,0,2,2,35,85,140.54092882969417,141.4397703721188,"[44, 0, 210]",210,a,0.3754715316463262,colour,0.5
007,64,0,2,2,36,86,141.9472207496874,142.96782635804266,"[1, 0, 253]",253,a,0.5023752828128636,colour,0.5
007,64,0,2,2,37,87,143.48864267393947,144.43976485845633,"[3, 0, 251]",251,a,0.4277797427494079,colour,0.5
007,64,0,2,2,38,88,144.95751272304915,145.93578544235788,"[31, 0, 223]",223,a,0.45495902840048075,colour,0.5
007,64,0,2,2,39,89,146.44200032600202,147.29573551844805,"[5, 0, 249]",249,a,0.3303561231587082,colour,0.5
007,64,0,2,2,40,90,147.8032934158109,148.76777996309102,"[30, 0, 224]",224,a,0.4411886103916913,colour,0.5
007,64,0,2,2,41,91,149.28653095266782,150.27181845600717,"[93, 0, 161]",161,l,0.46196081559173763,colour,0.5
007,64,0,2,2,42,92,150.78668573405594,151.61578706488945,"[26, 0, 228]",228,a,0.3059187906328589,colour,0.5
007,64,0,2,2,43,93,152.13053579535335,153.0317695562262,"[82, 0, 172]",172,l,0.3779425190296024,colour,0.5
007,64,0,2,2,44,94,153.5525311275851,154.63974784431048,"[46, 0, 208]",208,a,0.5639483181294054,colour,0.5
007,64,0,2,2,45,95,155.14817929104902,156.11179386428557,"[34, 0, 220]",220,a,0.44020163314417005,colour,0.5
007,64,0,2,2,46,96,156.63267674017698,157.59175499971025,"[41, 0, 213]",213,a,0.4358082856051624,colour,0.5
007,64,0,2,2,47,97,158.1015786905773,159.0077465493232,"[85, 0, 169]",169,l,0.382952235173434,colour,0.5
007,64,0,2,2,48,98,159.52354763518088,160.5997339177411,"[62, 0, 192]",192,a,0.5528887393884361,colour,0.5
007,64,0,2,2,49,99,161.11985470238142,162.1117564488668,"[66, 0, 188]",188,a,0.46859672013670206,colour,0.5
007,64,0,2,2,50,100,162.6200425666757,163.23176672053523,"[87, 0, 167]",167,l,0.08860108419321477,colour,0.5
007,64,0,2,3,1,101,177.1561038584914,179.12771074078046,"[82, 0, 172]",172,l,1.4475696969311684,colour,0.5
007,64,0,2,3,2,102,179.6413838788867,180.5437511273194,"[16, 0, 238]",238,a,0.3793064064811915,colour,0.5
007,64,0,2,3,3,103,181.06345286010765,181.96775152743794,"[50, 0, 204]",204,a,0.38103263173252344,colour,0.5
007,64,0,2,3,4,104,182.47303890483454,183.4317378909327,"[94, 0, 160]",160,l,0.4477886750828475,colour,0.5
007,64,0,2,3,5,105,183.9451912632212,184.9597741845064,"[30, 0, 224]",224,a,0.49129404267296195,colour,0.5
007,64,0,2,3,6,106,185.47026820085011,186.49571653502062,"[61, 0, 193]",193,a,0.5023473198525608,colour,0.5
007,64,0,2,3,7,107,187.01726382854395,188.02370399190113,"[52, 0, 202]",202,a,0.4953459263779223,colour,0.5
007,64,0,2,3,8,108,188.53644765424542,189.4797346740961,"[97, 0, 157]",157,l,0.42016788851469755,colour,0.5
007,64,0,2,3,9,109,189.98963674041443,190.93572872853838,"[54, 0, 200]",200,a,0.42341396398842335,colour,0.5
007,64,0,2,3,10,110,191.4429447678849,192.51176298689097,"[59, 0, 195]",195,a,0.5456234693992883,colour,0.5
007,64,0,2,3,11,111,193.02118180459365,194.11972237029113,"[72, 0, 182]",182,a,0.5754273422062397,colour,0.5
007,64,0,2,3,12,112,194.6314542433247,195.59969532093965,"[23, 0, 231]",231,a,0.44493132503703237,colour,0.5
007,64,0,2,3,13,113,196.11797330202535,197.10370545694605,"[24, 0, 230]",230,a,0.46235741791315377,colour,0.5
007,64,0,2,3,14,114,197.61812178161927,198.5836728939321,"[12, 0, 242]",242,a,0.4422106398269534,colour,0.5
007,64,0,2,3,15,115,199.10259284311906,200.01573649514467,"[37, 0, 217]",217,a,0.39732051081955433,colour,0.5
007,64,0,2,3,16,116,200.5327541702427,201.55169814405963,"[67, 0, 187]",187,a,0.4959051872137934,colour,0.5
007,64,0,2,3,17,117,202.0575770775322,203.04767186031677,"[95, 0, 159]",159,l,0.4647618455346674,colour,0.5
007,64,0,2,3,18,118,203.56500933808275,204.55970975151286,"[78, 0, 176]",176,l,0.4714111411012709,colour,0.5
007,64,0,2,3,19,119,205.0807044794783,206.14370796177536,"[79, 0, 175]",175,l,0.5396594651974738,colour,0.5
007,64,0,2,3,20,120,206.6590844821185,207.71971780178137,"[26, 0, 228]",228,a,0.537355862557888,colour,0.5
007,64,0,2,3,21,121,208.237216362264,209.20767439668998,"[43, 0, 211]",211,a,0.45949534187093377,colour,0.5
007,64,0,2,3,22,122,209.72288471413776,210.87971127964556,"[41, 0, 213]",213,a,0.6335928251501173,colour,0.5
007,64,0,2,3,23,123,211.39485897566192,212.4717344881501,"[57, 0, 197]",197,a,0.5536327138543129,colour,0.5
007,64,0,2,3,24,124,212.9887608278077,214.0237205333542,"[80, 0, 174]",174,l,0.5116558608133346,colour,0.5
007,64,0,2,3,25,125,214.53574779070914,215.5757420246955,"[34, 0, 220]",220,a,0.5167943644337356,colour,0.5
007,64,0,2,3,26,126,216.08276311052032,217.11175251053646,"[0, 0, 254]",254,a,0.5057174568064511,colour,0.5
007,64,0,2,3,27,127,217.62975913193077,218.72766206157394,"[18, 0, 236]",236,a,0.5747152694966644,colour,0.5
007,64,0,2,3,28,128,219.23917495645583,220.2636749104131,"[31, 0, 223]",223,a,0.5011421523522586,colour,0.5
007,64,0,2,3,29,129,220.77315241098404,221.74421933107078,"[6, 0, 248]",248,a,0.4485161080956459,colour,0.5
007,64,0,2,3,30,130,222.2569897749927,223.2318021664396,"[93, 0, 161]",161,l,0.4526290374342352,colour,0.5
007,64,0,2,3,31,131,223.74021825334057,224.78368581202812,"[63, 0, 191]",191,a,0.517065724125132,colour,0.5
007,64,0,2,3,32,132,225.29030556906946,226.23169622197747,"[32, 0, 222]",222,a,0.41791312233544886,colour,0.5
007,64,0,2,3,33,133,226.74346157209948,227.6796684290748,"[71, 0, 183]",183,l,0.4128525999840349,colour,0.5
007,64,0,2,3,34,134,228.19418557849713,229.11967707797885,"[11, 0, 243]",243,a,0.40201908885501325,colour,0.5
007,64,0,2,3,35,135,229.63191307359375,230.5916900150478,"[40, 0, 214]",214,a,0.4478587794583291,colour,0.5
007,64,0,2,3,36,136,231.10536512243561,232.03164982702583,"[2, 0, 252]",252,a,0.4154094457626343,colour,0.5
007,64,0,2,3,37,137,232.53369861189276,233.48763245996088,"[85, 0, 169]",169,l,0.43057171418331563,colour,0.5
007,64,0,2,3,38,138,234.00321062933654,234.8236398738809,"[84, 0, 170]",170,l,0.297300660982728,colour,0.5
007,64,0,2,3,39,139,235.33147385693155,236.19977936754003,"[65, 0, 189]",189,a,0.34567750501446426,colour,0.5
007,64,0,2,3,40,140,236.70655548130162,237.68766546435654,"[19, 0, 235]",235,a,0.458205891540274,colour,0.5
007,64,0,2,3,41,141,238.2066444903612,239.01567505532876,"[14, 0, 240]",240,a,0.28571648010984063,colour,0.5
007,64,0,2,3,42,142,239.53485691198148,240.47161830356345,"[33, 0, 221]",221,a,0.4130526736844331,colour,0.5
007,64,0,2,3,43,143,240.98812949331477,242.03166794404387,"[22, 0, 232]",232,a,0.5202326367143542,colour,0.5
007,64,0,2,3,44,144,242.55077181919478,243.47961770184338,"[77, 0, 177]",177,l,0.4055774840526283,colour,0.5
007,64,0,2,3,45,145,243.98841503122821,244.9676365244668,"[47, 0, 207]",207,a,0.4558959868736565,colour,0.5
007,64,0,2,3,46,146,245.48853633576073,246.47163720824756,"[98, 0, 156]",156,l,0.4597903322428465,colour,0.5
007,64,0,2,3,47,147,246.98926731315441,247.97572847642004,"[45, 0, 209]",209,a,0.4614787483587861,colour,0.5
007,64,0,2,3,48,148,248.48876712936908,249.4636618345976,"[35, 0, 219]",219,a,0.4494101374875754,colour,0.5
007,64,0,2,3,49,149,249.97534802160226,250.9356499593705,"[70, 0, 184]",184,l,0.4369799760170281,colour,0.5
007,64,0,2,3,50,150,251.44299518014304,252.43962858780287,"[99, 0, 155]",155,l,0.47337446128949523,colour,0.5
007,64,0,2,4,1,151,263.43035116046667,264.33563444181345,"[90, 0, 164]",164,l,0.381122428458184,colour,0.5
007,64,0,2,4,2,152,264.85324958059937,265.7676039140206,"[0, 0, 254]",254,a,0.3910985377151519,colour,0.5
007,64,0,2,4,3,153,266.2751968635712,267.20764603978023,"[24, 0, 230]",230,a,0.40942890010774136,colour,0.5
007,64,0,2,4,4,154,267.72907439176925,268.5995799242519,"[87, 0, 167]",167,l,0.3471934169065207,colour,0.5
007,64,0,2,4,5,155,269.11984052392654,269.97562962118536,"[42, 0, 212]",212,a,0.341734716668725,colour,0.5
007,64,0,2,4,6,156,270.4856722904369,271.37566018360667,"[22, 0, 232]",232,a,0.3667246145196259,colour,0.5
007,64,0,2,4,7,157,271.8920469179284,272.75958954985254,"[95, 0, 159]",159,l,0.3442041287198663,colour,0.5
007,64,0,2,4,8,158,273.26707379799336,274.2875943358522,"[38, 0, 216]",216,a,0.495543243130669,colour,0.5
007,64,0,2,4,9,159,274.80040889047086,275.83162312442437,"[1, 0, 253]",253,a,0.5078402846120298,colour,0.5
007,64,0,2,4,10,160,276.34747107792646,277.0715585965663,"[61, 0, 193]",193,a,0.20078524923883379,colour,0.5
007,64,0,2,4,11,161,277.58195021306165,278.2315808252897,"[77, 0, 177]",177,l,0.12626060121692717,colour,0.5
007,64,0,2,4,12,162,278.7382777761668,279.79156587505713,"[78, 0, 176]",176,l,0.5299787402618676,colour,0.5
007,64,0,2,4,13,163,280.3009098621551,281.327571634436,"[75, 0, 179]",179,l,0.5034075521398336,colour,0.5
007,64,0,2,4,14,164,281.8492441708222,282.88764687487856,"[71, 0, 183]",183,l,0.5150929514784366,colour,0.5
007,64,0,2,4,15,165,283.3962075030431,284.37565978989005,"[19, 0, 235]",235,a,0.45606061443686485,colour,0.5
007,64,0,2,4,16,166,284.89535640273243,285.9916926145088,"[32, 0, 222]",222,a,0.5730335486587137,colour,0.5
007,64,0,2,4,17,167,286.50484075630084,287.51967219426297,"[51, 0, 203]",203,a,0.49154571001417935,colour,0.5
007,64,0,2,4,18,168,288.0386894235853,289.0075543525163,"[13, 0, 241]",241,a,0.4455283950082958,colour,0.5
007,64,0,2,4,19,169,289.5232065648306,290.48759071249515,"[16, 0, 238]",238,a,0.4407715278211981,colour,0.5
007,64,0,2,4,20,170,291.00802775495686,291.8881561171729,"[28, 0, 226]",226,a,0.35491121537052095,colour,0.5
007,64,0,2,4,21,171,292.4006949798204,293.3515840074979,"[5, 0, 249]",249,a,0.4275221675634384,colour,0.5
007,64,0,2,4,22,172,293.8694941366557,294.8796017905697,"[86, 0, 168]",168,l,0.48717914381995797,colour,0.5
007,64,0,2,4,23,173,295.4011833483819,296.33561396203004,"[60, 0, 194]",194,a,0.4232914780732244,colour,0.5
007,64,0,2,4,24,174,296.84260511538014,297.87956870743074,"[35, 0, 219]",219,a,0.5135514396242797,colour,0.5
007,64,0,2,4,25,175,298.38982129632495,299.4155969163403,"[40, 0, 214]",214,a,0.502406790619716,colour,0.5
007,64,0,2,4,26,176,299.93686772999354,300.85557681438513,"[56, 0, 198]",198,a,0.3948180158622563,colour,0.5
007,64,0,2,4,27,177,301.3744408376515,302.391697576968,"[72, 0, 182]",182,l,0.493932414567098,colour,0.5
007,64,0,2,4,28,178,302.90581497293897,303.839552418096,"[44, 0, 210]",210,a,0.4104733788408339,colour,0.5
007,64,0,2,4,29,179,304.3590335974004,305.37563852220774,"[45, 0, 209]",209,a,0.4933377078268677,colour,0.5
007,64,0,2,4,30,180,305.8903734679334,307.0555755540263,"[53, 0, 201]",201,a,0.641884850570932,colour,0.5
007,64,0,2,4,31,181,307.5624044430442,308.5995692904107,"[41, 0, 213]",213,a,0.5138936915900558,colour,0.5
007,64,0,2,4,32,182,309.1093598983716,310.0635816475842,"[50, 0, 204]",204,a,0.43090805830433965,colour,0.5
007,64,0,2,4,33,183,310.5783087166492,311.45553443650715,"[21, 0, 233]",233,a,0.3530270578339696,colour,0.5
007,64,0,2,4,34,184,311.9699531244114,312.79158202256076,"[59, 0, 195]",195,a,0.2985168560408056,colour,0.5
007,64,0,2,4,35,185,313.30103549873456,314.2635295812506,"[58, 0, 196]",196,a,0.43931429903022945,colour,0.5
007,64,0,2,4,36,186,314.7574875957798,315.69552898569964,"[33, 0, 221]",221,a,0.4148576681036502,colour,0.5
007,64,0,2,4,37,187,316.2107251249254,317.2235345595982,"[80, 0, 174]",174,l,0.48959735594689846,colour,0.5
007,64,0,2,4,38,188,317.7390182057861,318.7595556790475,"[73, 0, 181]",181,l,0.4972080283332616,colour,0.5
007,64,0,2,4,39,189,319.2704360578209,320.25552270002663,"[39, 0, 215]",215,a,0.4622849505394697,colour,0.5
007,64,0,2,4,40,190,320.77053648862056,321.8235441693105,"[68, 0, 186]",186,l,0.5299574725795537,colour,0.5
007,64,0,2,4,41,191,322.3331445499789,323.27957682078704,"[69, 0, 185]",185,l,0.4231055830605328,colour,0.5
007,64,0,2,4,42,192,323.7863340298645,324.71151714841835,"[81, 0, 173]",173,l,0.4019478028640151,colour,0.5
007,64,0,2,4,43,193,325.22395361121744,326.1435224604793,"[9, 0, 245]",245,a,0.39618820464238524,colour,0.5
007,64,0,2,4,44,194,326.6616559000686,327.5914997877553,"[74, 0, 180]",180,l,0.4065999072045088,colour,0.5
007,64,0,2,4,45,195,328.1066533913836,328.9514872790314,"[25, 0, 229]",229,a,0.32154697831720114,colour,0.5
007,64,0,2,4,46,196,329.459255883703,330.33550053439103,"[98, 0, 156]",156,l,0.3512110358569771,colour,0.5
007,64,0,2,4,47,197,330.8522385789547,331.89549818704836,"[15, 0, 239]",239,a,0.5203181011602283,colour,0.5
007,64,0,2,4,48,198,332.4040493629873,333.4314842543099,"[34, 0, 220]",220,a,0.5043980737682432,colour,0.5
007,64,0,2,4,49,199,333.95096425223164,334.8155431956984,"[94, 0, 160]",160,l,0.34126840345561504,colour,0.5
007,64,0,2,4,50,200,335.32597931683995,336.19951706635766,"[7, 0, 247]",247,a,0.3501685264054686,colour,0.5
007,64,0,2,5,1,201,350.3590225696098,359.31145350285806,"[33, 0, 221]",221,a,8.426243350841105,colour,0.5
007,64,0,2,5,2,202,359.83153175213374,360.91957318154164,"[79, 0, 175]",175,l,0.5648065076675266,colour,0.5
007,64,0,2,5,3,203,361.44099798891693,362.54349237075076,"[27, 0, 227]",227,a,0.5792102292180061,colour,0.5
007,64,0,2,5,4,204,363.05046580103226,363.9434599177912,"[54, 0, 200]",200,a,0.3697631333488971,colour,0.5
007,64,0,2,5,5,205,364.4568124655634,365.3834390284028,"[52, 0, 202]",202,a,0.40189817850477993,colour,0.5
007,64,0,2,5,6,206,365.8957703344058,366.7114832776133,"[70, 0, 184]",184,a,0.2927229932975024,colour,0.5
007,64,0,2,5,7,207,367.22397724189796,368.1034990819171,"[81, 0, 173]",173,l,0.35610693064518273,colour,0.5
007,64,0,2,5,8,208,368.61479654326104,369.5114687841851,"[44, 0, 210]",210,a,0.3733601253479719,colour,0.5
007,64,0,2,5,9,209,370.0231896294281,370.91945975413546,"[57, 0, 197]",197,a,0.37293043988756835,colour,0.5
007,64,0,2,5,10,210,371.4282330588903,372.32746175164357,"[89, 0, 165]",165,l,0.37579724192619324,colour,0.5
007,64,0,2,5,11,211,372.83447377895936,373.78344162763096,"[74, 0, 180]",180,l,0.4258810128085315,colour,0.5
007,64,0,2,5,12,212,374.2901370031759,375.2074640830979,"[56, 0, 198]",198,a,0.39403111208230257,colour,0.5
007,64,0,2,5,13,213,375.7289223675616,376.71143129002303,"[15, 0, 239]",239,a,0.4594614712987095,colour,0.5
007,64,0,2,5,14,214,377.22900980128907,378.1274953072425,"[71, 0, 183]",183,l,0.37512494740076363,colour,0.5
007,64,0,2,5,15,215,378.6354758008383,379.6394367062021,"[26, 0, 228]",228,a,0.48100285697728395,colour,0.5
007,64,0,2,5,16,216,380.15120284375735,381.0874939840287,"[97, 0, 157]",157,l,0.41303534456528723,colour,0.5
007,64,0,2,5,17,217,381.604417135939,382.6074347810354,"[99, 0, 155]",155,l,0.4801509687677026,colour,0.5
007,64,0,2,5,18,218,383.1224083972629,384.143445660593,"[64, 0, 190]",190,a,0.4979169506113976,colour,0.5
007,64,0,2,5,19,219,384.65371872950345,385.67145714210346,"[47, 0, 207]",207,a,0.4946937181521207,colour,0.5
007,64,0,2,5,20,220,386.18502394179814,387.15945115243085,"[35, 0, 219]",219,a,0.45139118074439466,colour,0.5
007,64,0,2,5,21,221,387.6695525047835,388.6474534336012,"[41, 0, 213]",213,a,0.4546593117993325,colour,0.5
007,64,0,2,5,22,222,389.1540558615234,390.11948685068637,"[21, 0, 233]",233,a,0.44237014721147716,colour,0.5
007,64,0,2,5,23,223,390.6385655195918,391.4154504057951,"[9, 0, 245]",245,a,0.253564499784261,colour,0.5
007,64,0,2,5,24,224,391.9355164456647,392.90340818231925,"[73, 0, 181]",181,l,0.4445418119430542,colour,0.5
007,64,0,2,5,25,225,393.42005839943886,394.4153944796417,"[75, 0, 179]",179,l,0.47215747833251953,colour,0.5
007,64,0,2,5,26,226,394.93573621148244,396.15941531257704,"[51, 0, 203]",203,a,0.7003579270094633,colour,0.5
007,64,0,2,5,27,227,396.67030435591005,397.64740971662104,"[17, 0, 237]",237,a,0.45405869698151946,colour,0.5
007,64,0,2,5,28,228,398.15487151569687,398.95143726072274,"[49, 0, 205]",205,a,0.27337020775303245,colour,0.5
007,64,0,2,5,29,229,399.46746244467795,400.39942600927316,"[65, 0, 189]",189,a,0.4086345136165619,colour,0.5
007,64,0,2,5,30,230,400.92073384462856,401.89542453782633,"[32, 0, 222]",222,a,0.4516861711163074,colour,0.5
007,64,0,2,5,31,231,402.4051848198287,403.2794082548935,"[84, 0, 170]",170,l,0.3509963902179152,colour,0.5
007,64,0,2,5,32,232,403.7959229890257,404.67145596048795,"[86, 0, 168]",168,l,0.35220037610270083,colour,0.5
007,64,0,2,5,33,233,405.1866678535007,405.9834399735555,"[95, 0, 159]",159,l,0.2735844599083066,colour,0.5
007,64,0,2,5,34,234,406.499183164211,407.32748498860747,"[87, 0, 167]",167,l,0.30489321681670845,colour,0.5
007,64,0,2,5,35,235,407.8430883639958,408.51140931341797,"[14, 0, 240]",240,a,0.14495960320346057,colour,0.5
007,64,0,2,5,36,236,409.0307636745274,410.07943314593285,"[45, 0, 209]",209,a,0.5255015033762902,colour,0.5
007,64,0,2,5,37,237,410.59473050315864,411.74341234122403,"[53, 0, 201]",201,a,0.6257659310940653,colour,0.5
007,64,0,2,5,38,238,412.250980084762,413.1194352568127,"[82, 0, 172]",172,l,0.34505837969481945,colour,0.5
007,64,0,2,5,39,239,413.6262042813469,414.47938257595524,"[30, 0, 224]",224,a,0.3299776373896748,colour,0.5
007,64,0,2,5,40,240,414.9856565366499,415.94347606552765,"[48, 0, 206]",206,a,0.43512575095519423,colour,0.5
007,64,0,2,5,41,241,416.45438598282635,417.46339205047116,"[88, 0, 166]",166,l,0.48585149040445685,colour,0.5
007,64,0,2,5,42,242,417.95889905956574,418.8554275468923,"[5, 0, 249]",249,a,0.3732707223389298,colour,0.5
007,64,0,2,5,43,243,419.35333937755786,420.33539734687656,"[22, 0, 232]",232,a,0.45877854293212295,colour,0.5
007,64,0,2,5,44,244,420.8535146387294,421.6314475480467,"[1, 0, 253]",253,a,0.262510702945292,colour,0.5
007,64,0,2,5,45,245,422.14303133497015,422.91147729125805,"[94, 0, 160]",160,l,0.25686886440962553,colour,0.5
007,64,0,2,5,46,246,423.42802865291014,424.0717795439996,"[46, 0, 208]",208,a,0.12036394467577338,colour,0.5
007,64,0,2,5,47,247,424.58464726782404,425.2635807811748,"[16, 0, 238]",238,a,0.15883084572851658,colour,0.5
007,64,0,2,5,48,248,425.78495478257537,426.4154165349901,"[25, 0, 229]",229,a,0.10466210800223053,colour,0.5
007,64,0,2,5,49,249,426.93039645277895,427.7593843562063,"[24, 0, 230]",230,a,0.30262427194975317,colour,0.5
007,64,0,2,5,50,250,428.2647052104585,429.35134770022705,"[20, 0, 234]",234,a,0.5638447366654873,colour,0.5
007,64,0,2,6,1,251,441.07886679586954,441.63136444659904,"[19, 0, 235]",235,a,0.028425807133316994,colour,0.5
007,64,0,2,6,2,252,442.14237912674434,442.7993557471782,"[82, 0, 172]",172,l,0.13385630771517754,colour,0.5
007,64,0,2,6,3,253,443.30175505485386,444.2153595061973,"[86, 0, 168]",168,l,0.39035298814997077,colour,0.5
007,64,0,2,6,4,254,444.72528008325025,445.71136709325947,"[23, 0, 231]",231,a,0.46276938053779304,colour,0.5
007,64,0,2,6,5,255,446.2220347954426,447.1993429865688,"[37, 0, 217]",217,a,0.4540330970194191,colour,0.5
007,64,0,2,6,6,256,447.7064960107673,448.6473502460867,"[83, 0, 171]",171,l,0.41749958461150527,colour,0.5
007,64,0,2,6,7,257,449.15978710283525,450.03934517642483,"[80, 0, 174]",174,l,0.35616679512895644,colour,0.5
007,64,0,2,6,8,258,450.550446896581,451.5833507280331,"[26, 0, 228]",228,a,0.5095476051792502,colour,0.5
007,64,0,2,6,9,259,452.0975571330637,453.0393751086667,"[9, 0, 245]",245,a,0.41859289980493486,colour,0.5
007,64,0,2,6,10,260,453.5506973823067,454.46341765043326,"[75, 0, 179]",179,l,0.38943887245841324,colour,0.5
007,64,0,2,6,11,261,454.9726982284337,456.10336517426185,"[98, 0, 156]",156,l,0.6073434087447822,colour,0.5
007,64,0,2,6,12,262,456.61342241591774,457.65536224725656,"[16, 0, 238]",238,a,0.5186631618998945,colour,0.5
007,64,0,2,6,13,263,458.1760119665414,459.0553518498782,"[38, 0, 216]",216,a,0.35595254320651293,colour,0.5
007,64,0,2,6,14,264,459.5668072432745,460.74337807670236,"[35, 0, 219]",219,a,0.6469760928303003,colour,0.5
007,64,0,2,6,15,265,461.25590473017655,461.99132712581195,"[96, 0, 158]",158,l,0.21213194145821035,colour,0.5
007,64,0,2,6,16,266,462.5060833392199,463.50331854308024,"[49, 0, 205]",205,a,0.4751570066437125,colour,0.5
007,64,0,2,6,17,267,464.0124577304814,464.99950099759735,"[32, 0, 222]",222,a,0.46385875763371587,colour,0.5
007,64,0,2,6,18,268,465.50756892492063,466.7513183981646,"[45, 0, 209]",209,a,0.718722159974277,colour,0.5
007,64,0,2,6,19,269,467.2596068789717,468.3913403588813,"[58, 0, 196]",196,a,0.6085284904111177,colour,0.5
007,64,0,2,6,20,270,468.9002621434629,469.9113292051479,"[29, 0, 225]",225,a,0.48775297682732344,colour,0.5
007,64,0,2,6,21,271,470.4316374603659,471.51931379479356,"[47, 0, 207]",207,a,0.5643488590139896,colour,0.5
007,64,0,2,6,22,272,472.02549008163624,473.0073393129278,"[14, 0, 240]",240,a,0.4584768572822213,colour,0.5
007,64,0,2,6,23,273,473.52698433189653,474.4792774191592,"[64, 0, 190]",190,a,0.4289313470944762,colour,0.5
007,64,0,2,6,24,274,474.9958843132481,475.9192998528015,"[17, 0, 237]",237,a,0.4001136638689786,colour,0.5
007,64,0,2,6,25,275,476.4335940852761,477.7833006309811,"[91, 0, 163]",163,l,0.8365099607035518,colour,0.5
007,64,0,2,6,26,276,478.2993525965139,479.38330197008327,"[99, 0, 155]",155,l,0.560709725599736,colour,0.5
007,64,0,2,6,27,277,479.8950401446782,481.07930199522525,"[77, 0, 177]",177,l,0.6610336240846664,colour,0.5
007,64,0,2,6,28,278,481.5983101660386,482.61533532408066,"[41, 0, 213]",213,a,0.4937413993757218,colour,0.5
007,64,0,2,6,29,279,483.12969572260045,484.1193458538037,"[97, 0, 157]",157,l,0.46639236621558666,colour,0.5
007,64,0,2,6,30,280,484.6297516487539,485.6392933463212,"[92, 0, 162]",162,l,0.4861866529099643,colour,0.5
007,64,0,2,6,31,281,486.14558384846896,487.19928981759585,"[94, 0, 160]",160,l,0.5304462350904942,colour,0.5
007,64,0,2,6,32,282,487.70819230377674,488.75943634379655,"[40, 0, 214]",214,a,0.5264164065010846,colour,0.5
007,64,0,2,6,33,283,489.2723304552492,490.2553052972071,"[70, 0, 184]",184,a,0.4598836738150567,colour,0.5
007,64,0,2,6,34,284,490.77323472476564,491.7753118665423,"[71, 0, 183]",183,l,0.480071805883199,colour,0.5
007,64,0,2,6,35,285,492.28758291434497,493.2793086117599,"[78, 0, 176]",176,l,0.4696238695178181,colour,0.5
007,64,0,2,6,36,286,493.786630989518,494.7592575380113,"[10, 0, 244]",244,a,0.4493286113720387,colour,0.5
007,64,0,2,6,37,287,495.27182081900537,496.34329276974313,"[63, 0, 191]",191,a,0.5480408936273307,colour,0.5
007,64,0,2,6,38,288,496.85032606474124,497.8392597907223,"[59, 0, 195]",195,a,0.46582365315407515,colour,0.5
007,64,0,2,6,39,289,498.35002044052817,499.3033178341575,"[3, 0, 251]",251,a,0.4300605026073754,colour,0.5
007,64,0,2,6,40,290,499.82251544459723,500.8072925240267,"[93, 0, 161]",161,l,0.4616961511783302,colour,0.5
007,64,0,2,6,41,291,501.32280492107384,502.32728885347024,"[61, 0, 193]",193,a,0.4811765430495143,colour,0.5
007,64,0,2,6,42,292,502.83857292402536,503.8312588171102,"[52, 0, 202]",202,a,0.4694722390267998,colour,0.5
007,64,0,2,6,43,293,504.3386316068936,505.32730933325365,"[13, 0, 241]",241,a,0.465392392128706,colour,0.5
007,64,0,2,6,44,294,505.83878993289545,506.82326335739344,"[15, 0, 239]",239,a,0.46120226895436645,colour,0.5
007,64,0,2,6,45,295,507.33888012357056,508.25524661433883,"[6, 0, 248]",248,a,0.3908110305201262,colour,0.5
007,64,0,2,6,46,296,508.76307350816205,509.70353704853915,"[88, 0, 166]",166,l,0.41712779412046075,colour,0.5
007,64,0,2,6,47,297,510.21631300635636,511.1272582123056,"[57, 0, 197]",197,a,0.38769571180455387,colour,0.5
007,64,0,2,6,48,298,511.63824217254296,512.5992487000767,"[28, 0, 226]",226,a,0.437693624291569,colour,0.5
007,64,0,2,6,49,299,513.1071957168169,513.9912558395881,"[22, 0, 232]",232,a,0.36084843799471855,colour,0.5
007,64,0,2,6,50,300,514.4979130120482,515.4792514254805,"[46, 0, 208]",208,a,0.4580806486774236,colour,0.5
007,64,0,2,7,1,301,528.0776580837555,528.7112686317414,"[99, 0, 155]",155,l,0.10947883990593255,colour,0.5
007,64,0,2,7,2,302,529.2192664546892,530.1596208999399,"[19, 0, 235]",235,a,0.4171585142612457,colour,0.5
007,64,0,2,7,3,303,530.6724161561579,531.5752442039084,"[39, 0, 215]",215,a,0.37953011062927544,colour,0.5
007,64,0,2,7,4,304,532.0944012482651,533.0072833867744,"[27, 0, 227]",227,a,0.3896066506858915,colour,0.5
007,64,0,2,7,5,305,533.5165139464661,534.3432352682576,"[12, 0, 242]",242,a,0.3035198769066483,colour,0.5
007,64,0,2,7,6,306,534.8602557003032,535.8152596268337,"[62, 0, 192]",192,a,0.43162091891281307,colour,0.5
007,64,0,2,7,7,307,536.329109207727,537.1832177657634,"[7, 0, 247]",247,a,0.33083740225993097,colour,0.5
007,64,0,2,7,8,308,537.704256210709,538.7032621444669,"[18, 0, 236]",236,a,0.47414324805140495,colour,0.5
007,64,0,2,7,9,309,539.2215653313324,540.1752561768517,"[95, 0, 159]",159,l,0.4303996036760509,colour,0.5
007,64,0,2,7,10,310,540.6904089928139,541.7512987058144,"[28, 0, 226]",226,a,0.5375224589370191,colour,0.5
007,64,0,2,7,11,311,542.2686507557519,543.255215106532,"[89, 0, 165]",165,l,0.46357321948744357,colour,0.5
007,64,0,2,7,12,312,543.7687496109866,544.743236686103,"[40, 0, 214]",214,a,0.4511532981414348,colour,0.5
007,64,0,2,7,13,313,545.2430401572492,546.3192130492534,"[58, 0, 196]",196,a,0.5529710531700402,colour,0.5
007,64,0,2,7,14,314,546.8367923479527,547.7752086790279,"[22, 0, 232]",232,a,0.41560164256952703,colour,0.5
007,64,0,2,7,15,315,548.2856948184781,549.2792180273682,"[29, 0, 225]",225,a,0.4702233027201146,colour,0.5
007,64,0,2,7,16,316,549.7857980059925,550.8072322655935,"[56, 0, 198]",198,a,0.49815286393277347,colour,0.5
007,64,0,2,7,17,317,551.3171441780869,552.2391867716797,"[59, 0, 195]",195,a,0.398864385439083,colour,0.5
007,64,0,2,7,18,318,552.7548248055391,553.7991682768334,"[55, 0, 199]",199,a,0.5211172141134739,colour,0.5
007,64,0,2,7,19,319,554.3180232415907,555.1671937631909,"[50, 0, 204]",204,a,0.32593126758001745,colour,0.5
007,64,0,2,7,20,320,555.6774372938089,556.6231893931981,"[3, 0, 251]",251,a,0.42247424833476543,colour,0.5
007,64,0,2,7,21,321,557.1307449273299,558.0392837366089,"[61, 0, 193]",193,a,0.3852424474898726,colour,0.5
007,64,0,2,7,22,322,558.5526851210743,559.495180117432,"[37, 0, 217]",217,a,0.4192793727852404,colour,0.5
007,64,0,2,7,23,323,559.9935586550273,560.8952445504256,"[17, 0, 237]",237,a,0.37843837053515017,colour,0.5
007,64,0,2,7,24,324,561.4159746142104,562.3752127750777,"[60, 0, 194]",194,a,0.4359701559878886,colour,0.5
007,64,0,2,7,25,325,562.881632064702,563.8711920052301,"[66, 0, 188]",188,a,0.4627351160161197,colour,0.5
007,64,0,2,7,26,326,564.3852302380838,565.3512055219617,"[96, 0, 158]",158,l,0.4426308728288859,colour,0.5
007,64,0,2,7,27,327,565.8703019141685,566.7992245967034,"[44, 0, 210]",210,a,0.4058393912855536,colour,0.5
007,64,0,2,7,28,328,567.3079482768662,568.2231891569681,"[35, 0, 219]",219,a,0.3918815029319376,colour,0.5
007,64,0,2,7,29,329,568.7299558182713,569.6152309549507,"[48, 0, 206]",206,a,0.3623241775203496,colour,0.5
007,64,0,2,7,30,330,570.1362820027862,571.0471976702102,"[26, 0, 228]",228,a,0.38775990856811404,colour,0.5
007,64,0,2,7,31,331,571.5583943070378,572.5751867024228,"[85, 0, 169]",169,l,0.4934381381608546,colour,0.5
007,64,0,2,7,32,332,573.0917313687969,574.0871729997452,"[2, 0, 252]",252,a,0.47197394631803036,colour,0.5
007,64,0,2,7,33,333,574.6075182764325,575.5911772281397,"[94, 0, 160]",160,l,0.4604271808639169,colour,0.5
007,64,0,2,7,34,334,576.1043840530328,577.3351854579523,"[69, 0, 185]",185,l,0.7076728215906769,colour,0.5
007,64,0,2,7,35,335,577.8428445735481,578.8631740962155,"[71, 0, 183]",183,l,0.4970552164595574,colour,0.5
007,64,0,2,7,36,336,579.3742194965016,580.3511574727017,"[83, 0, 171]",171,l,0.45359002077020705,colour,0.5
007,64,0,2,7,37,337,580.8588276160881,581.7431693386752,"[54, 0, 200]",200,a,0.3611832067836076,colour,0.5
007,64,0,2,7,38,338,582.2494578715414,583.199201989919,"[97, 0, 157]",157,l,0.42640088917687535,colour,0.5
007,64,0,2,7,39,339,583.7183125605807,584.5511349448934,"[98, 0, 156]",156,l,0.309557136381045,colour,0.5
007,64,0,2,7,40,340,585.0621634095442,586.0791334293317,"[64, 0, 190]",190,a,0.4936594795435667,colour,0.5
007,64,0,2,7,41,341,586.5934308127034,587.3112148323562,"[0, 0, 254]",254,a,0.19381890818476677,colour,0.5
007,64,0,2,7,42,342,587.8286283223424,588.7511734629516,"[16, 0, 238]",238,a,0.39920072979293764,colour,0.5
007,64,0,2,7,43,343,589.2662668083794,590.1671850986313,"[33, 0, 221]",221,a,0.3778432698454708,colour,0.5
007,64,0,2,7,44,344,590.6882081835065,591.6711314318236,"[32, 0, 222]",222,a,0.45964460959658027,colour,0.5
007,64,0,2,7,45,345,592.1883598142304,593.1351989274845,"[73, 0, 181]",181,a,0.42351478850468993,colour,0.5
007,64,0,2,7,46,346,593.6429013661109,594.6151257981546,"[76, 0, 178]",178,a,0.44891822431236506,colour,0.5
007,64,0,2,7,47,347,595.1273791228887,595.9992245179601,"[6, 0, 248]",248,a,0.34857030119746923,colour,0.5
007,64,0,2,7,48,348,596.5181050826795,597.431142790243,"[14, 0, 240]",240,a,0.3897314995992929,colour,0.5
007,64,0,2,7,49,349,597.9400756026153,599.1031398947816,"[72, 0, 182]",182,l,0.6397561151534319,colour,0.5
007,64,0,2,7,50,350,599.6120892486069,600.6711546685547,"[30, 0, 224]",224,a,0.5365488727111369,colour,0.5
007,64,0,2,8,1,351,607.5508115976118,608.103134774603,"[26, 0, 228]",228,a,0.028246607165783644,colour,0.5
007,64,0,2,8,2,352,608.6017515889835,609.6391354142688,"[71, 0, 183]",183,a,0.5141051867976785,colour,0.5
007,64,0,2,8,3,353,610.1487385518849,610.9351355971303,"[94, 0, 160]",160,l,0.263174332678318,colour,0.5
007,64,0,2,8,4,354,611.4433610625565,612.4231678105425,"[67, 0, 187]",187,a,0.45636820793151855,colour,0.5
007,64,0,2,8,5,355,612.9434477086179,613.8311008850578,"[35, 0, 219]",219,a,0.3642997071146965,colour,0.5
007,64,0,2,8,6,356,614.3375977622345,615.2391328148078,"[61, 0, 193]",193,a,0.37839504750445485,colour,0.5
007,64,0,2,8,7,357,615.7596053036395,616.5191275058314,"[42, 0, 212]",212,a,0.23627585894428194,colour,0.5
007,64,0,2,8,8,358,617.0252659835387,617.7910889280029,"[83, 0, 171]",171,l,0.24245844734832644,colour,0.5
007,64,0,2,8,9,359,618.3066414971836,619.263101864839,"[81, 0, 173]",173,l,0.4331462827976793,colour,0.5
007,64,0,2,8,10,360,619.775500124786,620.6871176250279,"[17, 0, 237]",237,a,0.3869017190299928,colour,0.5
007,64,0,2,8,11,361,621.1989668640308,622.0711025234777,"[14, 0, 240]",240,a,0.3489275190513581,colour,0.5
007,64,0,2,8,12,362,622.5896558025852,623.5591816045344,"[82, 0, 172]",172,l,0.4462152619380504,colour,0.5
007,64,0,2,8,13,363,624.0741087470669,625.0391124137677,"[39, 0, 215]",215,a,0.44161041895858943,colour,0.5
007,64,0,2,8,14,364,625.5586558205541,626.4390972899273,"[47, 0, 207]",207,a,0.35510341194458306,colour,0.5
007,64,0,2,8,15,365,626.9514238699339,627.7751433006488,"[12, 0, 242]",242,a,0.30079052690416574,colour,0.5
007,64,0,2,8,16,366,628.2952416359913,628.999134327285,"[50, 0, 204]",204,a,0.18058648332953453,colour,0.5
007,64,0,2,8,17,367,629.514069346711,630.3591281203553,"[37, 0, 217]",217,a,0.3218017965555191,colour,0.5
007,64,0,2,8,18,368,630.8735712266061,631.7270988621749,"[75, 0, 179]",179,a,0.33030610461719334,colour,0.5
007,64,0,2,8,19,369,632.2487643093336,633.0791180692613,"[43, 0, 211]",211,a,0.30720193963497877,colour,0.5
007,64,0,2,8,20,370,633.5925954661798,634.5110965999775,"[58, 0, 196]",196,a,0.39519728906452656,colour,0.5
007,64,0,2,8,21,371,635.0301685738377,635.7671104255132,"[9, 0, 245]",245,a,0.2135875946842134,colour,0.5
007,64,0,2,8,22,372,636.2802073676139,637.039090752136,"[33, 0, 221]",221,a,0.23559293057769537,colour,0.5
007,64,0,2,8,23,373,637.5460173150059,638.4950655081775,"[93, 0, 161]",161,l,0.42580775753594935,colour,0.5
007,64,0,2,8,24,374,639.0147802380379,639.935130083235,"[46, 0, 208]",208,a,0.39695423445664346,colour,0.5
007,64,0,2,8,25,375,640.4525104900822,641.3671357892454,"[86, 0, 168]",168,l,0.3915219218470156,colour,0.5
007,64,0,2,8,26,376,641.8744628929999,643.2550587498117,"[70, 0, 184]",184,a,0.8573376981075853,colour,0.5
007,64,0,2,8,27,377,643.7663900819607,644.6870616991073,"[56, 0, 198]",198,a,0.39730121241882443,colour,0.5
007,64,0,2,8,28,378,645.204006906366,646.0551080594305,"[49, 0, 205]",205,a,0.32804267411120236,colour,0.5
007,64,0,2,8,29,379,646.5512444339693,647.2870740657672,"[4, 0, 250]",250,a,0.21242141793482006,colour,0.5
007,64,0,2,8,30,380,647.8014738489874,648.5030739649665,"[21, 0, 233]",233,a,0.1783817356918007,colour,0.5
007,64,0,2,8,31,381,649.020290925866,649.6950922110118,"[92, 0, 162]",162,l,0.15174359385855496,colour,0.5
007,64,0,2,8,32,382,650.2078421749175,650.9750742989127,"[77, 0, 177]",177,l,0.24387038382701576,colour,0.5
007,64,0,2,8,33,383,651.4892393501941,652.2390827964991,"[1, 0, 253]",253,a,0.22653723857365549,colour,0.5
007,64,0,2,8,34,384,652.7549398085102,653.6950496756472,"[36, 0, 218]",218,a,0.4168233515229076,colour,0.5
007,64,0,2,8,35,385,654.2081934851594,655.1831070953049,"[38, 0, 216]",216,a,0.45190514950081706,colour,0.5
007,64,0,2,8,36,386,655.6926444605924,656.5110658800695,"[32, 0, 222]",222,a,0.2950872485525906,colour,0.5
007,64,0,2,8,37,387,657.020913989516,657.9830315555446,"[18, 0, 236]",236,a,0.43893148098140955,colour,0.5
007,64,0,2,8,38,388,658.4897856139578,659.4630899708718,"[0, 0, 254]",254,a,0.44992410601116717,colour,0.5
007,64,0,2,8,39,389,659.9742838507518,660.9830473095644,"[69, 0, 185]",185,a,0.48540802020579576,colour,0.5
007,64,0,2,8,40,390,661.4900140445679,662.4391595176421,"[53, 0, 201]",201,a,0.4240854708477855,colour,0.5
007,64,0,2,8,41,391,662.9593437113799,663.8630594871938,"[48, 0, 206]",206,a,0.38034025114029646,colour,0.5
007,64,0,2,8,42,392,664.3813772464637,665.3830388812348,"[59, 0, 195]",195,a,0.47830501454882324,colour,0.5
007,64,0,2,8,43,393,665.8970629356336,666.8550388212316,"[73, 0, 181]",181,l,0.43538332590833306,colour,0.5
007,64,0,2,8,44,394,667.3659833970014,668.5110261016525,"[51, 0, 203]",203,l,0.6217494937591255,colour,0.5
007,64,0,2,8,45,395,669.0224263567943,670.0070254178718,"[76, 0, 178]",178,l,0.4613251485861838,colour,0.5
007,64,0,2,8,46,396,670.5224625905976,671.6390523128211,"[78, 0, 176]",176,l,0.5932590959127992,colour,0.5
007,64,0,2,8,47,397,672.1475672549568,673.1991051039658,"[68, 0, 186]",186,l,0.5282284903805703,colour,0.5
007,64,0,2,8,48,398,673.7114446808118,674.6870707573835,"[84, 0, 170]",170,l,0.45248331455513835,colour,0.5
007,64,0,2,8,49,399,675.1958168868441,676.263032942079,"[44, 0, 210]",210,a,0.5438980318140239,colour,0.5
007,64,0,2,8,50,400,676.7741909818724,677.8150642793626,"[41, 0, 213]",213,a,0.5176624001469463,colour,0.5
007,64,0,2,9,1,401,696.0418638191186,696.5990104235243,"[14, 0, 240]",240,a,0.03304916061460972,colour,0.5
007,64,0,2,9,2,402,697.1054088391829,698.0550080225803,"[48, 0, 206]",206,a,0.4264213691931218,colour,0.5
007,64,0,2,9,3,403,698.5742977929767,699.4229756137356,"[74, 0, 180]",180,l,0.32535231462679803,colour,0.5
007,64,0,2,9,4,404,699.933774860343,700.9429939985275,"[34, 0, 220]",220,a,0.4859704317059368,colour,0.5
007,64,0,2,9,5,405,701.4494223466609,702.3350070458837,"[82, 0, 172]",172,l,0.36228400538675487,colour,0.5
007,64,0,2,9,6,406,702.8558269063942,703.5510120650288,"[53, 0, 201]",201,a,0.17188604013063014,colour,0.5
007,64,0,2,9,7,407,704.0590780230705,704.9590562039521,"[47, 0, 207]",207,a,0.3767034807242453,colour,0.5
007,64,0,2,9,8,408,705.4653234693687,706.3990195607767,"[70, 0, 184]",184,l,0.41024809912778437,colour,0.5
007,64,0,2,9,9,409,706.9186330721714,707.8549687168561,"[62, 0, 192]",192,a,0.4105935017578304,colour,0.5
007,64,0,2,9,10,410,708.3743920007255,709.3910071656574,"[57, 0, 197]",197,a,0.49325460637919605,colour,0.5
007,64,0,2,9,11,411,709.9057712559588,710.8469988571014,"[30, 0, 224]",224,a,0.4179111532866955,colour,0.5
007,64,0,2,9,12,412,711.3495210441761,712.2869440966751,"[46, 0, 208]",208,a,0.42675456241704524,colour,0.5
007,64,0,2,9,13,413,712.8060184335336,713.76699384721,"[44, 0, 210]",210,a,0.4470466698985547,colour,0.5
007,64,0,2,9,14,414,714.2811470830347,715.1909883397166,"[75, 0, 179]",179,l,0.3865413502790034,colour,0.5
007,64,0,2,9,15,415,715.7030813691672,716.598986792611,"[2, 0, 252]",252,a,0.373329799156636,colour,0.5
007,64,0,2,9,16,416,717.1095532765612,718.0549859672319,"[96, 0, 158]",158,l,0.4208579061087221,colour,0.5
007,64,0,2,9,17,417,718.5640991607215,719.4630045064259,"[10, 0, 244]",244,a,0.3755495131481439,colour,0.5
007,64,0,2,9,18,418,719.9704623667058,720.95098630758,"[23, 0, 231]",231,a,0.4575040587224066,colour,0.5
007,64,0,2,9,19,419,721.4705356219783,722.2709590848535,"[32, 0, 222]",222,a,0.2772771562449634,colour,0.5
007,64,0,2,9,20,420,722.7830942559522,723.4870322393253,"[85, 0, 169]",169,l,0.19330060738138855,colour,0.5
007,64,0,2,9,21,421,723.9958433534484,724.6549880940001,"[13, 0, 241]",241,a,0.1358030866831541,colour,0.5
007,64,0,2,9,22,422,725.1593369371258,725.8549632029608,"[21, 0, 233]",233,a,0.17231454397551715,colour,0.5
007,64,0,2,9,23,423,726.3626498878002,727.0629554330371,"[93, 0, 161]",161,l,0.17705802037380636,colour,0.5
007,64,0,2,9,24,424,727.5814405768178,728.606981070945,"[86, 0, 168]",168,l,0.5022035662550479,colour,0.5
007,64,0,2,9,25,425,729.1284779519774,730.1269840956666,"[6, 0, 248]",248,a,0.47530351718887687,colour,0.5
007,64,0,2,9,26,426,730.6443731670734,731.7190525964834,"[90, 0, 164]",164,l,0.5515043721534312,colour,0.5
007,64,0,2,9,27,427,732.239313196158,733.2069319977891,"[0, 0, 254]",254,a,0.44422003999352455,colour,0.5
007,64,0,2,9,28,428,733.7238925651181,734.8071074166801,"[77, 0, 177]",177,l,0.5599496036302298,colour,0.5
007,64,0,2,9,29,429,735.3177475496195,736.3669550141785,"[83, 0, 171]",171,l,0.5258949552662671,colour,0.5
007,64,0,2,9,30,430,736.880341432523,737.9429270448163,"[73, 0, 181]",181,l,0.5392033921089023,colour,0.5
007,64,0,2,9,31,431,738.4586737800855,739.422966949176,"[56, 0, 198]",198,a,0.4410984197165817,colour,0.5
007,64,0,2,9,32,432,739.9431747735944,740.9269408513792,"[41, 0, 213]",213,a,0.4607087802141905,colour,0.5
007,64,0,2,9,33,433,741.4433941456955,742.4549397297669,"[94, 0, 160]",160,l,0.48805663199163973,colour,0.5
007,64,0,2,9,34,434,742.9768848072272,743.9749462991022,"[28, 0, 226]",226,a,0.4755630614235997,colour,0.5
007,64,0,2,9,35,435,744.4926378438249,745.4869550454896,"[4, 0, 250]",250,a,0.4717317312024534,colour,0.5
007,64,0,2,9,36,436,745.9927130683791,747.0629570086021,"[51, 0, 203]",203,a,0.547748266486451,colour,0.5
007,64,0,2,9,37,437,747.5708866959903,748.7029738493729,"[59, 0, 195]",195,a,0.6094504829961807,colour,0.5
007,64,0,2,9,38,438,749.2116085204761,750.2550717468839,"[7, 0, 247]",247,a,0.5209088698029518,colour,0.5
007,64,0,2,9,39,439,750.7743264648598,751.7909392665606,"[11, 0, 243]",243,a,0.4941234295256436,colour,0.5
007,64,0,2,9,40,440,752.3059735351708,753.2709370295051,"[26, 0, 228]",228,a,0.4420326214749366,colour,0.5
007,64,0,2,9,41,441,753.7901740246452,754.8790023576003,"[61, 0, 193]",193,l,0.5659498414024711,colour,0.5
007,64,0,2,9,42,442,755.3997143043671,756.6629114800598,"[99, 0, 155]",155,l,0.7407235575374216,colour,0.5
007,64,0,2,9,43,443,757.1811713441275,758.2312184872571,"[64, 0, 190]",190,l,0.5265948185697198,colour,0.5
007,64,0,2,9,44,444,758.7439239467494,759.7909282390028,"[17, 0, 237]",237,a,0.5236394014209509,colour,0.5
007,64,0,2,9,45,445,760.3066119588912,761.270944512682,"[24, 0, 230]",230,a,0.43799058394506574,colour,0.5
007,64,0,2,9,46,446,761.778477597516,762.918922548648,"[63, 0, 191]",191,l,0.6170808479655534,colour,0.5
007,64,0,2,9,47,447,763.434778772993,764.3750426336192,"[25, 0, 229]",229,a,0.4169033020734787,colour,0.5
007,64,0,2,9,48,448,764.8880600188859,765.8948948155157,"[65, 0, 189]",189,l,0.48346636118367314,colour,0.5
007,64,0,2,9,49,449,766.4038780401461,767.3428930165246,"[31, 0, 223]",223,a,0.4159789467230439,colour,0.5
007,64,0,2,9,50,450,767.8584408597089,768.9829287619796,"[55, 0, 199]",199,l,0.6011068637017161,colour,0.5
007,64,0,2,10,1,451,776.890985110309,777.8628747735638,"[53, 0, 201]",201,a,0.44777646590955555,colour,0.5
007,64,0,2,10,2,452,778.3763281458523,779.2149396666791,"[4, 0, 250]",250,a,0.3152962545864284,colour,0.5
007,64,0,2,10,3,453,779.7357488933485,780.6949464881327,"[82, 0, 172]",172,l,0.43588626687414944,colour,0.5
007,64,0,2,10,4,454,781.2045831026044,782.2069083671086,"[69, 0, 185]",185,l,0.4789690382312983,colour,0.5
007,64,0,2,10,5,455,782.7203853700776,783.895629337756,"[71, 0, 183]",183,l,0.6515832988079637,colour,0.5
007,64,0,2,10,6,456,784.4079937266652,785.3028885424137,"[99, 0, 155]",155,l,0.3716784045100212,colour,0.5
007,64,0,2,10,7,457,785.814336452866,786.7348682547454,"[48, 0, 206]",206,a,0.3975442152004689,colour,0.5
007,64,0,2,10,8,458,787.2520009325817,788.1589178855065,"[88, 0, 166]",166,l,0.38378758169710636,colour,0.5
007,64,0,2,10,9,459,788.6743420611601,789.6629366860725,"[98, 0, 156]",156,l,0.4653116539120674,colour,0.5
007,64,0,2,10,10,460,790.174498811597,791.1828853602055,"[81, 0, 173]",173,l,0.48506340524181724,colour,0.5
007,64,0,2,10,11,461,791.6903495220467,792.6068979694974,"[95, 0, 159]",159,l,0.3933714209124446,colour,0.5
007,64,0,2,10,12,462,793.1278060514014,794.1348814878147,"[83, 0, 171]",171,l,0.4837192101404071,colour,0.5
007,64,0,2,10,13,463,794.6435669651255,795.6948968635406,"[0, 0, 254]",254,a,0.527955555357039,colour,0.5
007,64,0,2,10,14,464,796.2061486388557,797.230864814017,"[46, 0, 208]",208,a,0.501365068834275,colour,0.5
007,64,0,2,10,15,465,797.7375672785565,798.8709135563113,"[55, 0, 199]",199,a,0.6088510500267148,colour,0.5
007,64,0,2,10,16,466,799.3795151445083,800.3428823826835,"[9, 0, 245]",245,a,0.4404099774546921,colour,0.5
007,64,0,2,10,17,467,800.8639381567482,801.8548801015131,"[86, 0, 168]",168,l,0.46762195229530334,colour,0.5
007,64,0,2,10,18,468,802.3641335042194,803.4628930480685,"[73, 0, 181]",181,l,0.5758007077965885,colour,0.5
007,64,0,2,10,19,469,803.9735950147733,805.254857101012,"[66, 0, 188]",188,a,0.758370203897357,colour,0.5
007,64,0,2,10,20,470,805.7705884762108,806.7509139187168,"[6, 0, 248]",248,a,0.457300046691671,colour,0.5
007,64,0,2,10,21,471,807.270671183709,808.1828770893626,"[35, 0, 219]",219,a,0.389383340254426,colour,0.5
007,64,0,2,10,22,472,808.6927039311267,809.7908778267447,"[61, 0, 193]",193,a,0.5750606718938798,colour,0.5
007,64,0,2,10,23,473,810.3021764694713,811.2068512593396,"[36, 0, 218]",218,a,0.3814256894402206,colour,0.5
007,64,0,2,10,24,474,811.7248244038783,812.6148197802249,"[28, 0, 226]",226,a,0.36632998124696314,colour,0.5
007,64,0,2,10,25,475,813.1322675345,814.286837364547,"[89, 0, 165]",165,l,0.6312640160322189,colour,0.5
007,64,0,2,10,26,476,814.8042307682335,815.8308637898881,"[39, 0, 215]",215,a,0.5039293975569308,colour,0.5
007,64,0,2,10,27,477,816.3512925617397,817.3428682042286,"[13, 0, 241]",241,a,0.4683454467449337,colour,0.5
007,64,0,2,10,28,478,817.8513579401188,818.9428671803325,"[3, 0, 251]",251,a,0.5681687677279115,colour,0.5
007,64,0,2,10,29,479,819.4609446937684,820.4468651069328,"[33, 0, 221]",221,a,0.4627808020450175,colour,0.5
007,64,0,2,10,30,480,820.961008890532,822.2948178581428,"[59, 0, 195]",195,a,0.8105141811538488,colour,0.5
007,64,0,2,10,31,481,822.8053268406074,823.7588944123127,"[18, 0, 236]",236,a,0.43106480897404253,colour,0.5
007,64,0,2,10,32,482,824.2741578989662,825.3028456133325,"[96, 0, 158]",158,l,0.5055823677685112,colour,0.5
007,64,0,2,10,33,483,825.8211838526186,827.3748401971534,"[75, 0, 179]",179,l,1.0304927087854594,colour,0.5
007,64,0,2,10,34,484,827.8838013662025,828.8308594576083,"[49, 0, 205]",205,a,0.42373179737478495,colour,0.5
007,64,0,2,10,35,485,829.3371089999564,831.1508519274648,"[68, 0, 186]",186,l,1.2907545531634241,colour,0.5
007,64,0,2,10,36,486,831.6653371751308,832.622811695328,"[14, 0, 240]",240,a,0.43416594923473895,colour,0.5
007,64,0,2,10,37,487,833.1359937079251,834.5268622399308,"[11, 0, 243]",243,a,0.8675678379368037,colour,0.5
007,64,0,2,10,38,488,835.0431702050846,836.2708176942542,"[40, 0, 214]",214,a,0.7050797417759895,colour,0.5
007,64,0,2,10,39,489,836.7782924901694,837.734822174767,"[42, 0, 212]",212,a,0.4331577045377344,colour,0.5
007,64,0,2,10,40,490,838.2473389820661,839.9668208702933,"[93, 0, 161]",161,l,1.1961910403333604,colour,0.5
007,64,0,2,10,41,491,840.4818811325822,841.5268409722485,"[97, 0, 157]",157,l,0.5216327579692006,colour,0.5
007,64,0,2,10,42,492,842.045122497715,843.470940889325,"[70, 0, 184]",184,a,0.9003806912805885,colour,0.5
007,64,0,2,10,43,493,843.9849661253393,845.0788384389598,"[74, 0, 180]",180,l,0.5705779211129993,colour,0.5
007,64,0,2,10,44,494,845.5950282504782,846.5348391889129,"[91, 0, 163]",163,l,0.41646810295060277,colour,0.5
007,64,0,2,10,45,495,847.0502070444636,848.1987975104712,"[12, 0, 242]",242,a,0.6253484548069537,colour,0.5
007,64,0,2,10,46,496,848.7065298813395,849.8947849327233,"[32, 0, 222]",222,a,0.6648933112155646,colour,0.5
007,64,0,2,10,47,497,850.409874339588,851.3827765800525,"[29, 0, 225]",225,a,0.44958776189014316,colour,0.5
007,64,0,2,10,48,498,851.8943032594398,852.9427730510943,"[5, 0, 249]",249,a,0.5253203343600035,colour,0.5
007,64,0,2,10,49,499,853.4569763054606,854.5108437512536,"[17, 0, 237]",237,a,0.5306486717890948,colour,0.5
007,64,0,2,10,50,500,855.0195327729452,856.1588324210607,"[45, 0, 209]",209,a,0.61638413509354,colour,0.5
007,64,0,2,11,1,501,863.7284820480272,866.3507616580464,"[39, 0, 215]",215,a,2.0981727140024304,colour,0.5
007,64,0,2,11,2,502,866.8702704063617,867.7588554215617,"[26, 0, 228]",228,a,0.3655288992449641,colour,0.5
007,64,0,2,11,3,503,868.2764788311906,870.0387540142983,"[37, 0, 217]",217,a,1.2388551540207118,colour,0.5
007,64,0,2,11,4,504,870.557924449211,871.6308418135159,"[43, 0, 211]",211,a,0.5495902826078236,colour,0.5
007,64,0,2,11,5,505,872.1517668308225,873.1987821506336,"[4, 0, 250]",250,a,0.5237571611069143,colour,0.5
007,64,0,2,11,6,506,873.714482411975,874.8707694087643,"[50, 0, 204]",204,a,0.6330701918341219,colour,0.5
007,64,0,2,11,7,507,875.3889241160359,876.6388152178843,"[80, 0, 174]",174,l,0.7266880813986063,colour,0.5
007,64,0,2,11,8,508,877.1546072452329,878.1987640336156,"[2, 0, 252]",252,a,0.5210329310502857,colour,0.5
007,64,0,2,11,9,509,878.7171389006544,879.7027430557646,"[36, 0, 218]",218,a,0.46222193515859544,colour,0.5
007,64,0,2,11,10,510,880.2173181003891,881.2467490013223,"[23, 0, 231]",231,a,0.5062389082740992,colour,0.5
007,64,0,2,11,11,511,881.7519150741864,882.7507910388522,"[94, 0, 160]",160,l,0.4756812150590122,colour,0.5
007,64,0,2,11,12,512,883.2687334632501,884.4467599501368,"[69, 0, 185]",185,l,0.6550711954478174,colour,0.5
007,64,0,2,11,13,513,884.9563843554351,886.0787636083551,"[89, 0, 165]",165,l,0.5991238511633128,colour,0.5
007,64,0,2,11,14,514,886.5970124446321,887.7907021716237,"[98, 0, 156]",156,l,0.6697860553395003,colour,0.5
007,64,0,2,11,15,515,888.3007420839276,889.550749369897,"[19, 0, 235]",235,a,0.7265888322144747,colour,0.5
007,64,0,2,11,16,516,890.0666059881914,891.1510579085443,"[28, 0, 226]",226,a,0.5612886785529554,colour,0.5
007,64,0,2,11,17,517,891.660407015821,892.6547332757618,"[48, 0, 206]",206,a,0.471351670101285,colour,0.5
007,64,0,2,11,18,518,893.1605444678571,894.2627182593569,"[92, 0, 162]",162,l,0.5795934409834445,colour,0.5
007,64,0,2,11,19,519,894.7707909129094,896.1187243654858,"[96, 0, 158]",158,l,0.825238099321723,colour,0.5
007,64,0,2,11,20,520,896.6303991309833,897.8867532392032,"[25, 0, 229]",229,a,0.7337292532902211,colour,0.5
007,64,0,2,11,21,521,898.3960503586568,899.5188207002357,"[31, 0, 223]",223,a,0.5999619546346366,colour,0.5
007,64,0,2,11,22,522,900.0376697571483,901.254742885707,"[54, 0, 200]",200,a,0.694467178080231,colour,0.5
007,64,0,2,11,23,523,901.7721957601607,902.7751275468618,"[49, 0, 205]",205,a,0.4794637083541602,colour,0.5
007,64,0,2,11,24,524,903.287639234215,904.4307902983855,"[0, 0, 254]",254,a,0.6193017431069165,colour,0.5
007,64,0,2,11,25,525,904.9440128770657,906.0067138860468,"[20, 0, 234]",234,a,0.5385945066809654,colour,0.5
007,64,0,2,11,26,526,906.5236488534138,907.4947354656179,"[32, 0, 222]",222,a,0.4479926871135831,colour,0.5
007,64,0,2,11,27,527,908.0081281857565,908.9108132675756,"[21, 0, 233]",233,a,0.3800460484344512,colour,0.5
007,64,0,2,11,28,528,909.4301113085821,910.3667549404781,"[24, 0, 230]",230,a,0.41386596485972404,colour,0.5
007,64,0,2,11,29,529,910.8833484437782,911.9587769676,"[40, 0, 214]",214,a,0.5529785363469273,colour,0.5
007,64,0,2,11,30,530,912.4772085482255,913.6547253988683,"[57, 0, 197]",197,a,0.6547829003538936,colour,0.5
007,64,0,2,11,31,531,914.1648720435333,915.2707885496784,"[82, 0, 172]",172,l,0.5819336716085672,colour,0.5
007,64,0,2,11,32,532,915.7901988369413,916.7027083975263,"[44, 0, 210]",210,a,0.3892344667110592,colour,0.5
007,64,0,2,11,33,533,917.2140133418143,918.4707120649982,"[72, 0, 182]",182,l,0.7333716414868832,colour,0.5
007,64,0,2,11,34,534,918.9798130493145,920.2066972658504,"[99, 0, 155]",155,l,0.7035996702034026,colour,0.5
007,64,0,2,11,35,535,920.7143548058812,921.7667043707334,"[42, 0, 212]",212,a,0.5291721443645656,colour,0.5
007,64,0,2,11,36,536,922.276899458142,923.3507399964146,"[59, 0, 195]",195,a,0.5632850818801671,colour,0.5
007,64,0,2,11,37,537,923.8606853857636,924.9986932200845,"[22, 0, 232]",232,a,0.6154519023839384,colour,0.5
007,64,0,2,11,38,538,925.5170125549193,926.6786932675168,"[55, 0, 199]",199,a,0.6383532369509339,colour,0.5
007,64,0,2,11,39,539,927.1891266314778,928.4147072189953,"[66, 0, 188]",188,l,0.7022952535189688,colour,0.5
007,64,0,2,11,40,540,928.9236215206329,929.9750274312682,"[16, 0, 238]",238,a,0.52644043113105,colour,0.5
007,64,0,2,11,41,541,930.4878136289772,931.6706974138506,"[81, 0, 173]",173,l,0.6597548073623329,colour,0.5
007,64,0,2,11,42,542,932.1910678965505,933.2386854062788,"[60, 0, 194]",194,a,0.524288852699101,colour,0.5
007,64,0,2,11,43,543,933.7536854101345,934.7667213061359,"[76, 0, 178]",178,l,0.4899553614668548,colour,0.5
007,64,0,2,11,44,544,935.286477783462,936.494659059681,"[51, 0, 203]",203,a,0.6850719910580665,colour,0.5
007,64,0,2,11,45,545,937.0054244354833,938.1347054387443,"[52, 0, 202]",202,a,0.6060559274628758,colour,0.5
007,64,0,2,11,46,546,938.6461462599691,939.6786538828164,"[85, 0, 169]",169,l,0.5092746701557189,colour,0.5
007,64,0,2,11,47,547,940.1931233766954,941.3106925932225,"[68, 0, 186]",186,l,0.5942535563372076,colour,0.5
007,64,0,2,11,48,548,941.8190626001451,942.8067108141258,"[87, 0, 167]",167,l,0.46448497218079865,colour,0.5
007,64,0,2,11,49,549,943.318669936154,944.2306840389501,"[93, 0, 161]",161,l,0.3886791442055255,colour,0.5
007,64,0,2,11,50,550,944.7282717344351,945.8386768992059,"[34, 0, 220]",220,a,0.5871273137163371,colour,0.5
007,64,0,2,12,1,551,952.9976578000933,954.0146557828411,"[47, 0, 207]",207,a,0.4929529204964638,colour,0.5
007,64,0,2,12,2,552,954.53143596882,955.4946736318525,"[60, 0, 194]",194,a,0.4399558734148741,colour,0.5
007,64,0,2,12,3,553,956.0034721428528,957.1186235409696,"[13, 0, 241]",241,a,0.5919621624052525,colour,0.5
007,64,0,2,12,4,554,957.628529545851,958.7186508739833,"[82, 0, 172]",172,l,0.5666969665326178,colour,0.5
007,64,0,2,12,5,555,959.2381198441144,960.318747917423,"[28, 0, 226]",226,a,0.55782047403045,colour,0.5
007,64,0,2,12,6,556,960.8329133626539,961.8946451174561,"[42, 0, 212]",212,a,0.538369620917365,colour,0.5
007,64,0,2,12,7,557,962.4111578823067,963.3666505713481,"[30, 0, 224]",224,a,0.4306284277699888,colour,0.5
007,64,0,2,12,8,558,963.8802697525825,965.0466454986017,"[88, 0, 166]",166,l,0.6438146939035505,colour,0.5
007,64,0,2,12,9,559,965.5679100109264,966.4786665646825,"[0, 0, 254]",254,a,0.3874121429398656,colour,0.5
007,64,0,2,12,10,560,966.9899888383225,968.0786474237684,"[44, 0, 210]",210,a,0.5654535959474742,colour,0.5
007,64,0,2,12,11,561,968.5997272224631,969.7186067632865,"[1, 0, 253]",253,a,0.5959541816264391,colour,0.5
007,64,0,2,12,12,562,970.2258105932269,971.4706557448953,"[62, 0, 192]",192,l,0.7216381928883493,colour,0.5
007,64,0,2,12,13,563,971.9914413408842,972.9586210045964,"[98, 0, 156]",156,l,0.4437698742840439,colour,0.5
007,64,0,2,12,14,564,973.4759754177649,974.6466468377039,"[77, 0, 177]",177,l,0.6473443382419646,colour,0.5
007,64,0,2,12,15,565,975.163569202181,976.2866183863953,"[71, 0, 183]",183,a,0.599757548654452,colour,0.5
007,64,0,2,12,16,566,976.8043402573094,977.7506149897818,"[66, 0, 188]",188,a,0.4216286619193852,colour,0.5
007,64,0,2,12,17,567,978.2588951999787,979.358593277866,"[68, 0, 186]",186,a,0.5763469715602696,colour,0.5
007,64,0,2,12,18,568,979.8683752212673,980.8466436082963,"[8, 0, 246]",246,a,0.45571442414075136,colour,0.5
007,64,0,2,12,19,569,981.3529219010379,982.3265937159304,"[55, 0, 199]",199,a,0.45044476981274784,colour,0.5
007,64,0,2,12,20,570,982.83778365748,983.8946364528965,"[25, 0, 229]",229,a,0.533773836446926,colour,0.5
007,64,0,2,12,21,571,984.4160616539884,985.5105668776669,"[92, 0, 162]",162,l,0.5711805049795657,colour,0.5
007,64,0,2,12,22,572,986.0255645185243,987.2306611959357,"[33, 0, 221]",221,a,0.6826140007469803,colour,0.5
007,64,0,2,12,23,573,987.747793086106,988.7586045418866,"[94, 0, 160]",160,l,0.48748201108537614,colour,0.5
007,64,0,2,12,24,574,989.2791601319332,990.222615323728,"[53, 0, 201]",201,a,0.4328650771640241,colour,0.5
007,64,0,2,12,25,575,990.7355779644568,991.7267239212524,"[31, 0, 223]",223,a,0.46786968130618334,colour,0.5
007,64,0,2,12,26,576,992.2357232933864,994.1986427290831,"[38, 0, 216]",216,a,1.4396813630592078,colour,0.5
007,64,0,2,12,27,577,994.7046752623282,996.2385979725514,"[9, 0, 245]",245,a,1.0106235914863646,colour,0.5
007,64,0,2,12,28,578,996.7524046243634,997.822606028989,"[96, 0, 158]",158,l,0.5470105935819447,colour,0.5
007,64,0,2,12,29,579,998.3306168487761,999.4386211307719,"[57, 0, 197]",197,a,0.5847461232915521,colour,0.5
007,64,0,2,12,30,580,999.9556588919368,1001.2865833342075,"[52, 0, 202]",202,a,0.8076343822758645,colour,0.5
007,64,0,2,12,31,581,1001.7996208053082,1003.0945950204041,"[48, 0, 206]",206,a,0.771768043981865,colour,0.5
007,64,0,2,12,32,582,1003.6136130371597,1004.8625687556341,"[79, 0, 175]",175,l,0.7256097320932895,colour,0.5
007,64,0,2,12,33,583,1005.3793615447357,1006.3745865605306,"[7, 0, 247]",247,a,0.4718806049786508,colour,0.5
007,64,0,2,12,34,584,1006.8951133999508,1007.9025456605013,"[56, 0, 198]",198,a,0.4827086024452001,colour,0.5
007,64,0,2,12,35,585,1008.4119042197708,1009.4545907825232,"[11, 0, 243]",243,a,0.5318345406558365,colour,0.5
007,64,0,2,12,36,586,1009.9495251402259,1011.0305415454786,"[35, 0, 219]",219,a,0.5638695487286896,colour,0.5
007,64,0,2,12,37,587,1011.5371746933088,1012.51057081623,"[32, 0, 222]",222,a,0.45026478241197765,colour,0.5
007,64,0,2,12,38,588,1013.0108189389575,1013.990782831097,"[17, 0, 237]",237,a,0.46416280628181994,colour,0.5
007,64,0,2,12,39,589,1014.5037218409125,1017.0065386248752,"[51, 0, 203]",203,a,1.9797165573108941,colour,0.5
007,64,0,2,12,40,590,1017.5195300159976,1018.4705943050794,"[4, 0, 250]",250,a,0.4278403948992491,colour,0.5
007,64,0,2,12,41,591,1018.9884248774033,1019.9905847266782,"[58, 0, 196]",196,a,0.48890694440342486,colour,0.5
007,64,0,2,12,42,592,1020.5098355063237,1021.5345812200103,"[49, 0, 205]",205,a,0.5016171301249415,colour,0.5
007,64,0,2,12,43,593,1022.0367064108141,1023.1985844399314,"[65, 0, 189]",189,l,0.6386777656152844,colour,0.5
007,64,0,2,12,44,594,1023.7086771277245,1024.9505747389048,"[91, 0, 163]",163,l,0.7185220865067095,colour,0.5
007,64,0,2,12,45,595,1025.4650647128,1026.7425781763159,"[54, 0, 200]",200,a,0.7549417777918279,colour,0.5
007,64,0,2,12,46,596,1027.2614039964974,1028.942568645347,"[72, 0, 182]",182,l,1.1583696524612606,colour,0.5
007,64,0,2,12,47,597,1029.4499812135473,1030.454635680886,"[22, 0, 232]",232,a,0.4812982410658151,colour,0.5
007,64,0,2,12,48,598,1030.9656665087678,1032.062561193714,"[19, 0, 235]",235,a,0.5735754801426083,colour,0.5
007,64,0,2,12,49,599,1032.5752249055076,1033.638522196561,"[6, 0, 248]",248,a,0.5401171138510108,colour,0.5
007,64,0,2,12,50,600,1034.155593040865,1035.2945638278034,"[78, 0, 176]",176,l,0.6157228683587164,colour,0.5
007,64,0,2,13,1,601,1048.782288447721,1050.0945008911658,"[69, 0, 185]",185,l,0.7881886488758028,colour,0.5
007,64,0,2,13,2,602,1050.5989836419467,1051.6865185860079,"[33, 0, 221]",221,a,0.5642889945302159,colour,0.5
007,64,0,2,13,3,603,1052.1928193280473,1053.1664958689362,"[88, 0, 166]",166,l,0.45050620986148715,colour,0.5
007,64,0,2,13,4,604,1053.6772561247926,1054.6545473807491,"[91, 0, 163]",163,l,0.45401616184972227,colour,0.5
007,64,0,2,13,5,605,1055.163762186421,1056.1665939365048,"[65, 0, 189]",189,a,0.47959013283252716,colour,0.5
007,64,0,2,13,6,606,1056.6794305464718,1057.7425139795523,"[3, 0, 251]",251,a,0.5397524130530655,colour,0.5
007,64,0,2,13,7,607,1058.2579523336608,1059.3345226156525,"[19, 0, 235]",235,a,0.5534877784084529,colour,0.5
007,64,0,2,13,8,608,1059.851541472366,1060.8945364160463,"[64, 0, 190]",190,l,0.519689129665494,colour,0.5
007,64,0,2,13,9,609,1061.4156607191544,1062.3744924312923,"[83, 0, 171]",171,l,0.43559521483257413,colour,0.5
007,64,0,2,13,10,610,1062.8845158021431,1064.2467056782916,"[49, 0, 205]",205,a,0.8389273851644248,colour,0.5
007,64,0,2,13,11,611,1064.7596155435313,1065.8226528966334,"[8, 0, 246]",246,a,0.5395582469645888,colour,0.5
007,64,0,2,13,12,612,1066.3387966284063,1067.4225293868221,"[93, 0, 161]",161,l,0.5721123437397182,colour,0.5
007,64,0,2,13,13,613,1067.9324523268733,1068.9265867841896,"[90, 0, 164]",164,l,0.4707144279964268,colour,0.5
007,64,0,2,13,14,614,1069.4482998866588,1070.5104802316055,"[71, 0, 183]",183,a,0.5508557083085179,colour,0.5
007,64,0,2,13,15,615,1071.0160519655328,1071.9265151042491,"[73, 0, 181]",181,l,0.38718528766185045,colour,0.5
007,64,0,2,13,16,616,1072.4382190143224,1073.5985240240116,"[30, 0, 224]",224,a,0.6371594907250255,colour,0.5
007,64,0,2,13,17,617,1074.1102653495036,1075.1345163930673,"[92, 0, 162]",162,l,0.500726645346731,colour,0.5
007,64,0,2,13,18,618,1075.6416327892803,1076.7586407756899,"[97, 0, 157]",157,l,0.5921315159648657,colour,0.5
007,64,0,2,13,19,619,1077.2683486761525,1078.502502888674,"[44, 0, 210]",210,a,0.7112446071114391,colour,0.5
007,64,0,2,13,20,620,1079.0184107068926,1080.0144580723718,"[45, 0, 209]",209,a,0.4730940433219075,colour,0.5
007,64,0,2,13,21,621,1080.5341759528965,1081.5825110492297,"[52, 0, 202]",202,a,0.5246834859717637,colour,0.5
007,64,0,2,13,22,622,1082.0867212589364,1083.5504508349113,"[39, 0, 215]",215,a,0.9406994539313018,colour,0.5
007,64,0,2,13,23,623,1084.0657552815974,1085.3106256395113,"[7, 0, 247]",247,a,0.7215322486590594,colour,0.5
007,64,0,2,13,24,624,1085.8185281516053,1086.7745611967985,"[4, 0, 250]",250,a,0.43294266471639276,colour,0.5
007,64,0,2,13,25,625,1087.2873871729244,1088.5345414415933,"[76, 0, 178]",178,l,0.7239453406073153,colour,0.5
007,64,0,2,13,26,626,1089.0510010372382,1090.0065272031352,"[53, 0, 201]",201,a,0.432876892387867,colour,0.5
007,64,0,2,13,27,627,1090.5073779097293,1091.518503260566,"[36, 0, 218]",218,a,0.48756117396987975,colour,0.5
007,64,0,2,13,28,628,1092.038785127923,1093.0784800394904,"[37, 0, 217]",217,a,0.5217237363103777,colour,0.5
007,64,0,2,13,29,629,1093.5886554345489,1094.57450731867,"[21, 0, 233]",233,a,0.47392387595027685,colour,0.5
007,64,0,2,13,30,630,1095.0928061734885,1096.1664655427448,"[72, 0, 182]",182,l,0.5511668464168906,colour,0.5
007,64,0,2,13,31,631,1096.6880018084776,1097.782449136721,"[12, 0, 242]",242,a,0.5712789662647992,colour,0.5
007,64,0,2,13,32,632,1098.2982005982194,1099.3264625652228,"[81, 0, 173]",173,l,0.5033949490170926,colour,0.5
007,64,0,2,13,33,633,1099.8472241365816,1100.9264603597112,"[18, 0, 236]",236,a,0.5569441677071154,colour,0.5
007,64,0,2,13,34,634,1101.4408723521046,1102.6944435471669,"[13, 0, 241]",241,a,0.7303756577894092,colour,0.5
007,64,0,2,13,35,635,1103.1942938859574,1104.2624339028262,"[85, 0, 169]",169,l,0.5454765651375055,colour,0.5
007,64,0,2,13,36,636,1104.7726136303972,1105.9824742639903,"[66, 0, 188]",188,l,0.6867883701343089,colour,0.5
007,64,0,2,13,37,637,1106.4892645562068,1107.5826122676954,"[80, 0, 174]",174,l,0.5700099959503859,colour,0.5
007,64,0,2,13,38,638,1108.0864038192667,1109.2386093940586,"[99, 0, 155]",155,l,0.6287473423872143,colour,0.5
007,64,0,2,13,39,639,1109.7584458221681,1110.7905060364865,"[31, 0, 223]",223,a,0.5064767911098897,colour,0.5
007,64,0,2,13,40,640,1111.3083279442508,1112.3344702343456,"[46, 0, 208]",208,a,0.5033681676723063,colour,0.5
007,64,0,2,13,41,641,1112.8554267592262,1113.8385008501355,"[55, 0, 199]",199,a,0.4601337655913085,colour,0.5
007,64,0,2,13,42,642,1114.3554496022407,1115.3663969349582,"[10, 0, 244]",244,a,0.4877655799500644,colour,0.5
007,64,0,2,13,43,643,1115.8868020758964,1117.0944953772705,"[35, 0, 219]",219,a,0.6843189580831677,colour,0.5
007,64,0,2,13,44,644,1117.6056419957895,1118.6144440514036,"[58, 0, 196]",196,a,0.48531231563538313,colour,0.5
007,64,0,2,13,45,645,1119.121832594974,1120.134501820663,"[96, 0, 158]",158,l,0.48799440427683294,colour,0.5
007,64,0,2,13,46,646,1120.6547017681878,1121.7184511942323,"[48, 0, 206]",206,a,0.5409142575226724,colour,0.5
007,64,0,2,13,47,647,1122.2328541281167,1123.3184300840367,"[32, 0, 222]",222,a,0.5617451455909759,colour,0.5
007,64,0,2,13,48,648,1123.826772915665,1124.9344526687637,"[84, 0, 170]",170,l,0.5843869359232485,colour,0.5
007,64,0,2,13,49,649,1125.451938232407,1126.5024828026071,"[2, 0, 252]",252,a,0.5272115808911622,colour,0.5
007,64,0,2,13,50,650,1127.0145616536029,1128.078439079458,"[23, 0, 231]",231,a,0.5405105657409877,colour,0.5
007,64,0,2,14,1,651,1147.593713593902,1148.206753191771,"[17, 0, 237]",237,a,0.08903116337023675,colour,0.5
007,64,0,2,14,2,652,1148.7097062461544,1150.0144190816209,"[44, 0, 210]",210,a,0.7793633565306664,colour,0.5
007,64,0,2,14,3,653,1150.524335326394,1151.5103805887047,"[97, 0, 157]",157,l,0.46910871961154044,colour,0.5
007,64,0,2,14,4,654,1152.018082239665,1152.982405734947,"[7, 0, 247]",247,a,0.44098223512992263,colour,0.5
007,64,0,2,14,5,655,1153.5026139533147,1154.5263616619632,"[94, 0, 160]",160,l,0.5005836791824549,colour,0.5
007,64,0,2,14,6,656,1155.033943583956,1156.0384007347748,"[41, 0, 213]",213,a,0.4812005674466491,colour,0.5
007,64,0,2,14,7,657,1156.5496670822613,1157.5023772520944,"[51, 0, 203]",203,a,0.42942641116678715,colour,0.5
007,64,0,2,14,8,658,1158.018545401981,1158.9584477127064,"[81, 0, 173]",173,l,0.4166630564723164,colour,0.5
007,64,0,2,14,9,659,1159.4716813189443,1160.3823740696535,"[3, 0, 251]",251,a,0.3851392597425729,colour,0.5
007,64,0,2,14,10,660,1160.8963603151496,1161.9903507824056,"[49, 0, 205]",205,a,0.5707728746347129,colour,0.5
007,64,0,2,14,11,661,1162.5058344288263,1163.502385128988,"[99, 0, 155]",155,l,0.4738840975333005,colour,0.5
007,64,0,2,14,12,662,1164.0209939402994,1165.118374630576,"[87, 0, 167]",167,l,0.5742662854027003,colour,0.5
007,64,0,2,14,13,663,1165.6304857770447,1166.6783746464644,"[84, 0, 170]",170,l,0.5221132496371865,colour,0.5
007,64,0,2,14,14,664,1167.1955860934686,1168.2703631964978,"[14, 0, 240]",240,a,0.5515295781660825,colour,0.5
007,64,0,2,14,15,665,1168.7869901766535,1169.8063532023225,"[25, 0, 229]",229,a,0.49463976128026843,colour,0.5
007,64,0,2,14,16,666,1170.3197077191435,1171.4303511604667,"[54, 0, 200]",200,a,0.587484925519675,colour,0.5
007,64,0,2,14,17,667,1171.94485925138,1172.9823710764758,"[91, 0, 163]",163,l,0.5141603250522166,colour,0.5
007,64,0,2,14,18,668,1173.490468936041,1174.7903240798041,"[96, 0, 158]",158,l,0.7764898589812219,colour,0.5
007,64,0,2,14,19,669,1175.3054851666093,1176.6303487187251,"[80, 0, 174]",174,l,0.8022650848142803,colour,0.5
007,64,0,2,14,20,670,1177.1493533449247,1178.4703572099097,"[86, 0, 168]",168,l,0.7977232572156936,colour,0.5
007,64,0,2,14,21,671,1178.9775874277111,1180.030357225798,"[70, 0, 184]",184,a,0.5294698916841298,colour,0.5
007,64,0,2,14,22,672,1180.5402561414521,1181.7343861875124,"[63, 0, 191]",191,a,0.6708659797441214,colour,0.5
007,64,0,2,14,23,673,1182.243420612067,1183.3023186477367,"[29, 0, 225]",225,a,0.5354937601368874,colour,0.5
007,64,0,2,14,24,674,1183.8216978211422,1184.8623482019175,"[34, 0, 220]",220,a,0.515899941092357,colour,0.5
007,64,0,2,14,25,675,1185.3596515411045,1186.4623456026893,"[59, 0, 195]",195,a,0.5793177492450923,colour,0.5
007,64,0,2,14,26,676,1186.9691626762506,1187.9503514284734,"[24, 0, 230]",230,a,0.4579191720113158,colour,0.5
007,64,0,2,14,27,677,1188.4692934330087,1189.502337867394,"[11, 0, 243]",243,a,0.5098032110836357,colour,0.5
007,64,0,2,14,28,678,1190.0162414051592,1191.1583952524234,"[30, 0, 224]",224,a,0.6188496085815132,colour,0.5
007,64,0,2,14,29,679,1191.6726367096417,1192.8303458830342,"[39, 0, 215]",215,a,0.6343868179246783,colour,0.5
007,64,0,2,14,30,680,1193.3460748952348,1194.3983464785852,"[66, 0, 188]",188,a,0.5290031847544014,colour,0.5
007,64,0,2,14,31,681,1194.9105895631947,1195.9103544373065,"[1, 0, 253]",253,a,0.47647284460254014,colour,0.5
007,64,0,2,14,32,682,1196.4271310789045,1197.438342681853,"[0, 0, 254]",254,a,0.48786522285081446,colour,0.5
007,64,0,2,14,33,683,1197.9585130908526,1198.9743704968132,"[71, 0, 183]",183,l,0.4924259551335126,colour,0.5
007,64,0,2,14,34,684,1199.4898592631798,1200.4863497049082,"[10, 0, 244]",244,a,0.47234770585782826,colour,0.5
007,64,0,2,14,35,685,1201.0065921877977,1202.0383412640076,"[22, 0, 232]",232,a,0.5084239637944847,colour,0.5
007,64,0,2,14,36,686,1202.5533117295709,1203.6943289381452,"[48, 0, 206]",206,a,0.6177425084169954,colour,0.5
007,64,0,2,14,37,687,1204.2102769284975,1205.238311646739,"[40, 0, 214]",214,a,0.5045938151888549,colour,0.5
007,64,0,2,14,38,688,1205.7571366792545,1206.8143045513425,"[83, 0, 171]",171,l,0.533564310753718,colour,0.5
007,64,0,2,14,39,689,1207.3356052972376,1208.4702678071335,"[67, 0, 187]",187,l,0.612121150130406,colour,0.5
007,64,0,2,14,40,690,1208.9763413001783,1210.1423334407154,"[62, 0, 192]",192,a,0.6426489111036062,colour,0.5
007,64,0,2,14,41,691,1210.6639823461883,1211.6546623837203,"[47, 0, 207]",207,a,0.4673750111833215,colour,0.5
007,64,0,2,14,42,692,1212.1640796260908,1213.1662965829019,"[45, 0, 209]",209,a,0.4789178380742669,colour,0.5
007,64,0,2,14,43,693,1213.6798110012896,1214.7183184681926,"[69, 0, 185]",185,l,0.5151795975398272,colour,0.5
007,64,0,2,14,44,694,1215.226773939561,1216.158277886454,"[26, 0, 228]",228,a,0.4080835236236453,colour,0.5
007,64,0,2,14,45,695,1216.664571539266,1217.7182763267774,"[27, 0, 227]",227,a,0.5305576932150871,colour,0.5
007,64,0,2,14,46,696,1218.2270346654113,1219.1823154655285,"[73, 0, 181]",181,l,0.43189739855006337,colour,0.5
007,64,0,2,14,47,697,1219.6959311021492,1221.0942972730845,"[53, 0, 201]",201,l,0.8734574052505195,colour,0.5
007,64,0,2,14,48,698,1221.6039035613649,1222.7423737703357,"[55, 0, 199]",199,l,0.6153853423893452,colour,0.5
007,64,0,2,14,49,699,1223.2608900279738,1224.3502791970968,"[95, 0, 159]",159,l,0.5664582960307598,colour,0.5
007,64,0,2,14,50,700,1224.8703779263888,1225.8862944089342,"[16, 0, 238]",238,a,0.4928583975415677,colour,0.5
007,64,0,2,15,1,701,1231.4959654454142,1232.430254668463,"[71, 0, 183]",183,l,0.41025400697253644,colour,0.5
007,64,0,2,15,2,702,1232.9499311950058,1233.7342786677182,"[81, 0, 173]",173,l,0.2613043535966426,colour,0.5
007,64,0,2,15,3,703,1234.246938047232,1235.118264353834,"[20, 0, 234]",234,a,0.348015766358003,colour,0.5
007,64,0,2,15,4,704,1235.6390196236316,1236.5102829150856,"[22, 0, 232]",232,a,0.3479610220529139,colour,0.5
007,64,0,2,15,5,705,1237.0297290419694,1237.886284562759,"[6, 0, 248]",248,a,0.33316463604569435,colour,0.5
007,64,0,2,15,6,706,1238.4048650171608,1239.2302886177786,"[85, 0, 169]",169,l,0.30204728804528713,colour,0.5
007,64,0,2,15,7,707,1239.748771398561,1240.2782873702236,"[30, 0, 224]",224,a,0.006264508236199617,colour,0.5
007,64,0,2,15,8,708,1240.795734730782,1241.56629091152,"[88, 0, 166]",166,l,0.2510466445237398,colour,0.5
007,64,0,2,15,9,709,1242.0755080804229,1243.3822547346354,"[24, 0, 230]",230,a,0.782205346506089,colour,0.5
007,64,0,2,15,10,710,1243.8904868955724,1244.902280996088,"[27, 0, 227]",227,a,0.4883543790783733,colour,0.5
007,64,0,2,15,11,711,1245.4218748153653,1246.454290278256,"[28, 0, 226]",226,a,0.5090442704968154,colour,0.5
007,64,0,2,15,12,712,1246.9687617414165,1247.9584024203941,"[15, 0, 239]",239,a,0.46454286738298833,colour,0.5
007,64,0,2,15,13,713,1248.4689763872884,1249.5102537705097,"[75, 0, 179]",179,l,0.5179703875910491,colour,0.5
007,64,0,2,15,14,714,1250.0316651870962,1251.0063594249077,"[89, 0, 165]",165,l,0.45142938382923603,colour,0.5
007,64,0,2,15,15,715,1251.5204713069834,1252.518257894786,"[17, 0, 237]",237,a,0.47482026857323945,colour,0.5
007,64,0,2,15,16,716,1253.0361609347165,1254.3102180091664,"[39, 0, 215]",215,l,0.7508812295272946,colour,0.5
007,64,0,2,15,17,717,1254.805150791537,1255.926289824536,"[94, 0, 160]",160,l,0.5978273111395538,colour,0.5
007,64,0,2,15,18,718,1256.4435414439067,1257.406237569172,"[9, 0, 245]",245,a,0.43925640382803977,colour,0.5
007,64,0,2,15,19,719,1257.9130967843812,1258.910203988431,"[99, 0, 155]",155,l,0.47502073599025607,colour,0.5
007,64,0,2,15,20,720,1259.4309706797358,1260.3661944982596,"[14, 0, 240]",240,a,0.4118687738664448,colour,0.5
007,64,0,2,15,21,721,1260.884218448773,1262.0382317749318,"[51, 0, 203]",203,l,0.6307669829111546,colour,0.5
007,64,0,2,15,22,722,1262.5562490301672,1263.5262068808079,"[47, 0, 207]",207,a,0.4466673966962844,colour,0.5
007,64,0,2,15,23,723,1264.0407051253133,1265.118208033964,"[53, 0, 201]",201,l,0.5541959130205214,colour,0.5
007,64,0,2,15,24,724,1265.6345179683995,1266.6462112446316,"[98, 0, 156]",156,l,0.4884197576902807,colour,0.5
007,64,0,2,15,25,725,1267.1659188850317,1268.230247657979,"[41, 0, 213]",213,a,0.5410820357501507,colour,0.5
007,64,0,2,15,26,726,1268.7442512323614,1269.670254731318,"[5, 0, 249]",249,a,0.40273194946348667,colour,0.5
007,64,0,2,15,27,727,1270.1817841678858,1271.1102094233502,"[87, 0, 167]",167,l,0.4050394908990711,colour,0.5
007,64,0,2,15,28,728,1271.619400992291,1272.574195786845,"[1, 0, 253]",253,a,0.4315405744127929,colour,0.5
007,64,0,2,15,29,729,1273.088292309083,1274.190210888395,"[52, 0, 202]",202,l,0.578647423768416,colour,0.5
007,64,0,2,15,30,730,1274.697825105628,1275.6382315387018,"[62, 0, 192]",192,l,0.41719002183526754,colour,0.5
007,64,0,2,15,31,731,1276.1510634224396,1277.1342221903615,"[61, 0, 193]",193,l,0.45994865824468434,colour,0.5
007,64,0,2,15,32,732,1277.651131163817,1278.6222130500246,"[37, 0, 217]",217,a,0.4478016721550375,colour,0.5
007,64,0,2,15,33,733,1279.1356546068564,1280.2702182612848,"[32, 0, 222]",222,a,0.6112661112565547,colour,0.5
007,64,0,2,15,34,734,1280.7770963809453,1281.6061835335568,"[69, 0, 185]",185,l,0.30569548020139337,colour,0.5
007,64,0,2,15,35,735,1282.1209649532102,1283.1342592118308,"[55, 0, 199]",199,l,0.4901802474632859,colour,0.5
007,64,0,2,15,36,736,1283.6523772913497,1284.5822054250166,"[13, 0, 241]",241,a,0.4065278333146125,colour,0.5
007,64,0,2,15,37,737,1285.0899618205149,1285.9982426608913,"[56, 0, 198]",198,l,0.3850498569663614,colour,0.5
007,64,0,2,15,38,738,1286.511955971131,1287.4382012912538,"[57, 0, 197]",197,l,0.4029343861620873,colour,0.5
007,64,0,2,15,39,739,1287.9495810663793,1288.7502132672817,"[3, 0, 251]",251,a,0.2773594700265676,colour,0.5
007,64,0,2,15,40,740,1289.2621219770517,1290.2063085401896,"[54, 0, 200]",200,l,0.4211674686521292,colour,0.5
007,64,0,2,15,41,741,1290.7154717522208,1291.6621572657023,"[73, 0, 181]",181,l,0.42345059174112976,colour,0.5
007,64,0,2,15,42,742,1292.16862105974,1293.0941960546188,"[36, 0, 218]",218,a,0.4022821777034551,colour,0.5
007,64,0,2,15,43,743,1293.6064986099955,1294.9181907833554,"[42, 0, 212]",212,a,0.7884395285509527,colour,0.5
007,64,0,2,15,44,744,1295.4351997938938,1296.2061931435019,"[92, 0, 162]",162,l,0.24772613239474595,colour,0.5
007,64,0,2,15,45,745,1296.7096908863168,1297.7902059259359,"[60, 0, 194]",194,l,0.5573195023462176,colour,0.5
007,64,0,2,15,46,746,1298.3117205302697,1299.2782393209636,"[66, 0, 188]",188,l,0.44323345669545233,colour,0.5
007,64,0,2,15,47,747,1299.796221917728,1300.6221445207484,"[38, 0, 216]",216,a,0.30253920145332813,colour,0.5
007,64,0,2,15,48,748,1301.1399999053683,1301.9501395393163,"[21, 0, 233]",233,a,0.2867278754711151,colour,0.5
007,64,0,2,15,49,749,1302.468305668328,1303.494215983199,"[19, 0, 235]",235,a,0.5026509747840464,colour,0.5
007,64,0,2,15,50,750,1304.015280422056,1304.9021675686818,"[90, 0, 164]",164,l,0.363595511065796,colour,0.5
007,64,0,2,16,1,751,1311.7050364187453,1312.9101476683281,"[33, 0, 221]",221,a,0.6809370059054345,colour,0.5
007,64,0,2,16,2,752,1313.424768792931,1314.406158800004,"[29, 0, 225]",225,a,0.4580266915727407,colour,0.5
007,64,0,2,16,3,753,1314.9248554389924,1315.5901807986666,"[47, 0, 207]",207,a,0.14199512731283903,colour,0.5
007,64,0,2,16,4,754,1316.0968068572693,1317.0381443412043,"[38, 0, 216]",216,a,0.41802221769466996,colour,0.5
007,64,0,2,16,5,755,1317.5506745392922,1318.4061674645636,"[26, 0, 228]",228,a,0.33217096352018416,colour,0.5
007,64,0,2,16,6,756,1318.925753800664,1320.1262109766249,"[14, 0, 240]",240,a,0.6771805065218359,colour,0.5
007,64,0,2,16,7,757,1320.6447047849651,1321.6461352324113,"[85, 0, 169]",169,l,0.4782061593141407,colour,0.5
007,64,0,2,16,8,758,1322.160341637442,1323.190172685543,"[69, 0, 185]",185,l,0.5064421326387674,colour,0.5
007,64,0,2,16,9,759,1323.7074172154535,1324.6541535351425,"[20, 0, 234]",234,a,0.42343247472308576,colour,0.5
007,64,0,2,16,10,760,1325.1606641968247,1326.1022025421262,"[88, 0, 166]",166,l,0.4182754603680223,colour,0.5
007,64,0,2,16,11,761,1326.6137414309196,1327.638162615709,"[24, 0, 230]",230,a,0.5009393219370395,colour,0.5
007,64,0,2,16,12,762,1328.1330233241897,1329.334114591591,"[41, 0, 213]",213,a,0.6785250953398645,colour,0.5
007,64,0,2,16,13,763,1329.85187466559,1330.7421583367977,"[89, 0, 165]",165,l,0.36702393693849444,colour,0.5
007,64,0,2,16,14,764,1331.2563643481117,1332.510166730499,"[51, 0, 203]",203,l,0.730524531332776,colour,0.5
007,64,0,2,16,15,765,1333.0221719325054,1333.9501954654697,"[83, 0, 171]",171,l,0.4026563309598714,colour,0.5
007,64,0,2,16,16,766,1334.4618418740574,1335.4140884876251,"[22, 0, 232]",232,a,0.4289199258200824,colour,0.5
007,64,0,2,16,17,767,1335.9307142861653,1336.942169285845,"[43, 0, 211]",211,a,0.4881586378905922,colour,0.5
007,64,0,2,16,18,768,1337.4620710921008,1338.5261005423963,"[31, 0, 223]",223,a,0.5406665285117924,colour,0.5
007,64,0,2,16,19,769,1339.0403364859521,1340.0621118159033,"[74, 0, 180]",180,l,0.49846282065846026,colour,0.5
007,64,0,2,16,20,770,1340.5717307073064,1341.6781387329102,"[27, 0, 227]",227,a,0.5831731038633734,colour,0.5
007,64,0,2,16,21,771,1342.1968538824003,1343.0622027942445,"[98, 0, 156]",156,l,0.34210453764535487,colour,0.5
007,64,0,2,16,22,772,1343.5754446713254,1344.5981305723544,"[21, 0, 233]",233,a,0.49939781008288264,colour,0.5
007,64,0,2,16,23,773,1345.1087045392487,1346.2141248001717,"[3, 0, 251]",251,a,0.5821664344985038,colour,0.5
007,64,0,2,16,24,774,1346.733697351534,1347.942214971874,"[42, 0, 212]",212,a,0.6850983786862344,colour,0.5
007,64,0,2,16,25,775,1348.4525542068295,1349.4701350810938,"[30, 0, 224]",224,a,0.4943022355437279,colour,0.5
007,64,0,2,16,26,776,1349.9857987149153,1351.102089902386,"[57, 0, 197]",197,l,0.5930389363784343,colour,0.5
007,64,0,2,16,27,777,1351.611029803753,1352.5821376836393,"[16, 0, 238]",238,a,0.4483731419313699,colour,0.5
007,64,0,2,16,28,778,1353.094817936886,1354.134100885829,"[34, 0, 220]",220,a,0.5159834364894778,colour,0.5
007,64,0,2,16,29,779,1354.641836013645,1355.7101193903945,"[28, 0, 226]",226,a,0.5449602336157113,colour,0.5
007,64,0,2,16,30,780,1356.2076381628867,1357.1101345927455,"[78, 0, 176]",176,l,0.37918667728081346,colour,0.5
007,64,0,2,16,31,781,1357.630217174301,1358.5261418961454,"[75, 0, 179]",179,l,0.3725480155553669,colour,0.5
007,64,0,2,16,32,782,1359.0365669894964,1359.9581326360349,"[44, 0, 210]",210,a,0.39826140785589814,colour,0.5
007,64,0,2,16,33,783,1360.474207444815,1361.4140908506233,"[72, 0, 182]",182,l,0.4149525847751647,colour,0.5
007,64,0,2,16,34,784,1361.9177004457451,1362.766227423679,"[82, 0, 172]",172,l,0.3251998962368816,colour,0.5
007,64,0,2,16,35,785,1363.2721902462654,1364.2141228308901,"[55, 0, 199]",199,a,0.41910804994404316,colour,0.5
007,64,0,2,16,36,786,1364.7277168061119,1365.7100855195895,"[9, 0, 245]",245,a,0.4591763271018863,colour,0.5
007,64,0,2,16,37,787,1366.2278676489368,1367.3421332882717,"[18, 0, 236]",236,a,0.5910909760277718,colour,0.5
007,64,0,2,16,38,788,1367.852931747213,1368.8301170587074,"[25, 0, 229]",229,a,0.453960629645735,colour,0.5
007,64,0,2,16,39,789,1369.3249970658217,1369.9421531381086,"[65, 0, 189]",189,l,0.09406372252851725,colour,0.5
007,64,0,2,16,40,790,1370.4501738040708,1371.7100819749758,"[58, 0, 196]",196,l,0.7366287445183843,colour,0.5
007,64,0,2,16,41,791,1372.2314847270027,1373.4541347092018,"[59, 0, 195]",195,l,0.6993811896536499,colour,0.5
007,64,0,2,16,42,792,1373.9667629750911,1374.7340730803553,"[6, 0, 248]",248,a,0.2447628378868103,colour,0.5
007,64,0,2,16,43,793,1375.2473381944,1376.2301066610962,"[91, 0, 163]",163,l,0.4594681665766984,colour,0.5
007,64,0,2,16,44,794,1376.7488505614456,1377.6380629728083,"[99, 0, 155]",155,l,0.365902658784762,colour,0.5
007,64,0,2,16,45,795,1378.1551487830002,1379.046059456421,"[97, 0, 157]",157,l,0.36752136424183846,colour,0.5
007,64,0,2,16,46,796,1379.5615517674014,1380.4220827657264,"[71, 0, 183]",183,l,0.33727677818387747,colour,0.5
007,64,0,2,16,47,797,1380.9366975887679,1381.974110558629,"[50, 0, 204]",204,a,0.5142016788013279,colour,0.5
007,64,0,2,16,48,798,1382.4836408346891,1383.5900626450311,"[52, 0, 202]",202,l,0.5830644024536014,colour,0.5
007,64,0,2,16,49,799,1384.0967666849028,1385.0540545224212,"[81, 0, 173]",173,l,0.4340304664801806,colour,0.5
007,64,0,2,16,50,800,1385.5655280326027,1386.6221610622015,"[66, 0, 188]",188,l,0.5332421448547393,colour,0.5
