id,age,condition,counterbalance,block,trialinblock,trial,tstart,tend,trialstim,trialintensity,response,RT,trialtype,colourfreq
023,69,1,1,Practice,1,NA,5.5138953030109406e-06,1.7066737979184836,"[78, 0, 176]",176,a,0.7721884915372357,colour,0.5
023,69,1,1,Practice,2,NA,2.2425413460005075,3.026719688787125,"[1, 0, 253]",253,a,0.26451519143301994,colour,0.5
023,69,1,1,Practice,3,NA,3.5434884666465223,31.930708323954605,"[11, 0, 243]",243,a,27.85783265007194,colour,0.5
023,69,1,1,Practice,4,NA,32.44901900854893,33.234678999870084,"[57, 0, 197]",197,a,0.2680070294300094,colour,0.5
023,69,1,1,Practice,5,NA,33.74843840091489,42.570651625981554,"[32, 0, 222]",222,a,8.300872289924882,colour,0.5
023,69,1,1,Practice,6,NA,43.090431749704294,44.322644880157895,"[13, 0, 241]",241,a,0.7089470765786245,colour,0.5
023,69,1,1,Practice,7,NA,44.84038724505808,46.01070748909842,"[71, 0, 183]",183,a,0.6469899931689724,colour,0.5
023,69,1,1,Practice,8,NA,46.5303970281966,47.762673961697146,"[96, 0, 158]",158,l,0.7088553104549646,colour,0.5
023,69,1,1,Practice,9,NA,48.280503760441206,49.13075172586832,"[98, 0, 156]",156,l,0.32692440995015204,colour,0.5
023,69,1,1,Practice,10,NA,49.63981451431755,50.46668142278213,"[12, 0, 242]",242,a,0.3035197223071009,colour,0.5
023,69,1,1,1,1,1,4.976911570527591,5.79169016610831,"[57, 0, 197]",197,a,0.29169843695126474,colour,0.5
023,69,1,1,1,2,2,6.306137616047636,7.151769707212225,"[7, 0, 247]",247,a,0.3286431535379961,colour,0.5
023,69,1,1,1,3,3,7.668189537595026,8.39969059464056,"[71, 0, 183]",183,a,0.21436836570501328,colour,0.5
023,69,1,1,1,4,4,8.920148920966312,9.719738454790786,"[10, 0, 244]",244,a,0.2680180571042001,colour,0.5
023,69,1,1,1,5,5,10.233065413078293,10.807778771966696,"[42, 0, 212]",212,a,0.05775395967066288,colour,0.5
023,69,1,1,1,6,6,11.330726992338896,12.055712262401357,"[35, 0, 219]",219,a,0.20728662214241922,colour,0.5
023,69,1,1,1,7,7,12.568446088815108,13.27975742239505,"[76, 0, 178]",178,l,0.19340512878261507,colour,0.5
023,69,1,1,1,8,8,13.79165471997112,14.37569671345409,"[93, 0, 161]",161,l,0.05197308934293687,colour,0.5
023,69,1,1,1,9,9,14.890578181599267,15.55972122005187,"[12, 0, 242]",242,a,0.15435609337873757,colour,0.5
023,69,1,1,1,10,10,16.08894104277715,16.647707974305376,"[28, 0, 226]",226,a,0.045451394747942686,colour,0.5
023,69,1,1,1,11,11,17.156898368848488,17.687727445969358,"[89, 0, 165]",165,l,0.007408635574392974,colour,0.5
023,69,1,1,1,12,12,18.20380975038279,18.879681252641603,"[83, 0, 171]",171,l,0.15250265458598733,colour,0.5
023,69,1,1,1,13,13,19.39135917800013,20.27177219639998,"[34, 0, 220]",220,a,0.35713672440033406,colour,0.5
023,69,1,1,1,14,14,20.78005477611441,21.543710595695302,"[23, 0, 231]",231,a,0.24774129362776875,colour,0.5
023,69,1,1,1,15,15,22.053841100423597,22.695806407369673,"[96, 0, 158]",158,l,0.12319854879751801,colour,0.5
023,69,1,1,1,16,16,23.205491866217926,23.999697526334785,"[13, 0, 241]",241,a,0.27087383379694074,colour,0.5
023,69,1,1,1,17,17,24.51798851857893,25.367684705881402,"[0, 0, 254]",254,a,0.32633915496990085,colour,0.5
023,69,1,1,1,18,18,25.876597045222297,26.655707378755324,"[51, 0, 203]",203,a,0.25441264966502786,colour,0.5
023,69,1,1,1,19,19,27.169683789019473,27.99171033105813,"[74, 0, 180]",180,l,0.29032430856022984,colour,0.5
023,69,1,1,1,20,20,28.512883881572634,29.367691007326357,"[1, 0, 253]",253,a,0.33641294587869197,colour,0.5
023,69,1,1,1,21,21,29.888220619875938,30.83967202086933,"[39, 0, 215]",215,a,0.420373413246125,colour,0.5
023,69,1,1,1,22,22,31.356077278847806,32.375754608772695,"[88, 0, 166]",166,l,0.4991524436045438,colour,0.5
023,69,1,1,1,23,23,32.8904797200812,33.67174399702344,"[67, 0, 187]",187,a,0.26237542659509927,colour,0.5
023,69,1,1,1,24,24,34.19023151835427,34.99972352012992,"[61, 0, 193]",193,a,0.29204895975999534,colour,0.5
023,69,1,1,1,25,25,35.50060376583133,36.47971851041075,"[25, 0, 229]",229,a,0.4479457783745602,colour,0.5
023,69,1,1,1,26,26,36.988371699117124,37.783664767746814,"[6, 0, 248]",248,a,0.2719935377826914,colour,0.5
023,69,1,1,1,27,27,38.30080572993029,38.991693789488636,"[30, 0, 224]",224,a,0.16751487948931754,colour,0.5
023,69,1,1,1,28,28,39.503934520762414,40.35168274608441,"[97, 0, 157]",157,l,0.32433526683598757,colour,0.5
023,69,1,1,1,29,29,40.86691591865383,42.17570845002774,"[90, 0, 164]",164,l,0.7854764590738341,colour,0.5
023,69,1,1,1,30,30,42.6951876754174,43.42376915272325,"[16, 0, 238]",238,a,0.2056793369119987,colour,0.5
023,69,1,1,1,31,31,43.945033287862316,44.94375013781246,"[49, 0, 205]",205,a,0.4762491217115894,colour,0.5
023,69,1,1,1,32,32,45.46075128472876,46.36769100732636,"[44, 0, 210]",210,a,0.38413761917036027,colour,0.5
023,69,1,1,1,33,33,46.888799179461785,47.983676661970094,"[85, 0, 169]",169,l,0.571593705448322,colour,0.5
023,69,1,1,1,34,34,48.49807960726321,49.367656742804684,"[70, 0, 184]",184,a,0.346202380140312,colour,0.5
023,69,1,1,1,35,35,49.88875467493199,50.647691826568916,"[21, 0, 233]",233,a,0.23574238375294954,colour,0.5
023,69,1,1,1,36,36,51.15900898911059,51.95166171470191,"[29, 0, 225]",225,a,0.26925473322626203,colour,0.5
023,69,1,1,1,37,37,52.46804255421739,53.40764510072768,"[68, 0, 186]",186,a,0.416186043410562,colour,0.5
023,69,1,1,1,38,38,53.92113747424446,54.78369076165836,"[87, 0, 167]",167,l,0.3398090793052688,colour,0.5
023,69,1,1,1,39,39,55.29618394805584,56.22368124627974,"[27, 0, 227]",227,a,0.4112881754990667,colour,0.5
023,69,1,1,1,40,40,56.74107584520243,57.59973754105158,"[22, 0, 232]",232,a,0.32900864258408546,colour,0.5
023,69,1,1,1,41,41,58.113136179279536,58.89635629509576,"[46, 0, 208]",208,a,0.25133395614102483,colour,0.5
023,69,1,1,1,42,42,59.409822674817406,60.29569164069835,"[2, 0, 252]",252,a,0.3681569271720946,colour,0.5
023,69,1,1,1,43,43,60.81701406498905,61.71968804253265,"[86, 0, 168]",168,l,0.38024878466967493,colour,0.5
023,69,1,1,1,44,44,62.229198633809574,63.18368776841089,"[99, 0, 155]",155,l,0.43589054862968624,colour,0.5
023,69,1,1,1,45,45,63.69944672519341,64.64766977122054,"[62, 0, 192]",192,a,0.4308709823526442,colour,0.5
023,69,1,1,1,46,46,65.17104885890149,65.91171274136286,"[82, 0, 172]",172,l,0.21745690540410578,colour,0.5
023,69,1,1,1,47,47,66.42562180396635,67.12765018921345,"[52, 0, 202]",202,a,0.17820740246679634,colour,0.5
023,69,1,1,1,48,48,67.6373210757738,68.56766745541245,"[50, 0, 204]",204,a,0.41395963239483535,colour,0.5
023,69,1,1,1,49,49,69.08910527662374,69.91168477828614,"[8, 0, 246]",246,a,0.30476151837501675,colour,0.5
023,69,1,1,1,50,50,70.42326345457695,71.20765604963526,"[75, 0, 179]",179,l,0.26644503651186824,colour,0.5
023,69,1,1,2,1,51,78.81227491702884,80.02368156134617,"[51, 0, 203]",203,a,0.6872816124232486,colour,0.5
023,69,1,1,2,2,52,80.53178887965623,81.07968763285317,"[44, 0, 210]",210,a,0.03156399365980178,colour,0.5
023,69,1,1,2,3,53,81.59452892874833,82.5356851973338,"[56, 0, 198]",198,a,0.417842953116633,colour,0.5
023,69,1,1,2,4,54,83.04763290716801,83.77566339401528,"[91, 0, 163]",163,l,0.20476561435498297,colour,0.5
023,69,1,1,2,5,55,84.28194011654705,84.86363400053233,"[10, 0, 244]",244,a,0.058328187093138695,colour,0.5
023,69,1,1,2,6,56,85.37566717492882,86.35165950912051,"[62, 0, 192]",192,a,0.45307759079150856,colour,0.5
023,69,1,1,2,7,57,86.86989024304785,87.58364932902623,"[29, 0, 225]",225,a,0.189439888112247,colour,0.5
023,69,1,1,2,8,58,88.09823462506756,88.7836344416719,"[15, 0, 239]",239,a,0.15306585421785712,colour,0.5
023,69,1,1,2,9,59,89.30376666365191,90.05570674862247,"[94, 0, 160]",160,l,0.23444269225001335,colour,0.5
023,69,1,1,2,10,60,90.57070164440665,91.51166571618523,"[97, 0, 157]",157,l,0.4237301619723439,colour,0.5
023,69,1,1,2,11,61,92.0268405994866,92.79965963831637,"[31, 0, 223]",223,a,0.2555575597798452,colour,0.5
023,69,1,1,2,12,62,93.31185704655945,94.01565852609929,"[27, 0, 227]",227,a,0.18616702849976718,colour,0.5
023,69,1,1,2,13,63,94.53105868934654,95.2638271425385,"[23, 0, 231]",231,a,0.21464248234406114,colour,0.5
023,69,1,1,2,14,64,95.7769162178738,96.63166702375747,"[76, 0, 178]",178,l,0.341689299675636,colour,0.5
023,69,1,1,2,15,65,97.14668870100286,97.77567796630319,"[33, 0, 221]",221,a,0.10948443994857371,colour,0.5
023,69,1,1,2,16,66,98.29163936001714,99.15967380104121,"[18, 0, 236]",236,a,0.3512408509850502,colour,0.5
023,69,1,1,2,17,67,99.68138219439425,100.45566200767644,"[60, 0, 194]",194,a,0.2422932229237631,colour,0.5
023,69,1,1,2,18,68,100.97662800143007,101.64766543894075,"[5, 0, 249]",249,a,0.15202334406785667,colour,0.5
023,69,1,1,2,19,69,102.16971647820901,102.87173422961496,"[1, 0, 253]",253,a,0.16969993663951755,colour,0.5
023,69,1,1,2,20,70,103.39015755406581,104.1916221883148,"[86, 0, 168]",168,l,0.28083537868224084,colour,0.5
023,69,1,1,2,21,71,104.70831062155776,105.51162593776826,"[50, 0, 204]",204,a,0.28545755450613797,colour,0.5
023,69,1,1,2,22,72,106.02860345388763,106.77563070482574,"[2, 0, 252]",252,a,0.2218270197045058,colour,0.5
023,69,1,1,2,23,73,107.29836270376109,108.06369945767801,"[88, 0, 166]",166,l,0.24746717687230557,colour,0.5
023,69,1,1,2,24,74,108.57985974359326,109.25561427359935,"[93, 0, 161]",161,l,0.14586438157130033,colour,0.5
023,69,1,1,2,25,75,109.76670103624929,110.50372184393927,"[4, 0, 250]",250,a,0.20645009342115372,colour,0.5
023,69,1,1,2,26,76,111.01542064314708,111.68765300908126,"[47, 0, 207]",207,a,0.1475401958450675,colour,0.5
023,69,1,1,2,27,77,112.19806471990887,112.95968396228272,"[0, 0, 254]",254,a,0.22912065230775625,colour,0.5
023,69,1,1,2,28,78,113.48105128505267,114.23965878761373,"[61, 0, 193]",193,l,0.22519952233415097,colour,0.5
023,69,1,1,2,29,79,114.76412685937248,115.38364531181287,"[26, 0, 228]",228,a,0.1021884442307055,colour,0.5
023,69,1,1,2,30,80,115.90386733063497,116.59966467961203,"[87, 0, 167]",167,l,0.18050352414138615,colour,0.5
023,69,1,1,2,31,81,117.12251680146437,117.97562605747953,"[80, 0, 174]",174,l,0.3323854774935171,colour,0.5
023,69,1,1,2,32,82,118.4852162055904,119.20776908344124,"[13, 0, 241]",241,a,0.19037409068550915,colour,0.5
023,69,1,1,2,33,83,119.72183844121173,120.46365314139985,"[99, 0, 155]",155,l,0.219326491933316,colour,0.5
023,69,1,1,2,34,84,120.9786220433889,121.64764771587215,"[25, 0, 229]",229,a,0.13719937740825117,colour,0.5
023,69,1,1,2,35,85,122.16810525453184,122.83962633472402,"[75, 0, 179]",179,l,0.13871529034804553,colour,0.5
023,69,1,1,2,36,86,123.35949271067511,124.12759111227933,"[11, 0, 243]",243,a,0.24959788331761956,colour,0.5
023,69,1,1,2,37,87,124.64369074581191,125.3036477221176,"[9, 0, 245]",245,a,0.14155846403446048,colour,0.5
023,69,1,1,2,38,88,125.82125972409267,126.70360534428619,"[58, 0, 196]",196,a,0.36692970315925777,colour,0.5
023,69,1,1,2,39,89,127.22645864775404,127.88761961099226,"[32, 0, 222]",222,a,0.1391536408336833,colour,0.5
023,69,1,1,2,40,90,128.40503941604402,129.11965236009564,"[67, 0, 187]",187,a,0.1828587227500975,colour,0.5
023,69,1,1,2,41,91,129.64049271703698,130.36767643503845,"[19, 0, 235]",235,a,0.19518255547154695,colour,0.5
023,69,1,1,2,42,92,130.88179423601832,131.5516383202048,"[35, 0, 219]",219,a,0.13675826997496188,colour,0.5
023,69,1,1,2,43,93,132.07154486852232,132.77560983097646,"[66, 0, 188]",188,l,0.18682514503598213,colour,0.5
023,69,1,1,2,44,94,133.29259167937562,134.03960672114044,"[54, 0, 200]",200,a,0.2284424495883286,colour,0.5
023,69,1,1,2,45,95,134.56175228348002,135.24764007516205,"[7, 0, 247]",247,a,0.1554616189096123,colour,0.5
023,69,1,1,2,46,96,135.76216393127106,136.48764820420183,"[77, 0, 177]",177,l,0.21423051960300654,colour,0.5
023,69,1,1,2,47,97,137.00519640301354,137.66367488179822,"[73, 0, 181]",181,l,0.13337237667292356,colour,0.5
023,69,1,1,2,48,98,138.18632692995016,138.96761877601966,"[79, 0, 175]",175,l,0.26409889629576355,colour,0.5
023,69,1,1,2,49,99,139.48285785631742,140.34362899081316,"[70, 0, 184]",184,a,0.32844898744951934,colour,0.5
023,69,1,1,2,50,100,140.85809810226783,141.47163285361603,"[45, 0, 209]",209,a,0.08664255798794329,colour,0.5
023,69,1,1,3,1,101,158.72425704903435,159.68763055989984,"[93, 0, 161]",161,l,0.44535899837501347,colour,0.5
023,69,1,1,3,2,102,160.2088702765759,160.77561928331852,"[0, 0, 254]",254,a,0.04116635106038302,colour,0.5
023,69,1,1,3,3,103,161.29741983662825,161.88760661403649,"[59, 0, 195]",195,a,0.057685824343934655,colour,0.5
023,69,1,1,3,4,104,162.40971239795908,163.07163151458371,"[29, 0, 225]",225,a,0.14407435175962746,colour,0.5
023,69,1,1,3,5,105,163.58525110036135,164.27163631946314,"[50, 0, 204]",204,a,0.17006306257098913,colour,0.5
023,69,1,1,3,6,106,164.79072957590688,165.47162103827577,"[25, 0, 229]",229,a,0.162754857679829,colour,0.5
023,69,1,1,3,7,107,165.98101426346693,166.68763764912728,"[35, 0, 219]",219,a,0.184342734166421,colour,0.5
023,69,1,1,3,8,108,167.19731995731127,167.89562492317054,"[60, 0, 194]",194,a,0.17209963989444077,colour,0.5
023,69,1,1,3,9,109,168.4114228708204,169.0396862780908,"[63, 0, 191]",191,a,0.09619883552659303,colour,0.5
023,69,1,1,3,10,110,169.55406244192272,170.33563155552838,"[91, 0, 163]",163,l,0.25165809132158756,colour,0.5
023,69,1,1,3,11,111,170.84755681618117,171.5595747093903,"[6, 0, 248]",248,a,0.19106410862877965,colour,0.5
023,69,1,1,3,12,112,172.07967502984684,172.6956579274265,"[40, 0, 214]",214,a,0.09814994817133993,colour,0.5
023,69,1,1,3,13,113,173.2090612918837,173.89562059089076,"[54, 0, 200]",200,a,0.16889373410958797,colour,0.5
023,69,1,1,3,14,114,174.41531603771728,175.11958383081947,"[38, 0, 216]",216,a,0.17113117268308997,colour,0.5
023,69,1,1,3,15,115,175.63719307584688,176.32758016337175,"[52, 0, 202]",202,a,0.17270301177632064,colour,0.5
023,69,1,1,3,16,116,176.83619002904743,177.5596003093524,"[73, 0, 181]",181,l,0.20565885689575225,colour,0.5
023,69,1,1,3,17,117,178.0741607930977,178.75161791907158,"[74, 0, 180]",180,l,0.16436765680555254,colour,0.5
023,69,1,1,3,18,118,179.2670310791582,179.91163239674643,"[53, 0, 201]",201,a,0.1216649126727134,colour,0.5
023,69,1,1,3,19,119,180.42322761460673,181.11158718331717,"[32, 0, 222]",222,a,0.16487847489770502,colour,0.5
023,69,1,1,3,20,120,181.62642217765097,182.28757959627546,"[72, 0, 182]",182,l,0.13907684094738215,colour,0.5
023,69,1,1,3,21,121,182.8100804075366,183.47966494737193,"[42, 0, 212]",212,a,0.14658590720500797,colour,0.5
023,69,1,1,3,22,122,183.99765976751223,184.5996252950281,"[8, 0, 246]",246,a,0.08765907445922494,colour,0.5
023,69,1,1,3,23,123,185.1139049665071,185.7915901292581,"[28, 0, 226]",226,a,0.15437499806284904,colour,0.5
023,69,1,1,3,24,124,186.30143312655855,186.96762310829945,"[49, 0, 205]",205,a,0.14035999088082463,colour,0.5
023,69,1,1,3,25,125,187.48405436018948,188.1995889035752,"[46, 0, 208]",208,a,0.18993495241738856,colour,0.5
023,69,1,1,3,26,126,188.71253186208196,189.39157067332417,"[51, 0, 203]",203,a,0.16179269214626402,colour,0.5
023,69,1,1,3,27,127,189.90055666177068,190.5196418837877,"[43, 0, 211]",211,a,0.08881146751809865,colour,0.5
023,69,1,1,3,28,128,191.04046688065864,191.767569072661,"[55, 0, 199]",199,a,0.19551102293189615,colour,0.5
023,69,1,1,3,29,129,192.27680515334941,193.02355041063856,"[78, 0, 176]",176,l,0.22815966827329248,colour,0.5
023,69,1,1,3,30,130,193.5465002063429,194.1756434654817,"[30, 0, 224]",224,a,0.11167973710689694,colour,0.5
023,69,1,1,3,31,131,194.6902563306503,195.38361656107008,"[69, 0, 185]",185,l,0.17430911550763994,colour,0.5
023,69,1,1,3,32,132,195.89586162462365,196.7435558930738,"[92, 0, 162]",162,l,0.33082112157717347,colour,0.5
023,69,1,1,3,33,133,197.2466649126727,198.2076332065044,"[75, 0, 179]",179,l,0.4420467541785911,colour,0.5
023,69,1,1,3,34,134,198.72311371436808,199.47159149986692,"[62, 0, 192]",192,l,0.22509475937113166,colour,0.5
023,69,1,1,3,35,135,199.9785243695369,200.62357900384814,"[80, 0, 174]",174,l,0.12166845728643239,colour,0.5
023,69,1,1,3,36,136,201.1346704927273,201.83957434701733,"[14, 0, 240]",240,a,0.18147711118217558,colour,0.5
023,69,1,1,3,37,137,202.35191196436062,203.01554667390883,"[48, 0, 206]",206,a,0.14025719719938934,colour,0.5
023,69,1,1,3,38,138,203.59969146107323,204.33556696481537,"[7, 0, 247]",247,a,0.21030545118264854,colour,0.5
023,69,1,1,3,39,139,204.8519249613164,205.6075833456125,"[56, 0, 198]",198,a,0.23272355482913554,colour,0.5
023,69,1,1,3,40,140,206.11750077980105,206.8316096010385,"[84, 0, 170]",170,l,0.1882347195642069,colour,0.5
023,69,1,1,3,41,141,207.33639246586245,208.09562815271784,"[2, 0, 252]",252,a,0.2414511804236099,colour,0.5
023,69,1,1,3,42,142,208.6091614862671,209.36764610896353,"[66, 0, 188]",188,l,0.23585226689465344,colour,0.5
023,69,1,1,3,43,143,209.87438678182662,210.68756715068594,"[24, 0, 230]",230,a,0.29027153307106346,colour,0.5
023,69,1,1,3,44,144,211.2025585018564,211.80758381821215,"[20, 0, 234]",234,a,0.0790082486346364,colour,0.5
023,69,1,1,3,45,145,212.31555919814855,213.11959564627614,"[1, 0, 253]",253,a,0.28075070190243423,colour,0.5
023,69,1,1,3,46,146,213.63818084145896,214.18360033456702,"[94, 0, 160]",160,l,0.021938005462288857,colour,0.5
023,69,1,1,3,47,147,214.68911614676472,215.5995441627456,"[36, 0, 218]",218,a,0.38715762982610613,colour,0.5
023,69,1,1,3,48,148,216.11096766369883,216.83163677633274,"[47, 0, 207]",207,a,0.1973333479836583,colour,0.5
023,69,1,1,3,49,149,217.34869463706855,218.0075933493208,"[39, 0, 215]",215,a,0.11195661081001163,colour,0.5
023,69,1,1,3,50,150,218.5264239105163,219.23960404307581,"[98, 0, 156]",156,l,0.1899132909020409,colour,0.5
023,69,1,1,4,1,151,228.16779608547222,229.0235862506088,"[89, 0, 165]",165,l,0.3386247844900936,colour,0.5
023,69,1,1,4,2,152,229.54344474966638,230.1356141475262,"[59, 0, 195]",195,a,0.05985630920622498,colour,0.5
023,69,1,1,4,3,153,230.6538665429689,231.295710151433,"[97, 0, 157]",157,l,0.12470067711547017,colour,0.5
023,69,1,1,4,4,154,231.8116309789475,232.39958268089686,"[96, 0, 158]",158,l,0.07032946008257568,colour,0.5
023,69,1,1,4,5,155,232.9165700430749,233.59957488265354,"[46, 0, 208]",208,a,0.15067481552250683,colour,0.5
023,69,1,1,4,6,156,234.12135101750027,234.8636603881605,"[88, 0, 166]",166,l,0.2240715476218611,colour,0.5
023,69,1,1,4,7,157,235.37501851073466,236.07154723152053,"[28, 0, 226]",226,a,0.1783641530200839,colour,0.5
023,69,1,1,4,8,158,236.58047690009698,237.25557055673562,"[8, 0, 246]",246,a,0.15470346552319825,colour,0.5
023,69,1,1,4,9,159,237.77229522378184,238.43956434342545,"[66, 0, 188]",188,a,0.13528646784834564,colour,0.5
023,69,1,1,4,10,160,238.96355861844495,239.64758903277107,"[54, 0, 200]",200,a,0.16667598765343428,colour,0.5
023,69,1,1,4,11,161,240.16813794372138,240.8635835882742,"[57, 0, 197]",197,a,0.17811563634313643,colour,0.5
023,69,1,1,4,12,162,241.38206598965917,242.06358012242708,"[70, 0, 184]",184,a,0.15666206134483218,colour,0.5
023,69,1,1,4,13,163,242.58005942346063,243.26356090279296,"[0, 0, 254]",254,a,0.16634279408026487,colour,0.5
023,69,1,1,4,14,164,243.78613063704688,244.52755030989647,"[53, 0, 201]",201,a,0.2234193388139829,colour,0.5
023,69,1,1,4,15,165,245.0401805547299,245.79152750771027,"[2, 0, 252]",252,a,0.23320050223264843,colour,0.5
023,69,1,1,4,16,166,246.30846288241446,247.03956812433898,"[37, 0, 217]",217,a,0.20036123553290963,colour,0.5
023,69,1,1,4,17,167,247.54570030525792,248.15670459659304,"[95, 0, 159]",159,l,0.09248762531206012,colour,0.5
023,69,1,1,4,18,168,248.66847034962848,249.2956046006875,"[55, 0, 199]",199,a,0.10372129257302731,colour,0.5
023,69,1,1,4,19,169,249.8090634973487,250.5595302048605,"[68, 0, 186]",186,l,0.22710140433628112,colour,0.5
023,69,1,1,4,20,170,251.07470508816186,251.64757524814922,"[33, 0, 221]",221,a,0.049494223087094724,colour,0.5
023,69,1,1,4,21,171,252.16846798663028,252.8715522728162,"[1, 0, 253]",253,a,0.1774382214061916,colour,0.5
023,69,1,1,4,22,172,253.3897129020188,254.02354568452574,"[6, 0, 248]",248,a,0.11102595285046846,colour,0.5
023,69,1,1,4,23,173,254.53032101585995,255.34357424627524,"[58, 0, 196]",196,a,0.2905066591920331,colour,0.5
023,69,1,1,4,24,174,255.8584356282372,256.48755053046625,"[38, 0, 216]",216,a,0.10611705738119781,colour,0.5
023,69,1,1,4,25,175,257.002311875578,257.6555805603275,"[23, 0, 231]",231,a,0.12999357236549258,colour,0.5
023,69,1,1,4,26,176,258.1681592114037,258.78358521091286,"[3, 0, 251]",251,a,0.08600767841562629,colour,0.5
023,69,1,1,4,27,177,259.299113374087,259.951573887025,"[63, 0, 191]",191,l,0.12969661259558052,colour,0.5
023,69,1,1,4,28,178,260.47039617749397,261.0715649545891,"[7, 0, 247]",247,a,0.07842417515348643,colour,0.5
023,69,1,1,4,29,179,261.5796726667322,264.6876191383926,"[90, 0, 164]",164,l,2.5846264607971534,colour,0.5
023,69,1,1,4,30,180,265.19671107141767,265.975544531364,"[20, 0, 234]",234,a,0.2468756203306839,colour,0.5
023,69,1,1,4,31,181,266.4864398848731,267.2556071843719,"[31, 0, 223]",223,a,0.2460107346996665,colour,0.5
023,69,1,1,4,32,182,267.77728761464823,268.4876289058011,"[44, 0, 210]",210,a,0.15206903021316975,colour,0.5
023,69,1,1,4,33,183,269.00035643053707,269.6475835189922,"[80, 0, 174]",174,l,0.12403704680036753,colour,0.5
023,69,1,1,4,34,184,270.15674910123926,270.88757943874225,"[30, 0, 224]",224,a,0.20783997571561486,colour,0.5
023,69,1,1,4,35,185,271.40669120592065,272.42354150977917,"[35, 0, 219]",219,a,0.4938764836406335,colour,0.5
023,69,1,1,4,36,186,272.9424157878384,273.75955667125527,"[51, 0, 203]",203,a,0.29412767849862576,colour,0.5
023,69,1,1,4,37,187,274.27053040021565,274.96757190837525,"[73, 0, 181]",181,l,0.17604124988429248,colour,0.5
023,69,1,1,4,38,188,275.4872724751476,276.2955368591938,"[42, 0, 212]",212,a,0.2857324588112533,colour,0.5
023,69,1,1,4,39,189,276.8151818937622,277.46353419998195,"[74, 0, 180]",180,l,0.12563212274108082,colour,0.5
023,69,1,1,4,40,190,277.9752314238576,278.831617084099,"[32, 0, 222]",222,a,0.3376240221550688,colour,0.5
023,69,1,1,4,41,191,279.3398008084623,280.18357630993705,"[4, 0, 250]",250,a,0.3209730042144656,colour,0.5
023,69,1,1,4,42,192,280.6991028977791,281.46354404615704,"[65, 0, 189]",189,l,0.24175995565019548,colour,0.5
023,69,1,1,4,43,193,281.97190854582004,282.64750317437574,"[56, 0, 198]",198,a,0.1520008947700262,colour,0.5
023,69,1,1,4,44,194,283.15598110167775,283.85551210993435,"[15, 0, 239]",239,a,0.17626416659913957,colour,0.5
023,69,1,1,4,45,195,284.37461954483297,285.1196232155198,"[84, 0, 170]",170,l,0.22161828144453466,colour,0.5
023,69,1,1,4,46,196,285.6402619233122,286.30357249756344,"[24, 0, 230]",230,a,0.1399192773969844,colour,0.5
023,69,1,1,4,47,197,286.8126380429603,287.47173722286243,"[86, 0, 168]",168,l,0.13609818427357823,colour,0.5
023,69,1,1,4,48,198,287.9862508388469,288.64766858972143,"[26, 0, 228]",228,a,0.13103765808045864,colour,0.5
023,69,1,1,4,49,199,289.17020051483996,290.13557791372295,"[61, 0, 193]",193,a,0.43280397809576243,colour,0.5
023,69,1,1,4,50,200,290.6563040553592,291.4475050648907,"[18, 0, 236]",236,a,0.2592132376739755,colour,0.5
023,69,1,1,5,1,201,300.24950493569486,300.9915252234787,"[98, 0, 156]",156,l,0.21820678806398064,colour,0.4
023,69,1,1,5,2,202,301.49698117095977,302.0636801592773,"[59, 0, 195]",195,a,0.043942964752204716,colour,0.4
023,69,1,1,5,3,203,302.5751036602305,303.3035378390923,"[25, 0, 229]",229,a,0.21254919131752104,colour,0.4
023,69,1,1,5,4,204,303.8174272093456,304.47954718745314,"[89, 0, 165]",165,l,0.13879878574516624,colour,0.4
023,69,1,1,5,5,205,304.98931535403244,305.60763927176595,"[70, 0, 184]",184,l,0.09519649762660265,colour,0.4
023,69,1,1,5,6,206,306.11453000002075,306.79170276923105,"[29, 0, 225]",225,a,0.16665235697291791,colour,0.4
023,69,1,1,5,7,207,307.3056126193842,308.0315706890542,"[9, 0, 245]",245,a,0.2031193384900689,colour,0.4
023,69,1,1,5,8,208,308.55141304037534,309.15964859491214,"[77, 0, 177]",177,l,0.07834895059932023,colour,0.4
023,69,1,1,5,9,209,309.6676881717285,310.27963611786254,"[41, 0, 213]",213,a,0.08873427368234843,colour,0.4
023,69,1,1,5,10,210,310.7986131897196,311.44757083710283,"[64, 0, 190]",190,l,0.13177730061579496,colour,0.4
023,69,1,1,5,11,211,311.96458104241174,312.55953099252656,"[44, 0, 210]",210,a,0.07193674519658089,colour,0.4
023,69,1,1,5,12,212,313.062981082825,313.6795449031051,"[72, 0, 182]",182,l,0.0931102957110852,colour,0.4
023,69,1,1,5,13,213,314.1879314582329,314.97554177441634,"[95, 0, 159]",159,l,0.2640929885674268,colour,0.4
023,69,1,1,5,14,214,315.4849137319252,316.16750739642885,"[14, 0, 240]",240,a,0.16005858848802745,colour,0.4
023,69,1,1,5,15,215,316.6900637400104,317.43949108803645,"[0, 0, 254]",254,a,0.22584779269527644,colour,0.4
023,69,1,1,5,16,216,317.9440329192439,318.6235364684835,"[92, 0, 162]",162,l,0.1469127993332222,colour,0.4
023,69,1,1,5,17,217,319.13242045103107,319.6875541538466,"[24, 0, 230]",230,a,0.02594381244853139,colour,0.4
023,69,1,1,5,18,218,320.2068738716189,320.8955288247671,"[21, 0, 233]",233,a,0.17140528955496848,colour,0.4
023,69,1,1,5,19,219,321.4111676586326,322.247525859857,"[61, 0, 193]",193,a,0.319057731423527,colour,0.4
023,69,1,1,5,20,220,322.7569966727169,323.6795464785537,"[18, 0, 236]",236,a,0.40548328042495996,colour,0.4
023,69,1,1,5,21,221,324.196934775915,324.83156233944464,"[43, 0, 211]",211,a,0.11715734610334039,colour,0.4
023,69,1,1,5,22,222,325.3411832076963,326.0395362228155,"[12, 0, 242]",242,a,0.1804570503300056,colour,0.4
023,69,1,1,5,23,223,326.5614163329592,327.3195082911989,"[6, 0, 248]",248,a,0.24047011020593345,colour,0.4
023,69,1,1,5,24,224,327.8291224640561,328.5675323662581,"[84, 0, 170]",170,l,0.21766131138429046,colour,0.4
023,69,1,1,5,25,225,329.0891312704189,329.8315753364004,"[96, 0, 158]",158,l,0.22433463670313358,colour,0.4
023,69,1,1,5,26,226,330.3410579646006,331.1595280780457,"[3, 0, 251]",251,a,0.30077225307468325,colour,0.4
023,69,1,1,5,27,227,331.6714104095008,332.40750134689733,"[93, 0, 161]",161,l,0.21864356310106814,colour,0.4
023,69,1,1,5,28,228,332.92238675348926,333.66350986028556,"[79, 0, 175]",175,l,0.22400853224098682,colour,0.4
023,69,1,1,5,29,229,334.1743997000158,334.9115374799585,"[56, 0, 198]",198,a,0.2196758333593607,colour,0.4
023,69,1,1,5,30,230,335.4263228497002,336.25551108596846,"[13, 0, 241]",241,a,0.31126115762162954,colour,0.4
023,69,1,1,5,31,231,336.76608939352445,337.47956727363635,"[74, 0, 180]",180,l,0.1963093486847356,colour,0.4
023,69,1,1,5,32,232,337.9952163473936,338.6475527989678,"[48, 0, 206]",206,a,0.13260280166286975,colour,0.4
023,69,1,1,5,33,233,339.1707554437453,339.7915566524025,"[88, 0, 166]",166,l,0.09006507915910333,colour,0.4
023,69,1,1,5,34,234,340.31059240724426,340.983513215906,"[91, 0, 163]",163,l,0.14166795322671533,colour,0.4
023,69,1,1,5,35,235,341.497736961348,342.0875279236352,"[53, 0, 201]",201,a,0.05813914106693119,colour,0.4
023,69,1,1,5,36,236,342.6077712101396,343.5515083511127,"[5, 0, 249]",249,a,0.4118344398448244,colour,0.4
023,69,1,1,5,37,237,344.06969694339205,344.8634926098166,"[54, 0, 200]",200,a,0.26147942699026316,colour,0.4
023,69,1,1,5,38,238,345.3828844014788,346.13549087382853,"[94, 0, 160]",160,l,0.23411698173731565,colour,0.4
023,69,1,1,5,39,239,346.65290358965285,347.5194709546631,"[99, 0, 155]",155,l,0.33438109478447586,colour,0.4
023,69,1,1,5,40,240,348.0378481991356,348.75951295439154,"[38, 0, 216]",216,a,0.2031276092166081,colour,0.4
023,69,1,1,5,41,241,349.27290450339206,350.0314883752726,"[78, 0, 176]",176,l,0.23380505573004484,colour,0.4
023,69,1,1,5,42,242,350.5471961321309,351.2555150244152,"[46, 0, 208]",208,a,0.17626022815238684,colour,0.4
023,69,1,1,5,43,243,351.7670082360273,352.3755478396779,"[83, 0, 171]",171,l,0.07706580066587776,colour,0.4
023,69,1,1,5,44,244,352.8919326176401,353.51151802390814,"[45, 0, 209]",209,a,0.09835396031849086,colour,0.4
023,69,1,1,5,45,245,354.0235543490853,354.879485511221,"[73, 0, 181]",181,l,0.3390796766616404,colour,0.4
023,69,1,1,5,46,246,355.39960473624524,356.1355330152437,"[63, 0, 191]",191,l,0.21893658442422748,colour,0.4
023,69,1,1,5,47,247,356.64522832038347,357.38350825337693,"[86, 0, 168]",168,l,0.2075048127444461,colour,0.4
023,69,1,1,5,48,248,357.9005322433077,358.61548350099474,"[87, 0, 167]",167,l,0.19083685951773077,colour,0.4
023,69,1,1,5,49,249,359.1274284538813,359.85548769147135,"[60, 0, 194]",194,a,0.20656864100601524,colour,0.4
023,69,1,1,5,50,250,360.3755356303882,361.0395318904193,"[55, 0, 199]",199,a,0.14085702446755022,colour,0.4
023,69,1,1,6,1,251,367.90760492836125,368.8795560095459,"[2, 0, 252]",252,a,0.4481375813484192,colour,0.28
023,69,1,1,6,2,252,369.39351863518823,369.9595457223477,"[84, 0, 170]",170,l,0.04696848918683827,colour,0.28
023,69,1,1,6,3,253,370.4704012974398,371.0475049073575,"[75, 0, 179]",179,l,0.04522926569916308,colour,0.28
023,69,1,1,6,4,254,371.5651192723308,372.1115064448677,"[82, 0, 172]",172,l,0.013203684473410249,colour,0.28
023,69,1,1,6,5,255,372.6324775586836,373.3195205004886,"[46, 0, 208]",208,a,0.16831635602284223,colour,0.28
023,69,1,1,6,6,256,373.83940105489455,374.64749017741997,"[78, 0, 176]",176,l,0.28999269020278007,colour,0.28
023,69,1,1,6,7,257,375.1557447941741,375.69548621063586,"[53, 0, 201]",201,a,0.021518559544347227,colour,0.28
023,69,1,1,6,8,258,376.20743234513793,376.863450074452,"[96, 0, 158]",158,l,0.1342900375602767,colour,0.28
023,69,1,1,6,9,259,377.3857594766887,377.94351658714004,"[95, 0, 159]",159,l,0.036922267405316234,colour,0.28
023,69,1,1,6,10,260,378.4613999489229,379.0315025537275,"[39, 0, 215]",215,a,0.04450970911420882,colour,0.28
023,69,1,1,6,11,261,379.548012968502,380.23147230630275,"[92, 0, 162]",162,l,0.15081975085195154,colour,0.28
023,69,1,1,6,12,262,380.7521783617558,381.31950002047233,"[6, 0, 248]",248,a,0.048522605211474,colour,0.28
023,69,1,1,6,13,263,381.8294221807737,382.4634644892067,"[50, 0, 204]",204,a,0.1169556969543919,colour,0.28
023,69,1,1,6,14,264,382.9723248409573,383.73548914084677,"[1, 0, 253]",253,a,0.24635141133330762,colour,0.28
023,69,1,1,6,15,265,384.25614005792886,384.79946822917555,"[90, 0, 164]",164,l,0.025325080379843712,colour,0.28
023,69,1,1,6,16,266,385.3226752062328,385.93548567499965,"[61, 0, 193]",193,a,0.09408270136918873,colour,0.28
023,69,1,1,6,17,267,386.4524395604385,387.0874790867092,"[97, 0, 157]",157,l,0.1162786758504808,colour,0.28
023,69,1,1,6,18,268,387.597368163988,388.2634537765989,"[77, 0, 177]",177,l,0.14120242733042687,colour,0.28
023,69,1,1,6,19,269,388.77573743707035,389.48749145353213,"[67, 0, 187]",187,l,0.18014866893645376,colour,0.28
023,69,1,1,6,20,270,390.0099414587021,390.6475319251185,"[76, 0, 178]",178,l,0.11419129255227745,colour,0.28
023,69,1,1,6,21,271,391.16628489864524,391.8794823604403,"[48, 0, 206]",206,a,0.19939473760314286,colour,0.28
023,69,1,1,6,22,272,392.39107363973744,393.25554416899104,"[69, 0, 185]",185,l,0.34118517686147243,colour,0.28
023,69,1,1,6,23,273,393.7684504998615,394.359467110713,"[88, 0, 166]",166,l,0.06766863691154867,colour,0.28
023,69,1,1,6,24,274,394.87058262410574,395.7515182760544,"[68, 0, 186]",186,l,0.35752190579660237,colour,0.28
023,69,1,1,6,25,275,396.26123563642614,396.9354860688327,"[20, 0, 234]",234,a,0.14552567398641258,colour,0.28
023,69,1,1,6,26,276,397.45439500536304,398.12748122925404,"[85, 0, 169]",169,l,0.1497150131035596,colour,0.28
023,69,1,1,6,27,277,398.641446611844,399.2555213259766,"[81, 0, 173]",173,l,0.08730382542125881,colour,0.28
023,69,1,1,6,28,278,399.7744176593842,400.49548179958947,"[86, 0, 168]",168,l,0.1891968852141872,colour,0.28
023,69,1,1,6,29,279,401.00877173629124,401.6154886209406,"[62, 0, 192]",192,a,0.0755298015428707,colour,0.28
023,69,1,1,6,30,280,402.134520043619,402.82343139045406,"[80, 0, 174]",174,l,0.1568834027275443,colour,0.28
023,69,1,1,6,31,281,403.3381415356416,403.9274283751147,"[42, 0, 212]",212,a,0.06545246590394527,colour,0.28
023,69,1,1,6,32,282,404.4426379168872,405.1835400761338,"[54, 0, 200]",200,a,0.22208695800509304,colour,0.28
023,69,1,1,6,33,283,405.6967528191162,406.67149075400084,"[70, 0, 184]",184,l,0.45578725065570325,colour,0.28
023,69,1,1,6,34,284,407.1850248753326,407.9275217166869,"[59, 0, 195]",195,l,0.2252448146464303,colour,0.28
023,69,1,1,6,35,285,408.4415721698897,409.21550342964474,"[49, 0, 205]",205,a,0.24958291719667614,colour,0.28
023,69,1,1,6,36,286,409.73139471863396,410.47951174131595,"[13, 0, 241]",241,a,0.22009842994157225,colour,0.28
023,69,1,1,6,37,287,410.9950320274802,411.75944993901066,"[23, 0, 231]",231,a,0.2473033369751647,colour,0.28
023,69,1,1,6,38,288,412.27755109756254,413.0714948500972,"[87, 0, 167]",167,l,0.2701617603888735,colour,0.28
023,69,1,1,6,39,289,413.58061317086685,414.2875181562267,"[60, 0, 194]",194,a,0.1891960974317044,colour,0.28
023,69,1,1,6,40,290,414.8037851743866,415.6235018101288,"[99, 0, 155]",155,l,0.30050443788059056,colour,0.28
023,69,1,1,6,41,291,416.14477342832834,416.86350954521913,"[98, 0, 156]",156,l,0.19563823519274592,colour,0.28
023,69,1,1,6,42,292,417.3876664786367,418.2074528251542,"[89, 0, 165]",165,l,0.30250753823202103,colour,0.28
023,69,1,1,6,43,293,418.71794724348,419.32745570805855,"[58, 0, 196]",196,a,0.08749799139332026,colour,0.28
023,69,1,1,6,44,294,419.87851153023075,420.5915364874527,"[32, 0, 222]",222,a,0.19537987222429365,colour,0.28
023,69,1,1,6,45,295,421.1003602114506,421.79156925540883,"[55, 0, 199]",199,a,0.16071749269030988,colour,0.28
023,69,1,1,6,46,296,422.30107393907383,422.9754626114154,"[5, 0, 249]",249,a,0.14188259933143854,colour,0.28
023,69,1,1,6,47,297,423.49073123012204,424.22352331411093,"[51, 0, 203]",203,a,0.2149851283757016,colour,0.28
023,69,1,1,6,48,298,424.7437473020982,425.4315038927598,"[79, 0, 175]",175,l,0.1699425458209589,colour,0.28
023,69,1,1,6,49,299,425.94881145178806,426.59949178120587,"[0, 0, 254]",254,a,0.11701792466919869,colour,0.28
023,69,1,1,6,50,300,427.1098794674035,427.82346014119685,"[65, 0, 189]",189,l,0.18197965866420418,colour,0.28
023,69,1,1,7,1,301,433.39679976552725,434.41545033920556,"[68, 0, 186]",186,l,0.4949946121778339,colour,0.14
023,69,1,1,7,2,302,434.93546558881644,435.5515115018934,"[83, 0, 171]",171,l,0.0979258498409763,colour,0.14
023,69,1,1,7,3,303,436.06438002351206,436.74343222542666,"[46, 0, 208]",208,a,0.15960921032819897,colour,0.14
023,69,1,1,7,4,304,437.2560341133503,438.407424153178,"[75, 0, 179]",179,l,0.6341360438382253,colour,0.14
023,69,1,1,7,5,305,438.91843647893984,439.5114400424063,"[73, 0, 181]",181,l,0.08089004445355386,colour,0.14
023,69,1,1,7,6,306,440.0584502792917,440.7194572488079,"[20, 0, 234]",234,a,0.14364033367019147,colour,0.14
023,69,1,1,7,7,307,441.2331410314655,441.94341458112467,"[93, 0, 161]",161,l,0.18903777142986655,colour,0.14
023,69,1,1,7,8,308,442.45947404240724,443.1434359275736,"[0, 0, 254]",254,a,0.16736285504885018,colour,0.14
023,69,1,1,7,9,309,443.66422902292106,444.463485756889,"[70, 0, 184]",184,l,0.28139385220129043,colour,0.14
023,69,1,1,7,10,310,444.97957160591614,445.67143167718314,"[74, 0, 180]",180,l,0.17334143607877195,colour,0.14
023,69,1,1,7,11,311,446.18639112683013,446.9114850984188,"[50, 0, 204]",204,a,0.19632155785802752,colour,0.14
023,69,1,1,7,12,312,447.4346125186421,448.31144468986895,"[58, 0, 196]",196,l,0.3594927107915282,colour,0.14
023,69,1,1,7,13,313,448.8210754041793,449.5596101555275,"[82, 0, 172]",172,l,0.21633089985698462,colour,0.14
023,69,1,1,7,14,314,450.0778074124828,450.72743577940855,"[52, 0, 202]",202,a,0.12491650460287929,colour,0.14
023,69,1,1,7,15,315,451.24358228070196,451.99141927890014,"[88, 0, 166]",166,l,0.23063617141451687,colour,0.14
023,69,1,1,7,16,316,452.5099914771272,453.23945438163355,"[94, 0, 160]",160,l,0.21134441671893,colour,0.14
023,69,1,1,7,17,317,453.76257943874225,454.54347546969075,"[85, 0, 169]",169,l,0.2632938752649352,colour,0.14
023,69,1,1,7,18,318,455.0642496604705,455.8634949729312,"[69, 0, 185]",185,l,0.28059710189700127,colour,0.14
023,69,1,1,7,19,319,456.3810482918052,457.1994542082539,"[76, 0, 178]",178,l,0.3007608314510435,colour,0.14
023,69,1,1,7,20,320,457.7109029153362,458.39142140571494,"[53, 0, 201]",201,a,0.1624090609839186,colour,0.14
023,69,1,1,7,21,321,458.9122424641391,459.6794653462712,"[62, 0, 192]",192,a,0.24786141666118056,colour,0.14
023,69,1,1,7,22,322,460.20763163117226,460.9514502193779,"[54, 0, 200]",200,a,0.21637343522161245,colour,0.14
023,69,1,1,7,23,323,461.47120198619086,462.23145222011954,"[78, 0, 176]",176,l,0.23886952036991715,colour,0.14
023,69,1,1,7,24,324,462.742540164385,463.479423519806,"[89, 0, 165]",165,l,0.21973136556334794,colour,0.14
023,69,1,1,7,25,325,463.9934826376848,464.71940250415355,"[95, 0, 159]",159,l,0.20657257945276797,colour,0.14
023,69,1,1,7,26,326,465.3523853671504,466.1114532756619,"[56, 0, 198]",198,a,0.23628982959780842,colour,0.14
023,69,1,1,7,27,327,466.6241934035206,467.3114273606334,"[96, 0, 158]",158,l,0.16871650342363864,colour,0.14
023,69,1,1,7,28,328,467.83274387719575,468.5514528187923,"[80, 0, 174]",174,l,0.2008692966774106,colour,0.14
023,69,1,1,7,29,329,469.0616963573266,469.82342233194504,"[79, 0, 175]",175,l,0.24252834892831743,colour,0.14
023,69,1,1,7,30,330,470.3436463200487,471.0074444755446,"[72, 0, 182]",182,l,0.14652486110571772,colour,0.14
023,69,1,1,7,31,331,471.51858873979654,472.3194472450996,"[60, 0, 194]",194,a,0.2832933710888028,colour,0.14
023,69,1,1,7,32,332,472.8382703232346,473.6554340496659,"[55, 0, 199]",199,a,0.29957693070173264,colour,0.14
023,69,1,1,7,33,333,474.1675314210588,474.8394294118043,"[86, 0, 168]",168,l,0.15329704177565873,colour,0.14
023,69,1,1,7,34,334,475.35939661227167,476.0314517475199,"[99, 0, 155]",155,l,0.15400202595628798,colour,0.14
023,69,1,1,7,35,335,476.5503847086802,477.21542032808065,"[97, 0, 157]",157,l,0.14647759962826967,colour,0.14
023,69,1,1,7,36,336,477.7269537120592,478.46345661231317,"[64, 0, 190]",190,a,0.20429969462566078,colour,0.14
023,69,1,1,7,37,337,478.97334332647733,479.7114121582126,"[36, 0, 218]",218,a,0.2251282362267375,colour,0.14
023,69,1,1,7,38,338,480.2217927550664,480.87142387905624,"[90, 0, 164]",164,l,0.1323326233541593,colour,0.14
023,69,1,1,7,39,339,481.3877491862513,482.0633958025137,"[65, 0, 189]",189,a,0.1611046432517469,colour,0.14
023,69,1,1,7,40,340,482.5818640254438,483.2953911361983,"[71, 0, 183]",183,l,0.19027444755192846,colour,0.14
023,69,1,1,7,41,341,483.8160786809167,484.55942859256174,"[61, 0, 193]",193,a,0.2202721160138026,colour,0.14
023,69,1,1,7,42,342,485.0797459221212,485.68741040001623,"[59, 0, 195]",195,a,0.08422867639455944,colour,0.14
023,69,1,1,7,43,343,486.20486171275843,486.83947234100197,"[44, 0, 210]",210,a,0.12372748390771449,colour,0.14
023,69,1,1,7,44,344,487.34859263093676,488.27142718737014,"[66, 0, 188]",188,a,0.399483825545758,colour,0.14
023,69,1,1,7,45,345,488.78612709243316,489.4153944130521,"[81, 0, 173]",173,l,0.1062738080509007,colour,0.14
023,69,1,1,7,46,346,489.9382370826788,490.67140607722104,"[6, 0, 248]",248,a,0.21509894984774292,colour,0.14
023,69,1,1,7,47,347,491.19328894419596,491.7594101605937,"[57, 0, 197]",197,a,0.04428285383619368,colour,0.14
023,69,1,1,7,48,348,492.2791859519202,492.999450978823,"[51, 0, 203]",203,a,0.1874245785875246,colour,0.14
023,69,1,1,7,49,349,493.5127976293443,494.20743904053234,"[26, 0, 228]",228,a,0.16198173817247152,colour,0.14
023,69,1,1,7,50,350,494.7183036741335,495.3034295315156,"[84, 0, 170]",170,l,0.06628781312610954,colour,0.14
023,69,1,1,8,1,351,499.7659909321228,501.23941460310016,"[41, 0, 213]",213,a,0.9549255158053711,colour,0.06
023,69,1,1,8,2,352,501.7562507286202,502.3753914828412,"[55, 0, 199]",199,a,0.09576993726659566,colour,0.06
023,69,1,1,8,3,353,502.89682851627003,503.5674016093835,"[87, 0, 167]",167,l,0.14715540839824826,colour,0.06
023,69,1,1,8,4,354,504.0842334025074,504.71941235032864,"[89, 0, 165]",165,l,0.11191131849773228,colour,0.06
023,69,1,1,8,5,355,505.22790681920014,505.8794059542706,"[60, 0, 194]",194,a,0.12816533958539367,colour,0.06
023,69,1,1,8,6,356,506.39982962224167,507.0873999237083,"[75, 0, 179]",179,l,0.16537865914870054,colour,0.06
023,69,1,1,8,7,357,507.60244444408454,508.1673916056752,"[52, 0, 202]",202,a,0.04225060890894383,colour,0.06
023,69,1,1,8,8,358,508.6823412091471,509.3595005875686,"[71, 0, 183]",183,l,0.15386496752034873,colour,0.06
023,69,1,1,8,9,359,509.85825367143843,510.48815075156745,"[91, 0, 163]",163,l,0.11233076441567391,colour,0.06
023,69,1,1,8,10,360,511.00289122282993,511.6714178925613,"[78, 0, 176]",176,l,0.1542371519608423,colour,0.06
023,69,1,1,8,11,361,512.1813881020062,512.8554691807367,"[69, 0, 185]",185,l,0.15088591701351106,colour,0.06
023,69,1,1,8,12,362,513.3687764467904,513.9515309578273,"[95, 0, 159]",159,l,0.059418352553620934,colour,0.06
023,69,1,1,8,13,363,514.4627571420278,515.1113930172287,"[82, 0, 172]",172,l,0.12743672472424805,colour,0.06
023,69,1,1,8,14,364,515.6324555032188,516.351385392365,"[58, 0, 196]",196,l,0.19566659210249782,colour,0.06
023,69,1,1,8,15,365,516.8667981586186,517.5913777675014,"[92, 0, 162]",162,l,0.2013757824897766,colour,0.06
023,69,1,1,8,16,366,518.1055168360472,518.8313713242533,"[80, 0, 174]",174,l,0.2026018250035122,colour,0.06
023,69,1,1,8,17,367,519.3398063223576,519.8953874340514,"[57, 0, 197]",197,a,0.030455711181275547,colour,0.06
023,69,1,1,8,18,368,520.415488936007,521.4394261034904,"[67, 0, 187]",187,a,0.49628997140098363,colour,0.06
023,69,1,1,8,19,369,521.9568466962082,522.5994323104387,"[56, 0, 198]",198,a,0.12588142708409578,colour,0.06
023,69,1,1,8,20,370,523.1158741961699,523.7833701710915,"[54, 0, 200]",200,a,0.1455284310504794,colour,0.06
023,69,1,1,8,21,371,524.2949968965258,524.9354132073931,"[84, 0, 170]",170,l,0.121852777316235,colour,0.06
023,69,1,1,8,22,372,525.4552579218289,526.1913846991956,"[74, 0, 180]",180,l,0.21782436361536384,colour,0.06
023,69,1,1,8,23,373,526.7080857355613,527.3594092153944,"[15, 0, 239]",239,a,0.13226763880811632,colour,0.06
023,69,1,1,8,24,374,527.8697417631047,528.5594061433803,"[96, 0, 158]",158,l,0.1714789387769997,colour,0.06
023,69,1,1,8,25,375,529.0772099482128,529.703376913676,"[90, 0, 164]",164,l,0.10694295226130635,colour,0.06
023,69,1,1,8,26,376,530.2085989167681,530.935443139635,"[51, 0, 203]",203,a,0.20905695960391313,colour,0.06
023,69,1,1,8,27,377,531.4501690386096,532.3274119911948,"[76, 0, 178]",178,l,0.3593836154323071,colour,0.06
023,69,1,1,8,28,378,532.840579835698,533.5033437518869,"[94, 0, 160]",160,l,0.13939979462884367,colour,0.06
023,69,1,1,8,29,379,534.0125699864002,534.6313728208188,"[50, 0, 204]",204,a,0.09545840509235859,colour,0.06
023,69,1,1,8,30,380,535.1256766272709,535.7834134941222,"[62, 0, 192]",192,a,0.13432587764691561,colour,0.06
023,69,1,1,8,31,381,536.2974832457257,537.02338814619,"[72, 0, 182]",182,l,0.20993050991091877,colour,0.06
023,69,1,1,8,32,382,537.5401136009023,538.1033778588753,"[86, 0, 168]",168,l,0.0399103764211759,colour,0.06
023,69,1,1,8,33,383,538.6111098420806,539.2554445259739,"[83, 0, 171]",171,l,0.12082090089097619,colour,0.06
023,69,1,1,8,34,384,539.7653781077825,540.3673790814355,"[88, 0, 166]",166,l,0.07837100606411695,colour,0.06
023,69,1,1,8,35,385,540.8852577169891,541.687414338463,"[70, 0, 184]",184,l,0.27250199287664145,colour,0.06
023,69,1,1,8,36,386,542.2110273706494,542.7753995172679,"[59, 0, 195]",195,a,0.03139030758757144,colour,0.06
023,69,1,1,8,37,387,543.2920525043737,543.9514313148102,"[81, 0, 173]",173,l,0.12754109385423362,colour,0.06
023,69,1,1,8,38,388,544.4713032046566,545.1834490977926,"[63, 0, 191]",191,a,0.19442597753368318,colour,0.06
023,69,1,1,8,39,389,545.6935197379207,546.3673845952144,"[73, 0, 181]",181,l,0.15501342224888504,colour,0.06
023,69,1,1,8,40,390,546.8852553538745,547.4873839336215,"[2, 0, 252]",252,a,0.08396519348025322,colour,0.06
023,69,1,1,8,41,391,548.009431822109,549.1114111341303,"[64, 0, 190]",190,a,0.5834953353041783,colour,0.06
023,69,1,1,8,42,392,549.6326307647396,550.2953627792886,"[98, 0, 156]",156,l,0.14469780982472003,colour,0.06
023,69,1,1,8,43,393,550.8196193557233,551.4073631069623,"[97, 0, 157]",157,l,0.04233843646943569,colour,0.06
023,69,1,1,8,44,394,551.9177728485083,552.5193791885395,"[53, 0, 201]",201,a,0.08363908901810646,colour,0.06
023,69,1,1,8,45,395,553.0306995018618,553.7593833790161,"[77, 0, 177]",177,l,0.20464588527102023,colour,0.06
023,69,1,1,8,46,396,554.2732282447396,554.871419152827,"[66, 0, 188]",188,a,0.07956042070873082,colour,0.06
023,69,1,1,8,47,397,555.38791499543,556.1595158688724,"[79, 0, 175]",175,l,0.25376398547086865,colour,0.06
023,69,1,1,8,48,398,556.6692651307676,557.3594296952942,"[93, 0, 161]",161,l,0.16854911879636347,colour,0.06
023,69,1,1,8,49,399,557.8777439245023,558.4154381299159,"[99, 0, 155]",155,l,0.019169662497006357,colour,0.06
023,69,1,1,8,50,400,558.9294503801502,559.6073714565719,"[65, 0, 189]",189,a,0.154968130053021,colour,0.06
023,69,1,1,9,1,401,565.1069142014021,565.8713915836997,"[57, 0, 197]",197,l,0.24571298714727163,colour,0.06
023,69,1,1,9,2,402,566.391471030307,567.0233574261656,"[64, 0, 190]",190,a,0.11445280618499964,colour,0.06
023,69,1,1,9,3,403,567.5363287415821,568.3274147481425,"[67, 0, 187]",187,a,0.274160084198229,colour,0.06
023,69,1,1,9,4,404,568.8360072845826,569.6473582390463,"[98, 0, 156]",156,l,0.2929823745507747,colour,0.06
023,69,1,1,9,5,405,570.1674313840922,571.1273981278064,"[70, 0, 184]",184,l,0.4399830016773194,colour,0.06
023,69,1,1,9,6,406,571.6225120753516,572.3593706184765,"[62, 0, 192]",192,l,0.21208681631833315,colour,0.06
023,69,1,1,9,7,407,572.8737511145882,573.5433703127783,"[50, 0, 204]",204,a,0.1462192366598174,colour,0.06
023,69,1,1,9,8,408,574.0612694283482,574.7914132924052,"[73, 0, 181]",181,l,0.20680888707283884,colour,0.06
023,69,1,1,9,9,409,575.301311822026,575.943322421168,"[92, 0, 162]",162,l,0.11865671759005636,colour,0.06
023,69,1,1,9,10,410,576.4576095758239,577.1753701363923,"[53, 0, 201]",201,a,0.194338149856776,colour,0.06
023,69,1,1,9,11,411,577.6888475437881,578.4313743175007,"[74, 0, 180]",180,l,0.219279624405317,colour,0.06
023,69,1,1,9,12,412,578.9391748297494,579.5993433012627,"[56, 0, 198]",198,a,0.13756447250489146,colour,0.06
023,69,1,1,9,13,413,580.1107266299659,580.7353705932619,"[51, 0, 203]",203,a,0.11443784006405622,colour,0.06
023,69,1,1,9,14,414,581.2466200143099,581.8713714975165,"[91, 0, 163]",163,l,0.09466874413192272,colour,0.06
023,69,1,1,9,15,415,582.3868264053017,582.9193639861187,"[82, 0, 172]",172,l,0.015462784795090556,colour,0.06
023,69,1,1,9,16,416,583.4375533660641,584.1673746702727,"[97, 0, 157]",157,l,0.21155236731283367,colour,0.06
023,69,1,1,9,17,417,584.6759829606162,585.2953336347127,"[85, 0, 169]",169,l,0.0880946678807959,colour,0.06
023,69,1,1,9,18,418,585.8179411783349,586.4554134908831,"[81, 0, 173]",173,l,0.1196937138447538,colour,0.06
023,69,1,1,9,19,419,586.9698900855146,587.7033985751914,"[83, 0, 171]",171,l,0.20193268067669123,colour,0.06
023,69,1,1,9,20,420,588.220688017318,588.9993410957977,"[58, 0, 196]",196,a,0.2612175195245072,colour,0.06
023,69,1,1,9,21,421,589.5195780807408,590.2313699063379,"[86, 0, 168]",168,l,0.19415737444069237,colour,0.06
023,69,1,1,9,22,422,590.7323931180872,591.4554056139896,"[60, 0, 194]",194,a,0.20445093151647598,colour,0.06
023,69,1,1,9,23,423,591.9738076708745,592.6554454711732,"[72, 0, 182]",182,l,0.15579599409829825,colour,0.06
023,69,1,1,9,24,424,593.1638336016331,593.8073545999359,"[75, 0, 179]",179,l,0.12085162091534585,colour,0.06
023,69,1,1,9,25,425,594.3199915401638,595.0633871379541,"[99, 0, 155]",155,l,0.2199586146743968,colour,0.06
023,69,1,1,9,26,426,595.5725109725026,596.5433439251501,"[68, 0, 186]",186,l,0.44746568030677736,colour,0.06
023,69,1,1,9,27,427,597.0535279929172,597.8474008531775,"[61, 0, 193]",193,a,0.2705851447535679,colour,0.06
023,69,1,1,9,28,428,598.3658324484713,599.1753287825268,"[55, 0, 199]",199,a,0.2816943565849215,colour,0.06
023,69,1,1,9,29,429,599.6827827104134,600.3594056707807,"[95, 0, 159]",159,l,0.15345024783164263,colour,0.06
023,69,1,1,9,30,430,600.868858366739,601.5193535885774,"[59, 0, 195]",195,a,0.13327706593554467,colour,0.06
023,69,1,1,9,31,431,602.0389868076891,602.7433357331902,"[76, 0, 178]",178,l,0.1810899607371539,colour,0.06
023,69,1,1,9,32,432,603.2575760200853,603.8313378472812,"[30, 0, 224]",224,a,0.05043078865855932,colour,0.06
023,69,1,1,9,33,433,604.3513657001313,605.127367801615,"[77, 0, 177]",177,l,0.25268602918367833,colour,0.06
023,69,1,1,9,34,434,605.6453389910748,606.2554031722248,"[78, 0, 176]",176,l,0.08676583191845566,colour,0.06
023,69,1,1,9,35,435,606.770325600286,607.3913323965389,"[47, 0, 207]",207,a,0.09770175151061267,colour,0.06
023,69,1,1,9,36,436,607.898799321265,608.639328508405,"[65, 0, 189]",189,a,0.21757112070918083,colour,0.06
023,69,1,1,9,37,437,609.1487146444852,609.8073738983367,"[94, 0, 160]",160,l,0.13532545848283917,colour,0.06
023,69,1,1,9,38,438,610.3206157860113,610.903358875541,"[52, 0, 202]",202,a,0.06260535377077758,colour,0.06
023,69,1,1,9,39,439,611.4200094995322,612.1753098779591,"[63, 0, 191]",191,a,0.24029681808315217,colour,0.06
023,69,1,1,9,40,440,612.69292699988,613.3353538941592,"[96, 0, 158]",158,l,0.11914311733562499,colour,0.06
023,69,1,1,9,41,441,613.8525854409672,614.4713433769066,"[66, 0, 188]",188,a,0.09536427597049624,colour,0.06
023,69,1,1,9,42,442,614.9775452686008,615.7593699883437,"[69, 0, 185]",185,a,0.2583341735880822,colour,0.06
023,69,1,1,9,43,443,616.2799551330972,617.007370432606,"[54, 0, 200]",200,a,0.21157127199694514,colour,0.06
023,69,1,1,9,44,444,617.5224472482223,618.2233445079764,"[84, 0, 170]",170,l,0.17757055349648,colour,0.06
023,69,1,1,9,45,445,618.7412436236627,619.3353369587567,"[45, 0, 209]",209,a,0.07098363805562258,colour,0.06
023,69,1,1,9,46,446,619.843336363323,620.4953585257754,"[79, 0, 175]",175,l,0.12859620712697506,colour,0.06
023,69,1,1,9,47,447,620.9976900937036,621.6233584501315,"[89, 0, 165]",165,l,0.09384560608305037,colour,0.06
023,69,1,1,9,48,448,622.1321274295915,622.8873844849877,"[80, 0, 174]",174,l,0.23192562302574515,colour,0.06
023,69,1,1,9,49,449,623.397643383476,624.0553518934175,"[87, 0, 167]",167,l,0.1342368683544919,colour,0.06
023,69,1,1,9,50,450,624.5695768203586,625.3593335968908,"[88, 0, 166]",166,l,0.2665761871030554,colour,0.06
023,69,1,1,10,1,451,630.8125179199269,631.567966778297,"[82, 0, 172]",172,l,0.23722875828389078,colour,0.06
023,69,1,1,10,2,452,632.0895566239487,632.695334579912,"[52, 0, 202]",202,a,0.07315924286376685,colour,0.06
023,69,1,1,10,3,453,633.2104377833894,633.8634933975991,"[66, 0, 188]",188,l,0.13588196283672005,colour,0.06
023,69,1,1,10,4,454,634.3830742351711,635.1437155581079,"[62, 0, 192]",192,a,0.2420005954336375,colour,0.06
023,69,1,1,10,5,455,635.6663928125054,636.8073451475939,"[67, 0, 187]",187,l,0.6233296993887052,colour,0.06
023,69,1,1,10,6,456,637.3259177397704,637.9273196737049,"[83, 0, 171]",171,l,0.08391714433673769,colour,0.06
023,69,1,1,10,7,457,638.4389290699037,639.1513837382663,"[75, 0, 179]",179,l,0.1941979406401515,colour,0.06
023,69,1,1,10,8,458,639.6608549449593,640.3673609645339,"[2, 0, 252]",252,a,0.1893520604353398,colour,0.06
023,69,1,1,10,9,459,640.873335213284,641.5033185457578,"[53, 0, 201]",201,a,0.11247845669277012,colour,0.06
023,69,1,1,10,10,460,642.0145908098202,642.7593632929493,"[86, 0, 168]",168,l,0.22667132457718253,colour,0.06
023,69,1,1,10,11,461,643.2816443381598,643.8393577317474,"[58, 0, 196]",196,a,0.025251037324778736,colour,0.06
023,69,1,1,10,12,462,644.3612102727639,644.9513537271414,"[95, 0, 159]",159,l,0.057837061234749854,colour,0.06
023,69,1,1,10,13,463,645.4745276211761,646.0392884936882,"[89, 0, 165]",165,l,0.047211098251864314,colour,0.06
023,69,1,1,10,14,464,646.5611040131189,647.1274249092676,"[61, 0, 193]",193,a,0.03979891794733703,colour,0.06
023,69,1,1,10,15,465,647.6377720293822,648.1993128176546,"[64, 0, 190]",190,a,0.044671186013147235,colour,0.06
023,69,1,1,10,16,466,648.7189629721688,649.3273434620351,"[70, 0, 184]",184,a,0.09038724517449737,colour,0.06
023,69,1,1,10,17,467,649.8367886748165,650.5033618687885,"[93, 0, 161]",161,l,0.13690674991812557,colour,0.06
023,69,1,1,10,18,468,651.0121064297855,651.5833110153908,"[54, 0, 200]",200,a,0.05360006680712104,colour,0.06
023,69,1,1,10,19,469,652.1028989423066,652.7353741378756,"[98, 0, 156]",156,l,0.11164862324949354,colour,0.06
023,69,1,1,10,20,470,653.248117810348,653.823406578158,"[57, 0, 197]",197,a,0.04281774698756635,colour,0.06
023,69,1,1,10,21,471,654.3438905045623,655.1833474854939,"[80, 0, 174]",174,l,0.3219524989835918,colour,0.06
023,69,1,1,10,22,472,655.705323300208,656.2473580815131,"[56, 0, 198]",198,a,0.02344958612229675,colour,0.06
023,69,1,1,10,23,473,656.7566044022096,657.6153342333855,"[74, 0, 180]",180,l,0.3417515273904428,colour,0.06
023,69,1,1,10,24,474,658.1330462720944,658.7593258775305,"[59, 0, 195]",195,a,0.10814221296459436,colour,0.06
023,69,1,1,10,25,475,659.2780536449281,659.83131106582,"[69, 0, 185]",185,a,0.034911683993414044,colour,0.06
023,69,1,1,10,26,476,660.3451382083585,661.1513199352194,"[85, 0, 169]",169,l,0.2779122543288395,colour,0.06
023,69,1,1,10,27,477,661.6739786787657,662.3433068249142,"[96, 0, 158]",158,l,0.14329178002662957,colour,0.06
023,69,1,1,10,28,478,662.8557255744236,663.6073257704265,"[81, 0, 173]",173,l,0.23388067411724478,colour,0.06
023,69,1,1,10,29,479,664.1205077933846,664.8233900365885,"[92, 0, 162]",162,l,0.18540021043736488,colour,0.06
023,69,1,1,10,30,480,665.341306481394,666.0553763118805,"[99, 0, 155]",155,l,0.18267952289897949,colour,0.06
023,69,1,1,10,31,481,666.5776644464349,667.1112902234308,"[63, 0, 191]",191,a,0.015535646118223667,colour,0.06
023,69,1,1,10,32,482,667.6320833188947,668.239324018592,"[88, 0, 166]",166,l,0.07386934710666537,colour,0.06
023,69,1,1,10,33,483,668.760538135306,669.3513180447044,"[94, 0, 160]",160,l,0.0722526095341891,colour,0.06
023,69,1,1,10,34,484,669.8726538597839,670.5432966636727,"[72, 0, 182]",182,a,0.15310445113573223,colour,0.06
023,69,1,1,10,35,485,671.0604218719527,672.0153107601218,"[84, 0, 170]",170,l,0.42989109363406897,colour,0.06
023,69,1,1,10,36,486,672.523082127911,673.1353097046958,"[90, 0, 164]",164,l,0.08891583676449955,colour,0.06
023,69,1,1,10,37,487,673.6503483173437,674.4553402356105,"[76, 0, 178]",178,l,0.281881827278994,colour,0.06
023,69,1,1,10,38,488,674.9629008957418,675.807314821519,"[68, 0, 186]",186,l,0.32105019805021584,colour,0.06
023,69,1,1,10,39,489,676.3242537407205,680.5432907559443,"[38, 0, 216]",216,a,3.6959296811837703,colour,0.06
023,69,1,1,10,40,490,681.0511802774854,682.1113079464994,"[51, 0, 203]",203,a,0.5447645273525268,colour,0.06
023,69,1,1,10,41,491,682.6269755311077,683.3672967676539,"[71, 0, 183]",183,l,0.2169744442217052,colour,0.06
023,69,1,1,10,42,492,683.876955838874,684.4633022247581,"[97, 0, 157]",157,l,0.06299407978076488,colour,0.06
023,69,1,1,10,43,493,684.9707494572503,685.6153381718323,"[79, 0, 175]",175,l,0.11986149230506271,colour,0.06
023,69,1,1,10,44,494,686.128344933386,686.7593573852209,"[73, 0, 181]",181,l,0.10450583370402455,colour,0.06
023,69,1,1,10,45,495,687.2720719131175,687.9675474899122,"[60, 0, 194]",194,a,0.17202953528612852,colour,0.06
023,69,1,1,10,46,496,688.4640599843115,689.2153297435725,"[40, 0, 214]",214,a,0.22793714539147913,colour,0.06
023,69,1,1,10,47,497,689.7296464366373,690.3432847694494,"[65, 0, 189]",189,a,0.09031595895066857,colour,0.06
023,69,1,1,10,48,498,690.8545881473692,691.4712626384571,"[91, 0, 163]",163,l,0.09151009970810264,colour,0.06
023,69,1,1,10,49,499,691.9904275748413,692.5672925140243,"[55, 0, 199]",199,a,0.05078958231024444,colour,0.06
023,69,1,1,10,50,500,693.0810582167469,693.7593266651966,"[77, 0, 177]",177,l,0.14533072023186833,colour,0.06
023,69,1,1,11,1,501,699.7520157033578,700.5672933018068,"[54, 0, 200]",200,l,0.2961788281099871,colour,0.06
023,69,1,1,11,2,502,701.0898535838351,701.7352949748747,"[76, 0, 178]",178,l,0.1277581030735746,colour,0.06
023,69,1,1,11,3,503,702.2496451447951,702.8872994142585,"[80, 0, 174]",174,l,0.11825105629395694,colour,0.06
023,69,1,1,11,4,504,703.402178913122,704.0952859006356,"[66, 0, 188]",188,a,0.16974601661786437,colour,0.06
023,69,1,1,11,5,505,704.6052978577791,705.2872979964595,"[94, 0, 160]",160,l,0.1585710325744003,colour,0.06
023,69,1,1,11,6,506,705.8085211715661,706.4392851066077,"[93, 0, 161]",161,l,0.1076187917497009,colour,0.06
023,69,1,1,11,7,507,706.943782827002,707.5592753865058,"[82, 0, 172]",172,l,0.09226116398349404,colour,0.06
023,69,1,1,11,8,508,708.068758014706,708.9592779071536,"[71, 0, 183]",183,l,0.3671664046123624,colour,0.06
023,69,1,1,11,9,509,709.4658823093632,710.0953839682043,"[83, 0, 171]",171,l,0.10622772795613855,colour,0.06
023,69,1,1,11,10,510,710.6064522201195,712.7992878478253,"[98, 0, 156]",156,l,1.669335235375911,colour,0.06
023,69,1,1,11,11,511,713.3184582979884,714.3352574019227,"[84, 0, 170]",170,l,0.49346688389778137,colour,0.06
023,69,1,1,11,12,512,714.8496725565055,715.4392851066077,"[75, 0, 179]",179,l,0.06634728389326483,colour,0.06
023,69,1,1,11,13,513,715.9590758641716,716.6393253576243,"[89, 0, 165]",165,l,0.1569357841508463,colour,0.06
023,69,1,1,11,14,514,717.163614623365,717.8872907496989,"[92, 0, 162]",162,l,0.20028916175942868,colour,0.06
023,69,1,1,11,15,515,718.3979718510527,719.0392751028994,"[64, 0, 190]",190,a,0.11793361650779843,colour,0.06
023,69,1,1,11,16,516,719.5541490879841,720.271383076557,"[61, 0, 193]",193,a,0.1941400453215465,colour,0.06
023,69,1,1,11,17,517,720.788629983319,721.3432981602382,"[95, 0, 159]",159,l,0.031408030656166375,colour,0.06
023,69,1,1,11,18,518,721.8538488986669,722.5193173547741,"[70, 0, 184]",184,a,0.1340387639356777,colour,0.06
023,69,1,1,11,19,519,723.0327975191176,723.6153125718702,"[67, 0, 187]",187,a,0.05934430961497128,colour,0.06
023,69,1,1,11,20,520,724.1267707312945,724.847368557821,"[78, 0, 176]",176,l,0.19720810500439256,colour,0.06
023,69,1,1,11,21,521,725.3611378050409,725.911253910861,"[77, 0, 177]",177,l,0.026731898076832294,colour,0.06
023,69,1,1,11,22,522,726.4236462727422,727.0632855256554,"[58, 0, 196]",196,a,0.11473558761645108,colour,0.06
023,69,1,1,11,23,523,727.581657650182,728.1433039891999,"[53, 0, 201]",201,a,0.03826016199309379,colour,0.06
023,69,1,1,11,24,524,728.6597663548309,729.5913667398272,"[72, 0, 182]",182,a,0.40818112494889647,colour,0.06
023,69,1,1,11,25,525,730.1128325241152,730.7272628811188,"[79, 0, 175]",175,l,0.0909728939877823,colour,0.06
023,69,1,1,11,26,526,731.2379061732208,731.8873096542666,"[68, 0, 186]",186,l,0.1345204374520108,colour,0.06
023,69,1,1,11,27,527,732.409993997775,733.1113284265157,"[90, 0, 164]",164,l,0.1840536512900144,colour,0.06
023,69,1,1,11,28,528,733.6233387578977,734.279288351885,"[87, 0, 167]",167,l,0.13246810634154826,colour,0.06
023,69,1,1,11,29,529,734.7953367854934,735.3992455487605,"[50, 0, 204]",204,a,0.08061435236595571,colour,0.06
023,69,1,1,11,30,530,735.920394680812,736.4953140212456,"[88, 0, 166]",166,l,0.05175214179325849,colour,0.06
023,69,1,1,11,31,531,737.0023551986087,737.615253101103,"[56, 0, 198]",198,a,0.08957631629891694,colour,0.06
023,69,1,1,11,32,532,738.1272185340058,739.1112803773722,"[65, 0, 189]",189,a,0.4605693279299885,colour,0.06
023,69,1,1,11,33,533,739.6256813533837,740.8793185205432,"[69, 0, 185]",185,a,0.7305837899912149,colour,0.06
023,69,1,1,11,34,534,741.3913611472817,742.1993120298721,"[73, 0, 181]",181,l,0.2961083296686411,colour,0.06
023,69,1,1,11,35,535,742.7584011272993,743.6712583849439,"[43, 0, 211]",211,a,0.38087578723207116,colour,0.06
023,69,1,1,11,36,536,744.1808587731794,744.8552395686274,"[60, 0, 194]",194,a,0.1562374954810366,colour,0.06
023,69,1,1,11,37,537,745.369787055417,746.1432417614851,"[74, 0, 180]",180,l,0.24881649296730757,colour,0.06
023,69,1,1,11,38,538,746.6593831427163,748.4312644344755,"[86, 0, 168]",168,l,1.2392381601966918,colour,0.06
023,69,1,1,11,39,539,748.9430821751012,749.6952239092207,"[57, 0, 197]",197,a,0.23423631698824465,colour,0.06
023,69,1,1,11,40,540,750.2114271243336,750.7432735054754,"[97, 0, 157]",157,l,0.014447056106291711,colour,0.06
023,69,1,1,11,41,541,751.2629335061647,751.8633075022371,"[59, 0, 195]",195,a,0.07711975753773004,colour,0.06
023,69,1,1,11,42,542,752.3879504415672,753.1032549790107,"[62, 0, 192]",192,a,0.18595907790586352,colour,0.06
023,69,1,1,11,43,543,753.6196397569729,754.3672884968109,"[41, 0, 213]",213,a,0.23029470699839294,colour,0.06
023,69,1,1,11,44,544,754.8852750462247,756.6472203930607,"[52, 0, 202]",202,a,1.2450083967996761,colour,0.06
023,69,1,1,11,45,545,757.157819574466,757.7832614695653,"[91, 0, 163]",163,l,0.10530415934044868,colour,0.06
023,69,1,1,11,46,546,758.3055586625123,758.9432668888476,"[55, 0, 199]",199,a,0.12001075979787856,colour,0.06
023,69,1,1,11,47,547,759.4648295592051,760.0393184259301,"[96, 0, 158]",158,l,0.04135539708659053,colour,0.06
023,69,1,1,11,48,548,760.5615545728942,761.1592657766305,"[81, 0, 173]",173,l,0.08055724471341819,colour,0.06
023,69,1,1,11,49,549,761.6719101999188,762.2792749610962,"[51, 0, 203]",203,a,0.08072699222248048,colour,0.06
023,69,1,1,11,50,550,762.7926928978413,763.5432379805716,"[9, 0, 245]",245,a,0.22196722880471498,colour,0.06
023,69,1,1,12,1,551,768.8487828585785,770.0713046224555,"[70, 0, 184]",184,a,0.6985483627067879,colour,0.06
023,69,1,1,12,2,552,770.5838907565922,771.3592969692545,"[65, 0, 189]",189,a,0.25227249099407345,colour,0.06
023,69,1,1,12,3,553,771.8651010765461,772.4872661737027,"[83, 0, 171]",171,l,0.09861862484831363,colour,0.06
023,69,1,1,12,4,554,773.0182941430248,773.655266271322,"[51, 0, 203]",203,a,0.10951358452439308,colour,0.06
023,69,1,1,12,5,555,774.1722776582465,774.927265323,"[59, 0, 195]",195,a,0.23705861694179475,colour,0.06
023,69,1,1,12,6,556,775.4444086481817,776.0553006934933,"[88, 0, 166]",166,l,0.09238246851600707,colour,0.06
023,69,1,1,12,7,557,776.5734652611427,777.2552157015307,"[74, 0, 180]",180,l,0.14938300102949142,colour,0.06
023,69,1,1,12,8,558,777.7645364591153,778.5112612363882,"[73, 0, 181]",181,l,0.22868427098728716,colour,0.06
023,69,1,1,12,9,559,779.0349554008571,779.7032674244838,"[52, 0, 202]",202,a,0.14978393609635532,colour,0.06
023,69,1,1,12,10,560,780.225090820808,780.9032115772134,"[91, 0, 163]",163,l,0.16002550546545535,colour,0.06
023,69,1,1,12,11,561,781.4173888487276,781.9592692424776,"[81, 0, 173]",173,l,0.01695467298850417,colour,0.06
023,69,1,1,12,12,562,782.4692154274089,783.0712628747569,"[49, 0, 205]",205,a,0.08449570392258465,colour,0.06
023,69,1,1,12,13,563,783.5851932050427,784.3592205632012,"[67, 0, 187]",187,l,0.2505521720740944,colour,0.06
023,69,1,1,12,14,564,784.8719575402793,785.4792533783475,"[76, 0, 178]",178,l,0.08393447345588356,colour,0.06
023,69,1,1,12,15,565,785.9968571094796,786.5592336388072,"[26, 0, 228]",228,a,0.038983263075351715,colour,0.06
023,69,1,1,12,16,566,787.0750256787287,787.7592549852561,"[84, 0, 170]",170,l,0.16268357157241553,colour,0.06
023,69,1,1,12,17,567,788.2762821259676,790.1112504450139,"[56, 0, 198]",198,a,1.3116108927642927,colour,0.06
023,69,1,1,12,18,568,790.6225640629418,791.3272339728428,"[87, 0, 167]",167,l,0.1814723851857707,colour,0.06
023,69,1,1,12,19,569,791.8411387030501,792.5352988345549,"[85, 0, 169]",169,l,0.18315489497035742,colour,0.06
023,69,1,1,12,20,570,793.0554767425638,793.8392671472393,"[68, 0, 186]",186,a,0.2727784727467224,colour,0.06
023,69,1,1,12,21,571,794.3557031252421,794.9512686564121,"[55, 0, 199]",199,a,0.07217108341865242,colour,0.06
023,69,1,1,12,22,572,795.4650426298613,796.10321165598,"[64, 0, 190]",190,a,0.11479545221664011,colour,0.06
023,69,1,1,12,23,573,796.6212328637484,797.3592091415776,"[62, 0, 192]",192,a,0.2128110988996923,colour,0.06
023,69,1,1,12,24,574,797.8667201772332,798.7432392409537,"[71, 0, 183]",183,l,0.3532900313148275,colour,0.06
023,69,1,1,12,25,575,799.2572006849805,799.8872127681971,"[54, 0, 200]",200,a,0.11600455921143293,colour,0.06
023,69,1,1,12,26,576,800.4042497549672,801.0232940169517,"[80, 0, 174]",174,l,0.09553796204272658,colour,0.06
023,69,1,1,12,27,577,801.5448622012045,802.1431889861124,"[58, 0, 196]",196,a,0.07466058351565152,colour,0.06
023,69,1,1,12,28,578,802.6486220906954,804.159291770542,"[89, 0, 165]",165,l,0.9772349181585014,colour,0.06
023,69,1,1,12,29,579,804.670128047117,805.4631978555117,"[69, 0, 185]",185,l,0.27000146510545164,colour,0.06
023,69,1,1,12,30,580,805.9827629394131,806.7032579722581,"[50, 0, 204]",204,a,0.19724158197641373,colour,0.06
023,69,1,1,12,31,581,807.2171886962606,807.8552281470038,"[78, 0, 176]",176,l,0.11036389786750078,colour,0.06
023,69,1,1,12,32,582,808.3619459769689,809.1192116464954,"[72, 0, 182]",182,l,0.2376344195799902,colour,0.06
023,69,1,1,12,33,583,809.6394407545449,810.3832132627722,"[5, 0, 249]",249,a,0.2204721897142008,colour,0.06
023,69,1,1,12,34,584,810.8894060960738,811.4792230522726,"[98, 0, 156]",156,l,0.06649812683463097,colour,0.06
023,69,1,1,12,35,585,811.9987676560413,812.5592237926321,"[93, 0, 161]",161,l,0.04262515634763986,colour,0.06
023,69,1,1,12,36,586,813.0811759766657,813.7031870799838,"[53, 0, 201]",201,a,0.10456097207497805,colour,0.06
023,69,1,1,12,37,587,814.2158519831719,814.9112669078168,"[86, 0, 168]",168,l,0.16912137705367059,colour,0.06
023,69,1,1,12,38,588,815.4225139657501,816.0071802049642,"[66, 0, 188]",188,a,0.061271791462786496,colour,0.06
023,69,1,1,12,39,589,816.5162036088295,817.191213376238,"[79, 0, 175]",175,l,0.15162319655064493,colour,0.06
023,69,1,1,12,40,590,817.7039641379379,818.3672818014165,"[97, 0, 157]",157,l,0.13992085272911936,colour,0.06
023,69,1,1,12,41,591,818.8758511010092,819.6312381254975,"[96, 0, 158]",158,l,0.23199060757178813,colour,0.06
023,69,1,1,12,42,592,820.1414202240994,820.7992567339679,"[60, 0, 194]",194,a,0.1326563647016883,colour,0.06
023,69,1,1,12,43,593,821.3149979676818,821.9272330275271,"[77, 0, 177]",177,l,0.08882643363904208,colour,0.06
023,69,1,1,12,44,594,822.4443070359994,823.0632457472384,"[82, 0, 172]",172,l,0.10055319603998214,colour,0.06
023,69,1,1,12,45,595,823.5866220780881,824.3352444049669,"[75, 0, 179]",179,l,0.21638446289580315,colour,0.06
023,69,1,1,12,46,596,824.8536248003365,825.5512050897814,"[90, 0, 164]",164,l,0.18074180092662573,colour,0.06
023,69,1,1,12,47,597,826.0740209778305,826.7672094913432,"[95, 0, 159]",159,l,0.16760743327904493,colour,0.06
023,69,1,1,12,48,598,827.2789220751729,828.0632063626545,"[99, 0, 155]",155,l,0.26686802692711353,colour,0.06
023,69,1,1,12,49,599,828.5786545750452,829.279214702663,"[57, 0, 197]",197,a,0.18229788611643016,colour,0.06
023,69,1,1,12,50,600,829.8005792686017,830.4472148003988,"[61, 0, 193]",193,a,0.12800740741658956,colour,0.06
023,69,1,1,13,1,601,837.4526723233284,838.1192569388077,"[89, 0, 165]",165,l,0.14729758689645678,colour,0.06
023,69,1,1,13,2,602,838.6298675417202,839.4552677678876,"[74, 0, 180]",180,l,0.30814544251188636,colour,0.06
023,69,1,1,13,3,603,839.9752554484876,840.6311861379072,"[20, 0, 234]",234,a,0.13696228223852813,colour,0.06
023,69,1,1,13,4,604,841.153076488059,841.8311767643318,"[98, 0, 156]",156,l,0.15979510557372123,colour,0.06
023,69,1,1,13,5,605,842.350302709965,843.0711868625367,"[94, 0, 160]",160,l,0.2057242353912443,colour,0.06
023,69,1,1,13,6,606,843.5829931817716,844.4152010347461,"[80, 0, 174]",174,l,0.30297385179437697,colour,0.06
023,69,1,1,13,7,607,844.9262492004782,845.6952365123434,"[79, 0, 175]",175,l,0.25148558686487377,colour,0.06
023,69,1,1,13,8,608,846.2078955079196,846.9191635184688,"[85, 0, 169]",169,l,0.19468906649854034,colour,0.06
023,69,1,1,13,9,609,847.4366613051388,848.1992037222954,"[95, 0, 159]",159,l,0.24429317261092365,colour,0.06
023,69,1,1,13,10,610,848.7206943188794,849.4152073361911,"[59, 0, 195]",195,a,0.1762460496975109,colour,0.06
023,69,1,1,13,11,611,849.927685162751,850.8232856674585,"[71, 0, 183]",183,l,0.37741309392731637,colour,0.06
023,69,1,1,13,12,612,851.3359202445718,851.9672174470033,"[84, 0, 170]",170,l,0.11389433266595006,colour,0.06
023,69,1,1,13,13,613,852.4858916513622,853.0872774376767,"[83, 0, 171]",171,l,0.07195368059910834,colour,0.06
023,69,1,1,13,14,614,853.6092138678068,854.2391908987192,"[54, 0, 200]",200,a,0.10667946934700012,colour,0.06
023,69,1,1,13,15,615,854.7498018954648,855.2872499471996,"[64, 0, 190]",190,a,0.014608532888814807,colour,0.06
023,69,1,1,13,16,616,855.796614421648,856.3592150493059,"[93, 0, 161]",161,l,0.03921957069542259,colour,0.06
023,69,1,1,13,17,617,856.874782597064,857.4712197092595,"[67, 0, 187]",187,a,0.08070926927030087,colour,0.06
023,69,1,1,13,18,618,857.9872031583218,858.5192267701495,"[88, 0, 166]",166,l,0.008573238039389253,colour,0.06
023,69,1,1,13,19,619,859.0341074506287,859.5991853690939,"[63, 0, 191]",191,a,0.04330296523403376,colour,0.06
023,69,1,1,13,20,620,860.1114158603596,860.8392313072691,"[55, 0, 199]",199,a,0.20440288237296045,colour,0.06
023,69,1,1,13,21,621,861.3457939618966,861.9511824041838,"[82, 0, 172]",172,l,0.0820388930151239,colour,0.06
023,69,1,1,13,22,622,862.4707396110753,863.0392439891584,"[87, 0, 167]",167,l,0.05466266314033419,colour,0.06
023,69,1,1,13,23,623,863.5489987648325,864.1671663258458,"[90, 0, 164]",164,l,0.10042440833058208,colour,0.06
023,69,1,1,13,24,624,864.6840315958252,865.3031865285011,"[22, 0, 232]",232,a,0.09605311241466552,colour,0.06
023,69,1,1,13,25,625,865.8169360834872,866.4391964912647,"[53, 0, 201]",201,a,0.09931297518778592,colour,0.06
023,69,1,1,13,26,626,866.9575690096244,868.8152047368931,"[61, 0, 193]",193,a,1.341545152128674,colour,0.06
023,69,1,1,13,27,627,869.3284635597374,870.0551963242469,"[75, 0, 179]",179,l,0.2033753382274881,colour,0.06
023,69,1,1,13,28,628,870.5628058213042,871.3031833778368,"[70, 0, 184]",184,l,0.21703194570727646,colour,0.06
023,69,1,1,13,29,629,871.8128392982762,872.5352125822101,"[72, 0, 182]",182,l,0.19904539617709816,colour,0.06
023,69,1,1,13,30,630,873.0383846173063,873.7351744580083,"[5, 0, 249]",249,a,0.17897618969436735,colour,0.06
023,69,1,1,13,31,631,874.2448225015542,874.9032037002034,"[52, 0, 202]",202,a,0.14422558865044266,colour,0.06
023,69,1,1,13,32,632,875.4231307284208,876.1031959020765,"[65, 0, 189]",189,a,0.15672625810839236,colour,0.06
023,69,1,1,13,33,633,876.6106049316004,877.2231948465342,"[66, 0, 188]",188,a,0.08919074106961489,colour,0.06
023,69,1,1,13,34,634,877.7356675530318,878.3911614672979,"[73, 0, 181]",181,a,0.13470160646829754,colour,0.06
023,69,1,1,13,35,635,878.9052068005549,879.4951549074613,"[96, 0, 158]",158,l,0.06656941294204444,colour,0.06
023,69,1,1,13,36,636,880.0146116836695,880.5991715844721,"[56, 0, 198]",198,a,0.07224473275709897,colour,0.06
023,69,1,1,13,37,637,881.1129810040584,881.6871953601949,"[99, 0, 155]",155,l,0.050851416192017496,colour,0.06
023,69,1,1,13,38,638,882.2067364193499,882.9591759010218,"[78, 0, 176]",176,l,0.22913995082490146,colour,0.06
023,69,1,1,13,39,639,883.4678294835612,884.1031667575007,"[86, 0, 168]",168,l,0.07735921582207084,colour,0.06
023,69,1,1,13,40,640,884.621516826679,885.311153637711,"[81, 0, 173]",173,l,0.15754230692982674,colour,0.06
023,69,1,1,13,41,641,885.8245113159064,887.6152239565272,"[60, 0, 194]",194,a,1.2590675146784633,colour,0.06
023,69,1,1,13,42,642,888.1334318473237,888.799169300124,"[92, 0, 162]",162,l,0.14732200524304062,colour,0.06
023,69,1,1,13,43,643,889.3094218971673,889.9512493580114,"[97, 0, 157]",157,l,0.12334112101234496,colour,0.06
023,69,1,1,13,44,644,890.4704883374507,891.1832620209316,"[50, 0, 204]",204,a,0.19435823592357337,colour,0.06
023,69,1,1,13,45,645,891.7069943884853,892.5992625629297,"[77, 0, 177]",177,l,0.36332049930933863,colour,0.06
023,69,1,1,13,46,646,893.108973227907,893.7191693474306,"[91, 0, 163]",163,l,0.09189252415671945,colour,0.06
023,69,1,1,13,47,647,894.2334943112219,894.863168474636,"[51, 0, 203]",203,a,0.09853946173097938,colour,0.06
023,69,1,1,13,48,648,895.3756541780895,896.0472335474333,"[62, 0, 192]",192,a,0.15500239457469434,colour,0.06
023,69,1,1,13,49,649,896.5615715081804,897.3112264991505,"[58, 0, 196]",196,a,0.22059743269346654,colour,0.06
023,69,1,1,13,50,650,897.8249248542124,898.6232875578571,"[69, 0, 185]",185,l,0.26575304905418307,colour,0.06
023,69,1,1,14,1,651,905.3886396719608,905.9751349316211,"[99, 0, 155]",155,l,0.06243560626171529,colour,0.06
023,69,1,1,14,2,652,906.4832741514547,907.1831852210453,"[77, 0, 177]",177,l,0.17678364948369563,colour,0.06
023,69,1,1,14,3,653,907.7018708469113,908.5431359744398,"[96, 0, 158]",158,l,0.3152811429463327,colour,0.06
023,69,1,1,14,4,654,909.0650160846999,909.8231616059784,"[72, 0, 182]",182,l,0.2356281684478745,colour,0.06
023,69,1,1,14,5,655,910.3298187835608,910.9992107327562,"[83, 0, 171]",171,l,0.14606209215708077,colour,0.06
023,69,1,1,14,6,656,911.5174044450978,912.119180138805,"[55, 0, 199]",199,a,0.07869907969143242,colour,0.06
023,69,1,1,14,7,657,912.6266990512377,913.4392008235445,"[71, 0, 183]",183,l,0.28915497986599803,colour,0.06
023,69,1,1,14,8,658,913.9489248794271,914.5751879432937,"[74, 0, 180]",180,l,0.09478453476913273,colour,0.06
023,69,1,1,14,9,659,915.0915920197731,915.8631787146442,"[91, 0, 163]",163,l,0.25388607766944915,colour,0.06
023,69,1,1,14,10,660,916.3753603689838,917.1031884190161,"[97, 0, 157]",157,l,0.2112526505952701,colour,0.06
023,69,1,1,14,11,661,917.6199827968376,918.2717402948765,"[46, 0, 208]",208,a,0.11987921537365764,colour,0.06
023,69,1,1,14,12,662,918.7942789153894,919.5511578281876,"[93, 0, 161]",161,l,0.23928857245482504,colour,0.06
023,69,1,1,14,13,663,920.072226615739,920.6791349095292,"[61, 0, 193]",193,a,0.08928211336024106,colour,0.06
023,69,1,1,14,14,664,921.2006357461214,921.7991720570717,"[79, 0, 175]",175,l,0.07990306662395597,colour,0.06
023,69,1,1,14,15,665,922.3149507062044,923.1191423295531,"[53, 0, 201]",201,a,0.2772631961852312,colour,0.06
023,69,1,1,14,16,666,923.6372623927891,924.2951642810367,"[80, 0, 174]",174,l,0.11005630425643176,colour,0.06
023,69,1,1,14,17,667,924.8017844370333,925.4071909963386,"[57, 0, 197]",197,a,0.08222439454402775,colour,0.06
023,69,1,1,14,18,668,925.9245773245348,926.6551835637074,"[84, 0, 170]",170,l,0.20731970528140664,colour,0.06
023,69,1,1,14,19,669,927.1642569859978,927.7591600684682,"[66, 0, 188]",188,a,0.07164214854128659,colour,0.06
023,69,1,1,14,20,670,928.2736669890583,928.8471724225674,"[63, 0, 191]",191,a,0.05039613018743694,colour,0.06
023,69,1,1,14,21,671,929.3671026015654,930.3271351174917,"[56, 0, 198]",198,a,0.43689328036271036,colour,0.06
023,69,1,1,14,22,672,930.835876133875,931.7031681752997,"[70, 0, 184]",184,l,0.3440137782599777,colour,0.06
023,69,1,1,14,23,673,932.2109037031187,932.9751613192493,"[62, 0, 192]",192,a,0.24108490371145308,colour,0.06
023,69,1,1,14,24,674,933.4822269150754,934.2712416858412,"[75, 0, 179]",179,l,0.2584212134825066,colour,0.06
023,69,1,1,14,25,675,934.7825474268757,935.4151277793571,"[37, 0, 217]",217,a,0.10939897538628429,colour,0.06
023,69,1,1,14,26,676,935.9231618422782,936.6071205766639,"[58, 0, 196]",196,a,0.16080335108563304,colour,0.06
023,69,1,1,14,27,677,937.1261972915381,937.8471326441504,"[32, 0, 222]",222,a,0.19626287487335503,colour,0.06
023,69,1,1,14,28,678,938.3623827520059,938.9751747100381,"[54, 0, 200]",200,a,0.08770121587440372,colour,0.06
023,69,1,1,14,29,679,939.4890487203375,940.2471505247522,"[94, 0, 160]",160,l,0.2346100767608732,colour,0.06
023,69,1,1,14,30,680,940.768038143171,941.3752453660127,"[59, 0, 195]",195,a,0.08386555046308786,colour,0.06
023,69,1,1,14,31,681,941.8929837924661,942.5431379437214,"[87, 0, 167]",167,l,0.12705666339024901,colour,0.06
023,69,1,1,14,32,682,943.0493118723389,943.9191473708488,"[73, 0, 181]",181,l,0.3530513606965542,colour,0.06
023,69,1,1,14,33,683,944.4403622752288,945.0551309458679,"[82, 0, 172]",172,l,0.09541350672952831,colour,0.06
023,69,1,1,14,34,684,945.56128321297,946.1751326472731,"[95, 0, 159]",159,l,0.09038370044436306,colour,0.06
023,69,1,1,14,35,685,946.6863785237074,947.2711707936833,"[90, 0, 164]",164,l,0.07183434534817934,colour,0.06
023,69,1,1,14,36,686,947.7852830806514,948.3751417845488,"[60, 0, 194]",194,a,0.0664544099709019,colour,0.06
023,69,1,1,14,37,687,948.8934347459581,949.9111385140568,"[67, 0, 187]",187,l,0.507213681936264,colour,0.06
023,69,1,1,14,38,688,950.4214907540008,950.9991173913004,"[89, 0, 165]",165,l,0.05485722306184471,colour,0.06
023,69,1,1,14,39,689,951.5152595601976,952.1111830973532,"[50, 0, 204]",204,a,0.07264803093858063,colour,0.06
023,69,1,1,14,40,690,952.6301093631191,953.2711794582428,"[65, 0, 189]",189,a,0.11809509329032153,colour,0.06
023,69,1,1,14,41,691,953.7745180900674,954.3671163861873,"[98, 0, 156]",156,l,0.07561211532447487,colour,0.06
023,69,1,1,14,42,692,954.8826205247315,955.5191267332993,"[81, 0, 173]",173,l,0.1130030594067648,colour,0.06
023,69,1,1,14,43,693,956.0390962968813,956.6551418160088,"[86, 0, 168]",168,l,0.09310044965241104,colour,0.06
023,69,1,1,14,44,694,957.1616449998692,957.76713308529,"[92, 0, 162]",162,l,0.08215822838246822,colour,0.06
023,69,1,1,14,45,695,958.286658390658,958.9991130590206,"[78, 0, 176]",176,l,0.19411050691269338,colour,0.06
023,69,1,1,14,46,696,959.5166813440155,960.1351364124566,"[68, 0, 186]",186,a,0.09509449149481952,colour,0.06
023,69,1,1,14,47,697,960.6416600763332,961.2951300163986,"[51, 0, 203]",203,a,0.12739379552658647,colour,0.06
023,69,1,1,14,48,698,961.8028714518296,962.4871665306855,"[88, 0, 166]",166,l,0.16098491416778415,colour,0.06
023,69,1,1,14,49,699,963.0060478979722,963.663136494346,"[52, 0, 202]",202,a,0.13373550248797983,colour,0.06
023,69,1,1,14,50,700,964.1720303229522,964.8232478582067,"[69, 0, 185]",185,a,0.13239366945344955,colour,0.06
023,69,1,1,15,1,701,971.4166925292229,971.9911337406375,"[98, 0, 156]",156,l,0.05061944085173309,colour,0.06
023,69,1,1,15,2,702,972.5112699010642,973.2471339831827,"[60, 0, 194]",194,a,0.21246293908916414,colour,0.06
023,69,1,1,15,3,703,973.7623707003659,974.4711393647594,"[84, 0, 170]",170,l,0.18508080148603767,colour,0.06
023,69,1,1,15,4,704,974.9822666934924,975.599161738297,"[56, 0, 198]",198,a,0.08344964915886521,colour,0.06
023,69,1,1,15,5,705,976.109136280138,976.7351082918467,"[55, 0, 199]",199,a,0.10775742551777512,colour,0.06
023,69,1,1,15,6,706,977.2536785209086,977.8872198574245,"[83, 0, 171]",171,l,0.10103920195251703,colour,0.06
023,69,1,1,15,7,707,978.411253910861,979.0391931829508,"[67, 0, 187]",187,a,0.10969751060474664,colour,0.06
023,69,1,1,15,8,708,979.5584404331166,980.3191557991086,"[74, 0, 180]",180,l,0.2433278561802581,colour,0.06
023,69,1,1,15,9,709,980.8421591578517,981.3991533888038,"[94, 0, 160]",160,l,0.040192764019593596,colour,0.06
023,69,1,1,15,10,710,981.9226210918278,982.5511141113238,"[61, 0, 193]",193,a,0.10791772091761231,colour,0.06
023,69,1,1,15,11,711,983.0697414480383,983.775117917452,"[71, 0, 183]",183,l,0.18195839098189026,colour,0.06
023,69,1,1,15,12,712,984.2881605189759,984.8231844491092,"[86, 0, 168]",168,l,0.01856707828119397,colour,0.06
023,69,1,1,15,13,713,985.3430059265811,985.9591156425886,"[58, 0, 196]",196,a,0.09266800677869469,colour,0.06
023,69,1,1,15,14,714,986.4679988373537,987.1271291309968,"[92, 0, 162]",162,l,0.13576183980330825,colour,0.06
023,69,1,1,15,15,715,987.6398298742715,988.2871420334559,"[80, 0, 174]",174,l,0.12390471447724849,colour,0.06
023,69,1,1,15,16,716,988.8097692693118,989.3830935336882,"[65, 0, 189]",189,a,0.043838595622219145,colour,0.06
023,69,1,1,15,17,717,989.8938829426188,990.6711252650712,"[79, 0, 175]",175,l,0.2538470870349556,colour,0.06
023,69,1,1,15,18,718,991.1907876287587,991.7831137772882,"[59, 0, 195]",195,a,0.07248655403964221,colour,0.06
023,69,1,1,15,19,719,992.2965943355812,992.8391958611319,"[57, 0, 197]",197,a,0.019299631705507636,colour,0.06
023,69,1,1,15,20,720,993.3591252524639,994.0551069212379,"[73, 0, 181]",181,l,0.17269671021495014,colour,0.06
023,69,1,1,15,21,721,994.5647407863289,995.1191399665549,"[99, 0, 155]",155,l,0.02722066082060337,colour,0.06
023,69,1,1,15,22,722,995.6405206799973,996.1991600054316,"[90, 0, 164]",164,l,0.027714149793609977,colour,0.06
023,69,1,1,15,23,723,996.7186892492464,997.3272867482156,"[52, 0, 202]",202,a,0.08608053997159004,colour,0.06
023,69,1,1,15,24,724,997.8363306320971,998.4470612005098,"[88, 0, 166]",166,l,0.07865299971308559,colour,0.06
023,69,1,1,15,25,725,998.9620864223689,999.5191235825187,"[48, 0, 206]",206,a,0.03745435329619795,colour,0.06
023,69,1,1,15,26,726,1000.0309740124503,1000.607106398209,"[44, 0, 210]",210,a,0.056883954093791544,colour,0.06
023,69,1,1,15,27,727,1001.1153964609839,1001.7591943329899,"[78, 0, 176]",176,l,0.1101559471571818,colour,0.06
023,69,1,1,15,28,728,1002.2824568423675,1002.8150861891918,"[76, 0, 178]",178,l,0.0137003242271021,colour,0.06
023,69,1,1,15,29,729,1003.33452681778,1004.1991596115986,"[97, 0, 157]",157,l,0.33971495006699115,colour,0.06
023,69,1,1,15,30,730,1004.7137484521372,1005.2871396703413,"[91, 0, 163]",163,l,0.04310998064465821,colour,0.06
023,69,1,1,15,31,731,1005.8068910433212,1006.463090335601,"[63, 0, 191]",191,a,0.13856523507274687,colour,0.06
023,69,1,1,15,32,732,1006.9720948348986,1007.6471258699894,"[51, 0, 203]",203,a,0.15714412869419903,colour,0.06
023,69,1,1,15,33,733,1008.1651009977795,1008.855119051761,"[26, 0, 228]",228,a,0.1566073166904971,colour,0.06
023,69,1,1,15,34,734,1009.369852039963,1010.015112655703,"[77, 0, 177]",177,l,0.12590545183047652,colour,0.06
023,69,1,1,15,35,735,1010.5310114278691,1011.1512384091038,"[75, 0, 179]",179,l,0.10205453669186682,colour,0.06
023,69,1,1,15,36,736,1011.660324434517,1012.3271055790829,"[68, 0, 186]",186,l,0.14542524330317974,colour,0.06
023,69,1,1,15,37,737,1012.8385282922536,1013.5190916809952,"[93, 0, 161]",161,l,0.1620419966056943,colour,0.06
023,69,1,1,15,38,738,1014.0258792216191,1014.6710961204953,"[69, 0, 185]",185,a,0.12690739589743316,colour,0.06
023,69,1,1,15,39,739,1015.1932566488395,1015.9031190234236,"[62, 0, 192]",192,a,0.17914121109060943,colour,0.06
023,69,1,1,15,40,740,1016.4124074855354,1017.4950781074585,"[72, 0, 182]",182,l,0.5650290815392509,colour,0.06
023,69,1,1,15,41,741,1018.0067217682954,1018.6950695216656,"[96, 0, 158]",158,l,0.1568227504612878,colour,0.06
023,69,1,1,15,42,742,1019.2100309404777,1020.1110779405572,"[50, 0, 204]",204,a,0.3830675398930907,colour,0.06
023,69,1,1,15,43,743,1020.6340734222904,1021.3350872604642,"[87, 0, 167]",167,l,0.18310015031602234,colour,0.06
023,69,1,1,15,44,744,1021.8555865468225,1022.4951320644468,"[66, 0, 188]",188,a,0.11620935914106667,colour,0.06
023,69,1,1,15,45,745,1023.0062849931419,1023.711109290598,"[89, 0, 165]",165,l,0.18804724887013435,colour,0.06
023,69,1,1,15,46,746,1024.2175774221541,1024.975085307029,"[54, 0, 200]",200,a,0.23502400889992714,colour,0.06
023,69,1,1,15,47,747,1025.4909356361022,1026.0631181411445,"[95, 0, 159]",159,l,0.04883492493536323,colour,0.06
023,69,1,1,15,48,748,1026.5846394576365,1027.247106020106,"[85, 0, 169]",169,l,0.13912843470461667,colour,0.06
023,69,1,1,15,49,749,1027.7564031470101,1028.4950875598006,"[70, 0, 184]",184,a,0.21511667291633785,colour,0.06
023,69,1,1,15,50,750,1029.01293902006,1029.839141116594,"[81, 0, 173]",173,l,0.30564294569194317,colour,0.06
023,69,1,1,16,1,751,1037.0314793167636,1037.6631049866555,"[86, 0, 168]",168,l,0.10461729194503278,colour,0.06
023,69,1,1,16,2,752,1038.1846156694228,1038.863055046997,"[57, 0, 197]",197,a,0.16106565250083804,colour,0.06
023,69,1,1,16,3,753,1039.3736561976839,1040.0391833367757,"[87, 0, 167]",167,l,0.14809866936411709,colour,0.06
023,69,1,1,16,4,754,1040.5492646108614,1041.2550715538673,"[89, 0, 165]",165,l,0.18671604967676103,colour,0.06
023,69,1,1,16,5,755,1041.7720128361834,1042.4551374049624,"[66, 0, 188]",188,a,0.16474102274514735,colour,0.06
023,69,1,1,16,6,756,1042.9794215506408,1043.7511295500444,"[52, 0, 202]",202,a,0.2534792348742485,colour,0.06
023,69,1,1,16,7,757,1044.2626286693849,1044.959107371862,"[77, 0, 177]",177,l,0.18077764089684933,colour,0.06
023,69,1,1,16,8,758,1045.478429058916,1046.087097843876,"[72, 0, 182]",182,l,0.09149631508626044,colour,0.06
023,69,1,1,16,9,759,1046.6066003062297,1047.575126109412,"[58, 0, 196]",196,l,0.4359157547587529,colour,0.06
023,69,1,1,16,10,760,1048.090668451041,1048.7750509636244,"[80, 0, 174]",174,l,0.16481900413054973,colour,0.06
023,69,1,1,16,11,761,1049.298367823707,1050.287093984196,"[64, 0, 190]",190,l,0.4703382820589468,colour,0.06
023,69,1,1,16,12,762,1050.799539515283,1051.431080508395,"[82, 0, 172]",172,l,0.11325512081384659,colour,0.06
023,69,1,1,16,13,763,1051.9435685748467,1052.5750796356006,"[94, 0, 160]",160,l,0.1111823096871376,colour,0.06
023,69,1,1,16,14,764,1053.090183232911,1053.6870709048817,"[99, 0, 155]",155,l,0.0766617147019133,colour,0.06
023,69,1,1,16,15,765,1054.2095374516211,1054.7751687235432,"[84, 0, 170]",170,l,0.0637494761031121,colour,0.06
023,69,1,1,16,16,766,1055.287789516151,1057.3110689608147,"[75, 0, 179]",179,l,1.4510681888787076,colour,0.06
023,69,1,1,16,17,767,1057.8204216199229,1058.4470647451235,"[88, 0, 166]",166,l,0.10320220363792032,colour,0.06
023,69,1,1,16,18,768,1058.9611128352117,1059.6550610775594,"[1, 0, 253]",253,a,0.1705663976026699,colour,0.06
023,69,1,1,16,19,769,1060.1671163074207,1060.8391040950082,"[81, 0, 173]",173,l,0.14883555506821722,colour,0.06
023,69,1,1,16,20,770,1061.3546145351138,1061.9514872409636,"[95, 0, 159]",159,l,0.07348377199377865,colour,0.06
023,69,1,1,16,21,771,1062.4639690058539,1063.0630917535163,"[65, 0, 189]",189,a,0.07571609073784202,colour,0.06
023,69,1,1,16,22,772,1063.5761182073038,1064.1430897369282,"[68, 0, 186]",186,a,0.04423559224233031,colour,0.06
023,69,1,1,16,23,773,1064.6426226356998,1065.2471461924724,"[92, 0, 162]",162,l,0.08661853347439319,colour,0.06
023,69,1,1,16,24,774,1065.7667274239939,1066.5590910665924,"[76, 0, 178]",178,l,0.27463821310084313,colour,0.06
023,69,1,1,16,25,775,1067.0685177687556,1067.6791313649155,"[55, 0, 199]",199,a,0.0927286590449512,colour,0.06
023,69,1,1,16,26,776,1068.196894209832,1069.1030844437191,"[67, 0, 187]",187,l,0.3884569274960086,colour,0.06
023,69,1,1,16,27,777,1069.6198469199007,1070.3751224860316,"[85, 0, 169]",169,l,0.22264582535717636,colour,0.06
023,69,1,1,16,28,778,1070.8873198942747,1071.5350526807597,"[97, 0, 157]",157,l,0.13012235995847732,colour,0.06
023,69,1,1,16,29,779,1072.0471094859531,1072.7670885806438,"[96, 0, 158]",158,l,0.19962198671419173,colour,0.06
023,69,1,1,16,30,780,1073.2871400641743,1074.8231025290443,"[69, 0, 185]",185,a,1.0182937491917983,colour,0.06
023,69,1,1,16,31,781,1075.3349588667043,1075.9990638282616,"[61, 0, 193]",193,a,0.13551056617870927,colour,0.06
023,69,1,1,16,32,782,1076.5218710516347,1077.20711726835,"[98, 0, 156]",156,l,0.16745659022126347,colour,0.06
023,69,1,1,16,33,783,1077.7179633912165,1078.4312703420874,"[63, 0, 191]",191,a,0.19602459797170013,colour,0.06
023,69,1,1,16,34,784,1078.9545749929966,1079.5431785098044,"[93, 0, 161]",161,l,0.07157480076421052,colour,0.06
023,69,1,1,16,35,785,1080.0514866895974,1080.8231080429396,"[78, 0, 176]",176,l,0.2530810566386208,colour,0.06
023,69,1,1,16,36,786,1081.3373191852588,1081.943070359761,"[62, 0, 192]",192,a,0.08701513626147062,colour,0.06
023,69,1,1,16,37,787,1082.45654382871,1083.0391065368894,"[83, 0, 171]",171,l,0.049882161314599216,colour,0.06
023,69,1,1,16,38,788,1083.5524015936535,1084.543026091531,"[70, 0, 184]",184,l,0.47230436105746776,colour,0.06
023,69,1,1,16,39,789,1085.0592257619137,1086.1591007552342,"[73, 0, 181]",181,l,0.5449531796621159,colour,0.06
023,69,1,1,16,40,790,1086.6669304121751,1087.2550471354043,"[59, 0, 195]",195,a,0.06487469398416579,colour,0.06
023,69,1,1,16,41,791,1087.7637735794997,1088.519139336422,"[25, 0, 229]",229,a,0.23194373992737383,colour,0.06
023,69,1,1,16,42,792,1089.0296640809393,1089.767311891308,"[51, 0, 203]",203,a,0.2146511470200494,colour,0.06
023,69,1,1,16,43,793,1090.2805435388582,1090.9750494670589,"[53, 0, 201]",201,a,0.17215438443236053,colour,0.06
023,69,1,1,16,44,794,1091.4833324406063,1092.3030136302114,"[40, 0, 214]",214,a,0.29636551113799214,colour,0.06
023,69,1,1,16,45,795,1092.8115163698094,1093.5270721808774,"[54, 0, 200]",200,a,0.19222437869757414,colour,0.06
023,69,1,1,16,46,796,1094.0458598128753,1094.6630695405183,"[90, 0, 164]",164,l,0.09382000612094998,colour,0.06
023,69,1,1,16,47,797,1095.1720807352103,1095.7830665158108,"[56, 0, 198]",198,a,0.07885858719237149,colour,0.06
023,69,1,1,16,48,798,1096.2945195551729,1097.079039756325,"[60, 0, 194]",194,a,0.25875046860892326,colour,0.06
023,69,1,1,16,49,799,1097.5938251260668,1098.711038792273,"[71, 0, 183]",183,l,0.59387632610742,colour,0.06
023,69,1,1,16,50,800,1099.2188538768096,1099.8391379658133,"[79, 0, 175]",175,l,0.09695147501770407,colour,0.06
