id,age,condition,counterbalance,block,trialinblock,trial,tstart,tend,trialstim,trialintensity,response,RT,trialtype,colourfreq
126,20,0,2,Practice,1,NA,5.5138953030109406e-06,1.313322547241114,"[83, 0, 171]",171,l,0.7892558044986799,colour,0.5
126,20,0,2,Practice,2,NA,1.8290173071436584,2.8414195151999593,"[0, 0, 254]",254,a,0.48915033251978457,colour,0.5
126,20,0,2,Practice,3,NA,3.3602642548503354,4.4653372266329825,"[23, 0, 231]",231,a,0.5818522101035342,colour,0.5
126,20,0,2,Practice,4,NA,4.985221325652674,5.937330449349247,"[73, 0, 181]",181,l,0.42882495280355215,colour,0.5
126,20,0,2,Practice,5,NA,6.4543355347123,7.441297659301199,"[48, 0, 206]",206,a,0.4640753442654386,colour,0.5
126,20,0,2,Practice,6,NA,7.953980679507367,8.921374963363633,"[82, 0, 172]",172,l,0.4446418050210923,colour,0.5
126,20,0,2,Practice,7,NA,9.438345784088597,10.361348118865862,"[44, 0, 210]",210,a,0.3997378562344238,colour,0.5
126,20,0,2,Practice,8,NA,10.875907027162611,12.009351477609016,"[69, 0, 185]",185,l,0.6101689442293718,colour,0.5
126,20,0,2,Practice,9,NA,12.5164410979487,13.473324421909638,"[93, 0, 161]",161,l,0.4338583037024364,colour,0.5
126,20,0,2,Practice,10,NA,13.985198482638225,14.945370813831687,"[28, 0, 226]",226,a,0.43710320023819804,colour,0.5
126,20,0,2,1,1,1,7.105922103510238,8.040017896331847,"[95, 0, 159]",159,l,0.4099884839961305,colour,0.5
126,20,0,2,1,2,2,8.559838979970664,9.456033010501415,"[60, 0, 194]",194,a,0.37286496127489954,colour,0.5
126,20,0,2,1,3,3,9.966030789189972,10.880014052381739,"[79, 0, 175]",175,l,0.39061796001624316,colour,0.5
126,20,0,2,1,4,4,11.38804102607537,12.34424142120406,"[68, 0, 186]",186,l,0.4336290854262188,colour,0.5
126,20,0,2,1,5,5,12.856688133790158,13.808024531812407,"[89, 0, 165]",165,l,0.42805262096226215,colour,0.5
126,20,0,2,1,6,6,14.325419524568133,15.303930503432639,"[77, 0, 177]",177,l,0.453854254912585,colour,0.5
126,20,0,2,1,7,7,15.81123516371008,16.711990323965438,"[44, 0, 210]",210,a,0.3773544109426439,colour,0.5
126,20,0,2,1,8,8,17.23316820675973,18.1279963797424,"[3, 0, 251]",251,a,0.37152037129271775,colour,0.5
126,20,0,2,1,9,9,18.627008614130318,19.568015221273527,"[20, 0, 234]",234,a,0.41771613468881696,colour,0.5
126,20,0,2,1,10,10,20.08017009415198,20.999930683057755,"[11, 0, 243]",243,a,0.3965484919026494,colour,0.5
126,20,0,2,1,11,11,21.51761436497327,22.359992501093075,"[5, 0, 249]",249,a,0.31912035297136754,colour,0.5
126,20,0,2,1,12,12,22.876934964908287,23.79997471498791,"[58, 0, 196]",196,l,0.39971737610176206,colour,0.5
126,20,0,2,1,13,13,24.314361118827946,25.176092843641527,"[37, 0, 217]",217,a,0.3383514555171132,colour,0.5
126,20,0,2,1,14,14,25.689494632650167,26.63999135105405,"[86, 0, 168]",168,l,0.4271771014900878,colour,0.5
126,20,0,2,1,15,15,27.158156312652864,28.071944622090086,"[23, 0, 231]",231,a,0.39071208925452083,colour,0.5
126,20,0,2,1,16,16,28.580033429549076,29.503984933020547,"[52, 0, 202]",202,a,0.40061140642501414,colour,0.5
126,20,0,2,1,17,17,30.017515115789138,30.911963227321394,"[19, 0, 235]",235,a,0.3711600023088977,colour,0.5
126,20,0,2,1,18,18,31.42377112188842,32.38394936081022,"[57, 0, 197]",197,a,0.436793637345545,colour,0.5
126,20,0,2,1,19,19,32.8927159771556,33.823965839343145,"[84, 0, 170]",170,l,0.40793221443891525,colour,0.5
126,20,0,2,1,20,20,34.33025201410055,35.34395115671214,"[71, 0, 183]",183,l,0.49032517487648875,colour,0.5
126,20,0,2,1,21,21,35.86155528167728,36.71197811467573,"[18, 0, 236]",236,a,0.32720443431753665,colour,0.5
126,20,0,2,1,22,22,37.22083964792546,38.21600006928202,"[8, 0, 246]",246,a,0.47182189975865185,colour,0.5
126,20,0,2,1,23,23,38.73714920133352,39.623927163658664,"[0, 0, 254]",254,a,0.36346228374168277,colour,0.5
126,20,0,2,1,24,24,40.14347885677125,41.00796947220806,"[87, 0, 167]",167,l,0.34127339848782867,colour,0.5
126,20,0,2,1,25,25,41.51844853057992,42.45599480753299,"[47, 0, 207]",207,l,0.41423020453657955,colour,0.5
126,20,0,2,1,26,26,42.97220235480927,43.81597706861794,"[12, 0, 242]",242,a,0.3204133490798995,colour,0.5
126,20,0,2,1,27,27,44.331509564071894,45.29597402818035,"[14, 0, 240]",240,a,0.44099873024970293,colour,0.5
126,20,0,2,1,28,28,45.81589278567117,46.75997099711094,"[49, 0, 205]",205,l,0.42065304378047585,colour,0.5
126,20,0,2,1,29,29,47.26907474559266,48.22394275991246,"[76, 0, 178]",178,l,0.4316232280107215,colour,0.5
126,20,0,2,1,30,30,48.737786050187424,49.695979699492455,"[50, 0, 204]",204,l,0.43486891221255064,colour,0.5
126,20,0,2,1,31,31,50.207783261779696,51.20006151869893,"[82, 0, 172]",172,l,0.4691311444621533,colour,0.5
126,20,0,2,1,32,32,51.70775726798456,52.59197444410529,"[61, 0, 193]",193,l,0.3609869622159749,colour,0.5
126,20,0,2,1,33,33,53.09908848290797,54.08798990491778,"[46, 0, 208]",208,a,0.4656802664976567,colour,0.5
126,20,0,2,1,34,34,54.59919954754878,55.58398173493333,"[9, 0, 245]",245,a,0.4600880481302738,colour,0.5
126,20,0,2,1,35,35,56.10066386661492,57.02391117345542,"[64, 0, 190]",190,l,0.3998552222037688,colour,0.5
126,20,0,2,1,36,36,57.53819635894615,58.55195654765703,"[32, 0, 222]",222,a,0.4904807440470904,colour,0.5
126,20,0,2,1,37,37,59.07001832162496,59.935907090082765,"[13, 0, 241]",241,a,0.3424962899880484,colour,0.5
126,20,0,2,1,38,38,60.445062432438135,61.303944681887515,"[15, 0, 239]",239,a,0.33563234319444746,colour,0.5
126,20,0,2,1,39,39,61.82012505386956,62.70394917181693,"[93, 0, 161]",161,l,0.36061005166266114,colour,0.5
126,20,0,2,1,40,40,63.21065242937766,64.06394797447138,"[81, 0, 173]",173,l,0.3300086173694581,colour,0.5
126,20,0,2,1,41,41,64.56999311549589,65.48000838095322,"[65, 0, 189]",189,l,0.3866298762150109,colour,0.5
126,20,0,2,1,42,42,65.99197342002299,66.9119455042528,"[56, 0, 198]",198,l,0.39695533469785005,colour,0.5
126,20,0,2,1,43,43,67.4294267493533,68.35197182896081,"[40, 0, 214]",214,a,0.3991746564861387,colour,0.5
126,20,0,2,1,44,44,68.86699783848599,69.75996193871833,"[2, 0, 252]",252,a,0.3697807538555935,colour,0.5
126,20,0,2,1,45,45,70.27392023196444,71.11995483364444,"[22, 0, 232]",232,a,0.3234617165289819,colour,0.5
126,20,0,2,1,46,46,71.63260477082804,72.41596391424537,"[26, 0, 228]",228,a,0.26073702750727534,colour,0.5
126,20,0,2,1,47,47,72.92938697093632,73.70398422400467,"[63, 0, 191]",191,l,0.2511972915381193,colour,0.5
126,20,0,2,1,48,48,74.21068551240023,75.0319397225976,"[92, 0, 162]",162,l,0.2984032698441297,colour,0.5
126,20,0,2,1,49,49,75.52935530571267,76.26393860089593,"[1, 0, 253]",253,a,0.22356781864073128,colour,0.5
126,20,0,2,1,50,50,76.78328864485957,77.57596578891389,"[55, 0, 199]",199,l,0.2692362224915996,colour,0.5
126,20,0,2,2,1,51,112.69018110609613,113.66393206315115,"[51, 0, 203]",203,l,0.44967791286762804,colour,0.5
126,20,0,2,2,2,52,114.17545166239142,114.91190966428258,"[31, 0, 223]",223,a,0.21336839091964066,colour,0.5
126,20,0,2,2,3,53,115.42536225938238,116.19993154949043,"[39, 0, 215]",215,a,0.2514658945146948,colour,0.5
126,20,0,2,2,4,54,116.70666355791036,117.5359341079602,"[77, 0, 177]",177,l,0.30601513001602143,colour,0.5
126,20,0,2,2,5,55,118.0503835270647,118.83989690686576,"[63, 0, 191]",191,l,0.2661079043755308,colour,0.5
126,20,0,2,2,6,56,119.34727127791848,120.16793629457243,"[26, 0, 228]",228,a,0.29738557199016213,colour,0.5
126,20,0,2,2,7,57,120.67539613018744,121.52790240803733,"[80, 0, 174]",174,l,0.32926346082240343,colour,0.5
126,20,0,2,2,8,58,122.03471515479032,122.87193351564929,"[54, 0, 200]",200,l,0.31383021466899663,colour,0.5
126,20,0,2,2,9,59,123.37910269293934,124.12791761057451,"[84, 0, 170]",170,l,0.2257528759073466,colour,0.5
126,20,0,2,2,10,60,124.64475688675884,125.56790848902892,"[50, 0, 204]",204,a,0.3997744837542996,colour,0.5
126,20,0,2,2,11,61,126.07864354737103,126.98392163403332,"[58, 0, 196]",196,a,0.38182495592627674,colour,0.5
126,20,0,2,2,12,62,127.50053996266797,128.25589508574922,"[6, 0, 248]",248,a,0.23209418915212154,colour,0.5
126,20,0,2,2,13,63,128.76606694434304,129.5439008232206,"[28, 0, 226]",226,a,0.25449693272821605,colour,0.5
126,20,0,2,2,14,64,130.06298856576905,130.82394969160669,"[1, 0, 253]",253,a,0.23762496723793447,colour,0.5
126,20,0,2,2,15,65,131.34433239954524,132.08797218184918,"[73, 0, 181]",181,l,0.22035600524395704,colour,0.5
126,20,0,2,2,16,66,132.5942552058259,133.40793851588387,"[85, 0, 169]",169,l,0.28960711508989334,colour,0.5
126,20,0,2,2,17,67,133.92389912181534,134.97593877103645,"[52, 0, 202]",202,l,0.5289291644003242,colour,0.5
126,20,0,2,2,18,68,135.48645603260957,136.37587945791893,"[97, 0, 157]",157,l,0.36572768550831825,colour,0.5
126,20,0,2,2,19,69,136.89271755260415,137.77591860620305,"[92, 0, 162]",162,l,0.35999407654162496,colour,0.5
126,20,0,2,2,20,70,138.28385499527212,139.224251141306,"[20, 0, 234]",234,a,0.41703714441973716,colour,0.5
126,20,0,2,2,21,71,139.73706570605282,140.53595734480768,"[34, 0, 220]",220,a,0.2755476033780724,colour,0.5
126,20,0,2,2,22,72,141.03736416250467,141.8878689154517,"[33, 0, 221]",221,a,0.3273497635964304,colour,0.5
126,20,0,2,2,23,73,142.39665049791802,143.22393448918592,"[91, 0, 163]",163,l,0.3040021834895015,colour,0.5
126,20,0,2,2,24,74,143.74027161183767,144.61587459000293,"[2, 0, 252]",252,a,0.35233928728848696,colour,0.5
126,20,0,2,2,25,75,145.1308761810651,145.87185395869892,"[59, 0, 195]",195,l,0.2228021821938455,colour,0.5
126,20,0,2,2,26,76,146.39123787346762,147.2318752106512,"[82, 0, 172]",172,l,0.3174681693781167,colour,0.5
126,20,0,2,2,27,77,147.7452899966156,148.4879089301685,"[22, 0, 232]",232,a,0.21926702128257602,colour,0.5
126,20,0,2,2,28,78,148.99528369505424,149.7999101242749,"[67, 0, 187]",187,l,0.27923006273340434,colour,0.5
126,20,0,2,2,29,79,150.30987875838764,151.03191333496943,"[18, 0, 236]",236,a,0.19877246103715152,colour,0.5
126,20,0,2,2,30,80,151.54428876144812,152.22387383691967,"[37, 0, 217]",217,a,0.15618747693952173,colour,0.5
126,20,0,2,2,31,81,152.73176493379287,153.3838780747028,"[75, 0, 179]",179,l,0.12876595475245267,colour,0.5
126,20,0,2,2,32,82,153.90361290611327,154.43987587548327,"[5, 0, 249]",249,a,0.013544361223466694,colour,0.5
126,20,0,2,2,33,83,154.95049317379016,155.67188420612365,"[11, 0, 243]",243,a,0.19799500925000757,colour,0.5
126,20,0,2,2,34,84,156.18484449386597,156.8640105172526,"[69, 0, 185]",185,l,0.15694326732773334,colour,0.5
126,20,0,2,2,35,85,157.37116000219248,158.44792766147293,"[44, 0, 210]",210,l,0.5537572113098577,colour,0.5
126,20,0,2,2,36,86,158.96481459308416,159.82389612856787,"[48, 0, 206]",206,l,0.33558705099858344,colour,0.5
126,20,0,2,2,37,87,160.33991541760042,161.0078977921512,"[30, 0, 224]",224,a,0.14473010518122464,colour,0.5
126,20,0,2,2,38,88,161.5273785929894,162.09595583251212,"[68, 0, 186]",186,l,0.04525132093112916,colour,0.5
126,20,0,2,2,39,89,162.60546878690366,163.1759356991388,"[19, 0, 235]",235,a,0.0470732522662729,colour,0.5
126,20,0,2,2,40,90,163.68370037141722,164.21590003243182,"[40, 0, 214]",214,a,0.008879650151357055,colour,0.5
126,20,0,2,2,41,91,164.73043570376467,165.2559340763837,"[81, 0, 173]",173,l,0.001971986494027078,colour,0.5
126,20,0,2,2,42,92,165.77758142363746,166.37591214710847,"[36, 0, 218]",218,a,0.07498905109241605,colour,0.5
126,20,0,2,2,43,93,166.88076117809396,167.59988877782598,"[14, 0, 240]",240,a,0.19625736097805202,colour,0.5
126,20,0,2,2,44,94,168.11502151971217,170.5678836767329,"[9, 0, 245]",245,a,1.929383032489568,colour,0.5
126,20,0,2,2,45,95,171.0837879627943,171.86389984644484,"[88, 0, 166]",166,l,0.2552440584404394,colour,0.5
126,20,0,2,2,46,96,172.3823030848289,172.99987908930052,"[99, 0, 155]",155,l,0.09430955664720386,colour,0.5
126,20,0,2,2,47,97,173.50728181714658,174.16789651615545,"[56, 0, 198]",198,l,0.137495155679062,colour,0.5
126,20,0,2,2,48,98,174.6791199434083,175.27993150230031,"[35, 0, 219]",219,l,0.07742065587081015,colour,0.5
126,20,0,2,2,49,99,175.7885583032621,176.43986681697425,"[57, 0, 197]",197,l,0.12823583802673966,colour,0.5
126,20,0,2,2,50,100,176.96277959120926,178.9198830749374,"[15, 0, 239]",239,a,1.4337629929650575,colour,0.5
126,20,0,2,3,1,101,193.86821285320912,194.5598838784499,"[47, 0, 207]",207,l,0.17598689917940646,colour,0.5
126,20,0,2,3,2,102,195.0794001253089,195.81586679175962,"[39, 0, 215]",215,l,0.21235187456477433,colour,0.5
126,20,0,2,3,3,103,196.32194777287077,196.96785390202422,"[56, 0, 198]",198,l,0.12248411227483302,colour,0.5
126,20,0,2,3,4,104,197.47830696660094,198.23186890908983,"[42, 0, 212]",212,l,0.23027934704441577,colour,0.5
126,20,0,2,3,5,105,198.7439107481623,199.36787099495996,"[93, 0, 161]",161,l,0.09920466761104763,colour,0.5
126,20,0,2,3,6,106,199.88601941498928,200.4958677685354,"[83, 0, 171]",171,l,0.0865500041982159,colour,0.5
126,20,0,2,3,7,107,201.0110485595651,202.1998500233749,"[4, 0, 250]",250,a,0.6654700314393267,colour,0.5
126,20,0,2,3,8,108,202.71408755343873,203.5198840990197,"[76, 0, 178]",178,l,0.2824324240209535,colour,0.5
126,20,0,2,3,9,109,204.02657672273926,204.91189154738095,"[54, 0, 200]",200,a,0.36200269078835845,colour,0.5
126,20,0,2,3,10,110,205.43284139351454,206.24786456732545,"[62, 0, 192]",192,l,0.2917386092012748,colour,0.5
126,20,0,2,3,11,111,206.76090795663185,207.36788399179932,"[64, 0, 190]",190,l,0.09610076784156263,colour,0.5
126,20,0,2,3,12,112,207.8891926315846,208.71184617630206,"[92, 0, 162]",162,l,0.2992776078172028,colour,0.5
126,20,0,2,3,13,113,209.23326627444476,210.09588178945705,"[43, 0, 211]",211,a,0.33962948550470173,colour,0.5
126,20,0,2,3,14,114,210.59847920329776,211.31191415409558,"[69, 0, 185]",185,l,0.1891933404840529,colour,0.5
126,20,0,2,3,15,115,211.81812983041164,212.59189843176864,"[89, 0, 165]",165,l,0.2503824243322015,colour,0.5
126,20,0,2,3,16,116,213.0993665381102,213.83188135467935,"[50, 0, 204]",204,a,0.21200371475424618,colour,0.5
126,20,0,2,3,17,117,214.34655762906186,215.08784654492047,"[21, 0, 233]",233,a,0.21797402505762875,colour,0.5
126,20,0,2,3,18,118,215.59666121052578,216.3358576230239,"[95, 0, 159]",159,l,0.21591184777207673,colour,0.5
126,20,0,2,3,19,119,216.8373089452507,217.63183795288205,"[71, 0, 183]",183,l,0.2713208489585668,colour,0.5
126,20,0,2,3,20,120,218.14979496377055,218.6800336658489,"[17, 0, 237]",237,a,0.006967134308069944,colour,0.5
126,20,0,2,3,21,121,219.21227074228227,219.93585864710622,"[90, 0, 164]",164,l,0.20029270637314767,colour,0.5
126,20,0,2,3,22,122,220.44673312676605,221.19983702653553,"[61, 0, 193]",193,a,0.22980397508945316,colour,0.5
126,20,0,2,3,23,123,221.71238495758735,222.3758991501527,"[86, 0, 168]",168,l,0.14152892562560737,colour,0.5
126,20,0,2,3,24,124,222.878894348396,223.42386997723952,"[51, 0, 203]",203,a,0.021864356356672943,colour,0.5
126,20,0,2,3,25,125,223.94116060086526,224.65585192013532,"[38, 0, 216]",216,a,0.19119132088962942,colour,0.5
126,20,0,2,3,26,126,225.17549616703764,225.91182931978256,"[33, 0, 221]",221,a,0.21311357256490737,colour,0.5
126,20,0,2,3,27,127,226.4255091639934,227.15985536400694,"[6, 0, 248]",248,a,0.2112179921241477,colour,0.5
126,20,0,2,3,28,128,227.67548829014413,228.6799812844256,"[1, 0, 253]",253,a,0.48127144493628293,colour,0.5
126,20,0,2,3,29,129,229.19119841011707,229.74390168965328,"[11, 0, 243]",243,a,0.029534505563788116,colour,0.5
126,20,0,2,3,30,130,230.24533253198024,230.9438663222827,"[18, 0, 236]",236,a,0.17319374380167574,colour,0.5
126,20,0,2,3,31,131,231.45054319221526,232.11198260460515,"[30, 0, 224]",224,a,0.1357291506137699,colour,0.5
126,20,0,2,3,32,132,232.62485939695034,233.15183469175827,"[29, 0, 225]",225,a,0.0038671731017529964,colour,0.5
126,20,0,2,3,33,133,233.67173966462724,234.26385510561522,"[36, 0, 218]",218,a,0.06882063625380397,colour,0.5
126,20,0,2,3,34,134,234.7828554144362,235.53587660647463,"[53, 0, 201]",201,a,0.2296657351544127,colour,0.5
126,20,0,2,3,35,135,236.0485119712539,236.77582329546567,"[94, 0, 160]",160,l,0.20408111019060016,colour,0.5
126,20,0,2,3,36,136,237.2828967681853,238.04782904242165,"[57, 0, 197]",197,l,0.24164298339746892,colour,0.5
126,20,0,2,3,37,137,238.5641315067187,239.36783318570815,"[8, 0, 246]",246,a,0.28040687437169254,colour,0.5
126,20,0,2,3,38,138,239.8766116175102,240.7038833994884,"[75, 0, 179]",179,l,0.31541386898607016,colour,0.5
126,20,0,2,3,39,139,241.2250833377475,242.67183300608303,"[49, 0, 205]",205,l,0.9238136572530493,colour,0.5
126,20,0,2,3,40,140,243.17816683626734,243.831835274701,"[28, 0, 226]",226,a,0.1303732399828732,colour,0.5
126,20,0,2,3,41,141,244.3500010239659,245.1598427608842,"[37, 0, 217]",217,a,0.28653157223016024,colour,0.5
126,20,0,2,3,42,142,245.67817353166174,246.43189143715426,"[23, 0, 231]",231,a,0.23042861465364695,colour,0.5
126,20,0,2,3,43,143,246.9463601546595,247.71182845323347,"[13, 0, 241]",241,a,0.2421006322838366,colour,0.5
126,20,0,2,3,44,144,248.22867836325895,248.95987615908962,"[14, 0, 240]",240,a,0.20791047415696084,colour,0.5
126,20,0,2,3,45,145,249.46614854922518,250.29582594207022,"[68, 0, 186]",186,l,0.31879109784495085,colour,0.5
126,20,0,2,3,46,146,250.8131890334189,251.59182399488054,"[87, 0, 167]",167,l,0.2552881691372022,colour,0.5
126,20,0,2,3,47,147,252.11002912884578,252.77582053851802,"[70, 0, 184]",184,l,0.14241310965735465,colour,0.5
126,20,0,2,3,48,148,253.28192711959127,253.975826918846,"[63, 0, 191]",191,l,0.16900834324769676,colour,0.5
126,20,0,2,3,49,149,254.48668052477296,255.14383883192204,"[46, 0, 208]",208,a,0.13419590843841434,colour,0.5
126,20,0,2,3,50,150,255.65853164787404,256.3758589779027,"[19, 0, 235]",235,a,0.19434799591545016,colour,0.5
126,20,0,2,4,1,151,288.1466583748115,289.0237741151359,"[43, 0, 211]",211,a,0.35308680683374405,colour,0.5
126,20,0,2,4,2,152,289.53807741741184,290.2398029351607,"[8, 0, 246]",246,a,0.17853114369791,colour,0.5
126,20,0,2,4,3,153,290.75672413141,291.47982878726907,"[4, 0, 250]",250,a,0.19977282965555787,colour,0.5
126,20,0,2,4,4,154,291.9911309836898,292.73583887598943,"[76, 0, 178]",178,l,0.2215040660230443,colour,0.5
126,20,0,2,4,5,155,293.2573641309282,294.0238174381666,"[36, 0, 218]",218,a,0.25556740595493466,colour,0.5
126,20,0,2,4,6,156,294.54175318137277,295.26387519179843,"[13, 0, 241]",241,a,0.19894496561028063,colour,0.5
126,20,0,2,4,7,157,295.77616751682945,296.55179349554237,"[73, 0, 181]",181,l,0.2522811556700617,colour,0.5
126,20,0,2,4,8,158,297.0730253352085,297.9999255631119,"[42, 0, 212]",212,a,0.4035719461971894,colour,0.5
126,20,0,2,4,9,159,298.51246167870704,299.30380722973496,"[61, 0, 193]",193,l,0.2680594108533114,colour,0.5
126,20,0,2,4,10,160,299.8249098879751,300.55979211232625,"[40, 0, 214]",214,a,0.21182530256919563,colour,0.5
126,20,0,2,4,11,161,301.0749910202576,301.83979135612026,"[86, 0, 168]",168,l,0.24175995565019548,colour,0.5
126,20,0,2,4,12,162,302.3562230018433,303.09577702649403,"[85, 0, 169]",169,l,0.21624110313132405,colour,0.5
126,20,0,2,4,13,163,303.59411460277624,304.3037887188839,"[2, 0, 252]",252,a,0.1867625234881416,colour,0.5
126,20,0,2,4,14,164,304.81249389529694,305.5838037165813,"[82, 0, 172]",172,l,0.24798429652582854,colour,0.5
126,20,0,2,4,15,165,306.0820109299384,306.7358195775887,"[6, 0, 248]",248,a,0.13051344908308238,colour,0.5
126,20,0,2,4,16,166,307.2437843235675,307.9518141329754,"[50, 0, 204]",204,a,0.18471019237767905,colour,0.5
126,20,0,2,4,17,167,308.4624810559908,309.0318349596346,"[24, 0, 230]",230,a,0.04601301904767752,colour,0.5
126,20,0,2,4,18,168,309.5406567143509,310.07987864816096,"[11, 0, 243]",243,a,0.015998021350242198,colour,0.5
126,20,0,2,4,19,169,310.58751728979405,311.28779502992984,"[45, 0, 209]",209,a,0.17699238774366677,colour,0.5
126,20,0,2,4,20,170,311.80635659431573,313.0397792257136,"[46, 0, 208]",208,a,0.7102432235842571,colour,0.5
126,20,0,2,4,21,171,313.55630224361084,314.3117865480017,"[38, 0, 216]",216,a,0.2322509397054091,colour,0.5
126,20,0,2,4,22,172,314.81217291089706,315.4878246471053,"[63, 0, 191]",191,l,0.15232148533686996,colour,0.5
126,20,0,2,4,23,173,315.9995667694602,316.79182761826087,"[41, 0, 213]",213,a,0.27242479904089123,colour,0.5
126,20,0,2,4,24,174,317.30893864820246,317.91176906134933,"[3, 0, 251]",251,a,0.07959980529267341,colour,0.5
126,20,0,2,4,25,175,318.4183518020436,319.15982228086796,"[79, 0, 175]",175,l,0.2181386526208371,colour,0.5
126,20,0,2,4,26,176,319.66830690356437,320.33576703851577,"[69, 0, 185]",185,l,0.14412437030114233,colour,0.5
126,20,0,2,4,27,177,320.8558035559254,321.8238083010074,"[57, 0, 197]",197,l,0.4446768573252484,colour,0.5
126,20,0,2,4,28,178,322.3401852020761,323.0158089752076,"[7, 0, 247]",247,a,0.15227540535852313,colour,0.5
126,20,0,2,4,29,179,323.52764916513115,324.27980507770553,"[74, 0, 180]",180,l,0.22877131099812686,colour,0.5
126,20,0,2,4,30,180,324.7944474813994,325.4158307942562,"[10, 0, 244]",244,a,0.09801092057023197,colour,0.5
126,20,0,2,4,31,181,325.9350973429391,326.6717514799675,"[68, 0, 186]",186,l,0.21337311691604555,colour,0.5
126,20,0,2,4,32,182,327.18507095519453,327.81580259487964,"[44, 0, 210]",210,a,0.10744628729298711,colour,0.5
126,20,0,2,4,33,183,328.32574956747703,328.9917690140428,"[95, 0, 159]",159,l,0.14285027864389122,colour,0.5
126,20,0,2,4,34,184,329.5006923810579,330.2397706398042,"[27, 0, 227]",227,a,0.2156794787151739,colour,0.5
126,20,0,2,4,35,185,330.75060770416167,331.287789909984,"[99, 0, 155]",155,l,0.013783425791189075,colour,0.5
126,20,0,2,4,36,186,331.7851282991469,332.52797605725937,"[84, 0, 170]",170,l,0.21952420263551176,colour,0.5
126,20,0,2,4,37,187,333.03525236062706,333.6717467538547,"[90, 0, 164]",164,l,0.1132929299492389,colour,0.5
126,20,0,2,4,38,188,334.1913843053626,334.77579415088985,"[77, 0, 177]",177,l,0.0726393663790077,colour,0.5
126,20,0,2,4,39,189,335.29108285566326,336.0078253245447,"[12, 0, 242]",242,a,0.20457538682967424,colour,0.5
126,20,0,2,4,40,190,336.5149031295441,337.0877732896479,"[32, 0, 222]",222,a,0.049473349237814546,colour,0.5
126,20,0,2,4,41,191,337.6087168342201,338.1437872380484,"[47, 0, 207]",207,a,0.012002060539089143,colour,0.5
126,20,0,2,4,42,192,338.6555825296091,339.6717900768854,"[75, 0, 179]",179,l,0.49282294570002705,colour,0.5
126,20,0,2,4,43,193,340.1868499572156,340.85581458359957,"[78, 0, 176]",176,l,0.14563516317866743,colour,0.5
126,20,0,2,4,44,194,341.37433479423635,341.9757977742702,"[70, 0, 184]",184,l,0.07858289510477334,colour,0.5
126,20,0,2,4,45,195,342.4837101388257,343.2157743955031,"[28, 0, 226]",226,a,0.20866547664627433,colour,0.5
126,20,0,2,4,46,196,343.72270884073805,344.27187183930073,"[89, 0, 165]",165,l,0.025751615525223315,colour,0.5
126,20,0,2,4,47,197,344.7852740221424,345.3118054526858,"[81, 0, 173]",173,l,0.0032287489157170057,colour,0.5
126,20,0,2,4,48,198,345.8323539698031,346.88778305705637,"[60, 0, 194]",194,a,0.5324477839749306,colour,0.5
126,20,0,2,4,49,199,347.39641852269415,348.03179675654974,"[48, 0, 206]",206,a,0.11203144153114408,colour,0.5
126,20,0,2,4,50,200,348.5530199316563,350.1038201478077,"[55, 0, 199]",199,a,1.0281481679994613,colour,0.5
126,20,0,2,5,1,201,386.02048825856764,386.7037254673196,"[47, 0, 207]",207,a,0.15908145683351904,colour,0.5
126,20,0,2,5,2,202,387.224468938075,387.7997112320736,"[33, 0, 221]",221,a,0.0520853353664279,colour,0.5
126,20,0,2,5,3,203,388.31939131894615,388.86376751423813,"[24, 0, 230]",230,a,0.02094827068503946,colour,0.5
126,20,0,2,5,4,204,389.3818887589732,389.9197334134951,"[81, 0, 173]",173,l,0.014405308407731354,colour,0.5
126,20,0,2,5,5,205,390.42879147583153,390.99977747700177,"[31, 0, 223]",223,a,0.04768647032324225,colour,0.5
126,20,0,2,5,6,206,391.5070399957476,392.03971778566483,"[63, 0, 191]",191,l,0.009398345137014985,colour,0.5
126,20,0,2,5,7,207,392.55393050343264,393.08777722809464,"[67, 0, 187]",187,l,0.011403414770029485,colour,0.5
126,20,0,2,5,8,208,393.60079974343535,394.1757470468292,"[70, 0, 184]",184,l,0.051741114002652466,colour,0.5
126,20,0,2,5,9,209,394.6945110481465,396.67972292145714,"[77, 0, 177]",177,l,1.4618638994870707,colour,0.5
126,20,0,2,5,10,210,397.1966126098996,398.17574625916313,"[15, 0, 239]",239,a,0.4555347954155877,colour,0.5
126,20,0,2,5,11,211,398.69649957621004,399.78377425693907,"[66, 0, 188]",188,l,0.563839666894637,colour,0.5
126,20,0,2,5,12,212,400.2902975268662,401.03178572887555,"[2, 0, 252]",252,a,0.21815125574357808,colour,0.5
126,20,0,2,5,13,213,401.5288819029229,402.1197153753601,"[5, 0, 249]",249,a,0.06761507387273014,colour,0.5
126,20,0,2,5,14,214,402.63811743224505,403.4157831389457,"[87, 0, 167]",167,l,0.25252218928653747,colour,0.5
126,20,0,2,5,15,215,403.9368924925802,404.6557601541281,"[73, 0, 181]",181,l,0.19574142282363027,colour,0.5
126,20,0,2,5,16,216,405.17129855719395,405.807751202723,"[17, 0, 237]",237,a,0.11312830238603055,colour,0.5
126,20,0,2,5,17,217,406.3292689746013,407.8157565149013,"[62, 0, 192]",192,a,0.9631340524647385,colour,0.5
126,20,0,2,5,18,218,408.32925637159497,408.935758610256,"[32, 0, 222]",222,a,0.08312315098010004,colour,0.5
126,20,0,2,5,19,219,409.4542614915408,410.16771967930254,"[84, 0, 170]",170,l,0.1901334507856518,colour,0.5
126,20,0,2,5,20,220,410.68865849776193,411.415755175869,"[13, 0, 241]",241,a,0.20378927036654204,colour,0.5
126,20,0,2,5,21,221,411.92300666694064,413.1677960854722,"[55, 0, 199]",199,a,0.7215273029869422,colour,0.5
126,20,0,2,5,22,222,413.6886246269569,414.38374180404935,"[69, 0, 185]",185,l,0.17175620631314814,colour,0.5
126,20,0,2,5,23,223,414.8917656269623,415.8317844684934,"[88, 0, 166]",166,l,0.41688118129968643,colour,0.5
126,20,0,2,5,24,224,416.34658637980465,417.0636982761789,"[20, 0, 234]",234,a,0.19377455627545714,colour,0.5
126,20,0,2,5,25,225,417.5809696012875,418.3197319956962,"[30, 0, 224]",224,a,0.2162793060997501,colour,0.5
126,20,0,2,5,26,226,418.83095975522883,419.49589612544514,"[89, 0, 165]",165,l,0.15087961545214057,colour,0.5
126,20,0,2,5,27,227,420.0091360437218,420.7197486946825,"[75, 0, 179]",179,l,0.18744663381949067,colour,0.5
126,20,0,2,5,28,228,421.22786113305483,421.9357530963607,"[44, 0, 210]",210,a,0.18448570021428168,colour,0.5
126,20,0,2,5,29,229,422.44663781602867,423.1437226473354,"[97, 0, 157]",157,l,0.17373134347144514,colour,0.5
126,20,0,2,5,30,230,423.6653184007155,424.35177529987413,"[18, 0, 236]",236,a,0.16306914680171758,colour,0.5
126,20,0,2,5,31,231,424.86843576992396,425.58372612891253,"[29, 0, 225]",225,a,0.19184943742584437,colour,0.5
126,20,0,2,5,32,232,426.1028028437868,426.79972934897523,"[42, 0, 212]",212,a,0.17359743581619114,colour,0.5
126,20,0,2,5,33,233,427.30596432380844,428.0157967660343,"[54, 0, 200]",200,a,0.18485709698870778,colour,0.5
126,20,0,2,5,34,234,428.52655309194233,429.29575386829674,"[92, 0, 162]",162,l,0.24586107325740159,colour,0.5
126,20,0,2,5,35,235,429.80777483351994,430.51175472536124,"[10, 0, 244]",244,a,0.18082923477049917,colour,0.5
126,20,0,2,5,36,236,431.02651331352536,431.7277295885142,"[11, 0, 243]",243,a,0.17785136576276273,colour,0.5
126,20,0,2,5,37,237,432.2454298118828,432.9117277074838,"[34, 0, 220]",220,a,0.14287981716915965,colour,0.5
126,20,0,2,5,38,238,433.4329355226364,434.70375027961563,"[6, 0, 248]",248,a,0.7475199522450566,colour,0.5
126,20,0,2,5,39,239,435.21422106726095,435.951767265331,"[45, 0, 209]",209,a,0.21439199638552964,colour,0.5
126,20,0,2,5,40,240,436.4642005872447,437.2477393243462,"[56, 0, 198]",198,l,0.2604577906895429,colour,0.5
126,20,0,2,5,41,241,437.76104265183676,438.391728605493,"[82, 0, 172]",172,l,0.10745731508359313,colour,0.5
126,20,0,2,5,42,242,438.9024829621194,439.5197155328933,"[76, 0, 178]",178,l,0.09476484241895378,colour,0.5
126,20,0,2,5,43,243,440.0266728211427,440.7917267937446,"[38, 0, 216]",216,a,0.24173790030181408,colour,0.5
126,20,0,2,5,44,244,441.30820294399746,441.99973179085646,"[49, 0, 205]",205,a,0.16869562957435846,colour,0.5
126,20,0,2,5,45,245,442.51100799348205,443.2557316396851,"[52, 0, 202]",202,a,0.2215481768362224,colour,0.5
126,20,0,2,5,46,246,443.77664879651275,444.43170120951254,"[50, 0, 204]",204,a,0.13168356532696635,colour,0.5
126,20,0,2,5,47,247,444.9484573842492,445.52776810666546,"[64, 0, 190]",190,l,0.05597220081835985,colour,0.5
126,20,0,2,5,48,248,446.0297432439402,446.57574641669635,"[27, 0, 227]",227,a,0.0224630021257326,colour,0.5
126,20,0,2,5,49,249,447.0923600192182,447.63174579292536,"[48, 0, 206]",206,a,0.016296556568704545,colour,0.5
126,20,0,2,5,50,250,448.13922689610627,448.74374651443213,"[85, 0, 169]",169,l,0.0936742831254378,colour,0.5
126,20,0,2,6,1,251,475.71967150096316,476.43975142017007,"[97, 0, 157]",157,l,0.1958910842658952,colour,0.5
126,20,0,2,6,2,252,476.95496726350393,477.5437086264137,"[86, 0, 168]",168,l,0.0654930321034044,colour,0.5
126,20,0,2,6,3,253,478.0651050937595,478.6717215477256,"[11, 0, 243]",243,a,0.08368910744320601,colour,0.5
126,20,0,2,6,4,254,479.1897596908966,479.8716869680211,"[77, 0, 177]",177,l,0.15882230608258396,colour,0.5
126,20,0,2,6,5,255,480.37893964070827,480.98370186798275,"[38, 0, 216]",216,a,0.08173563168384135,colour,0.5
126,20,0,2,6,6,256,481.5038856838364,482.1116986416746,"[33, 0, 221]",221,a,0.0844850700814277,colour,0.5
126,20,0,2,6,7,257,482.628894742229,483.31172707735095,"[57, 0, 197]",197,a,0.15948396734893322,colour,0.5
126,20,0,2,6,8,258,483.83195264078677,484.44767796318047,"[94, 0, 160]",160,l,0.0923111824085936,colour,0.5
126,20,0,2,6,9,259,484.9569739084691,485.63167883909773,"[92, 0, 162]",162,l,0.15140776289626956,colour,0.5
126,20,0,2,6,10,260,486.1445284561487,486.80770472891163,"[42, 0, 212]",212,a,0.13980506197549403,colour,0.5
126,20,0,2,6,11,261,487.31633625610266,488.2477503520204,"[18, 0, 236]",236,a,0.407994048204273,colour,0.5
126,20,0,2,6,12,262,488.754016834544,489.3117018712219,"[13, 0, 241]",241,a,0.034938071737997234,colour,0.5
126,20,0,2,6,13,263,489.83197942224797,490.4077108729398,"[89, 0, 165]",165,l,0.05233109521213919,colour,0.5
126,20,0,2,6,14,264,490.92571514542215,491.56767848308664,"[48, 0, 206]",206,a,0.12774786306545138,colour,0.5
126,20,0,2,6,15,265,492.08856413222384,492.67969613999594,"[17, 0, 237]",237,a,0.06794944917783141,colour,0.5
126,20,0,2,6,16,266,493.19775555084925,493.79168386454694,"[19, 0, 235]",235,a,0.07059648749418557,colour,0.5
126,20,0,2,6,17,267,494.30717500613537,494.9756949804723,"[54, 0, 200]",200,a,0.145168061950244,colour,0.5
126,20,0,2,6,18,268,495.4946866246173,496.3997114683734,"[64, 0, 190]",190,l,0.3817201928468421,colour,0.5
126,20,0,2,6,19,269,496.9164841846796,497.46376656903885,"[8, 0, 246]",246,a,0.02404429344460368,colour,0.5
126,20,0,2,6,20,270,497.97913601226173,498.6397073881235,"[37, 0, 217]",217,a,0.13719031889922917,colour,0.5
126,20,0,2,6,21,271,499.15098752919585,499.74375242204405,"[15, 0, 239]",239,a,0.06946418050210923,colour,0.5
126,20,0,2,6,22,272,500.2603163999738,500.9116820213385,"[68, 0, 186]",186,l,0.12803379516117275,colour,0.5
126,20,0,2,6,23,273,501.4322206922807,502.21567357098684,"[52, 0, 202]",202,l,0.26017107092775404,colour,0.5
126,20,0,2,6,24,274,502.72905172919855,503.3596667905804,"[0, 0, 254]",254,a,0.10789684706833214,colour,0.5
126,20,0,2,6,25,275,503.86974136915524,504.53568362188525,"[55, 0, 199]",199,l,0.14261121419258416,colour,0.5
126,20,0,2,6,26,276,505.0446117151296,505.7677017987007,"[35, 0, 219]",219,l,0.19983230042271316,colour,0.5
126,20,0,2,6,27,277,506.27899611822795,507.1357149720425,"[46, 0, 208]",208,a,0.33336379076354206,colour,0.5
126,20,0,2,6,28,278,507.65469834546093,508.77567284635734,"[20, 0, 234]",234,a,0.597608016221784,colour,0.5
126,20,0,2,6,29,279,509.2953576593427,509.83202038228046,"[27, 0, 227]",227,a,0.013321050559170544,colour,0.5
126,20,0,2,6,30,280,510.33098574902397,511.0156963352347,"[93, 0, 161]",161,l,0.1614551660604775,colour,0.5
126,20,0,2,6,31,281,511.53599476022646,512.223668249324,"[43, 0, 211]",211,a,0.16439522593282163,colour,0.5
126,20,0,2,6,32,282,512.7391239447752,513.4236372142332,"[74, 0, 180]",180,l,0.16198410117067397,colour,0.5
126,20,0,2,6,33,283,513.9422298924765,514.6716868892545,"[98, 0, 156]",156,l,0.2063728995854035,colour,0.5
126,20,0,2,6,34,284,515.1922424955992,516.1356984305894,"[67, 0, 187]",187,l,0.42035293322987854,colour,0.5
126,20,0,2,6,35,285,516.6460132552311,517.3916655901121,"[60, 0, 194]",194,l,0.22055883589200675,colour,0.5
126,20,0,2,6,36,286,517.8977623250103,518.4956606056076,"[65, 0, 189]",189,l,0.07450580212753266,colour,0.5
126,20,0,2,6,37,287,519.00746613706,519.63170010678,"[40, 0, 214]",214,a,0.10126684478018433,colour,0.5
126,20,0,2,6,38,288,520.1478446387919,520.8477167176316,"[80, 0, 174]",174,l,0.17667140334378928,colour,0.5
126,20,0,2,6,39,289,521.3665673648939,521.9916701586917,"[6, 0, 248]",248,a,0.1021132196765393,colour,0.5
126,20,0,2,6,40,290,522.4955566303106,523.0716579022119,"[76, 0, 178]",178,l,0.052748571848496795,colour,0.5
126,20,0,2,6,41,291,523.5892978671473,524.2236446186434,"[44, 0, 210]",210,a,0.11098853754810989,colour,0.5
126,20,0,2,6,42,292,524.7299386702944,525.3516992875375,"[91, 0, 163]",163,l,0.09838192339520901,colour,0.5
126,20,0,2,6,43,293,525.8704833749216,527.2956687975675,"[2, 0, 252]",252,a,0.9109947602264583,colour,0.5
126,20,0,2,6,44,294,527.8143733281177,528.4476590586128,"[9, 0, 245]",245,a,0.10998541198205203,colour,0.5
126,20,0,2,6,45,295,528.9550420942251,529.6797095306683,"[95, 0, 159]",159,l,0.20136317948345095,colour,0.5
126,20,0,2,6,46,296,530.1894572172314,530.7916716553736,"[31, 0, 223]",223,a,0.07604219508357346,colour,0.5
126,20,0,2,6,47,297,531.3018281538971,532.2476562228985,"[81, 0, 173]",173,l,0.42285227950196713,colour,0.5
126,20,0,2,6,48,298,532.7549490678357,533.3836500379257,"[50, 0, 204]",204,a,0.11739365372341126,colour,0.5
126,20,0,2,6,49,299,533.8994550746866,534.5436491556466,"[12, 0, 242]",242,a,0.11970356001984328,colour,0.5
126,20,0,2,6,50,300,535.0569217632292,535.7596815204015,"[82, 0, 172]",172,l,0.17943698936142027,colour,0.5
126,20,0,2,7,1,301,553.0906077987747,553.6876746705966,"[83, 0, 171]",171,l,0.0722175573464483,colour,0.5
126,20,0,2,7,2,302,554.2016861330485,555.2236800647806,"[71, 0, 183]",183,l,0.4986396562308073,colour,0.5
126,20,0,2,7,3,303,555.7329693146748,556.2796660501044,"[0, 0, 254]",254,a,0.023544109193608165,colour,0.5
126,20,0,2,7,4,304,556.7957554436289,557.4396899802377,"[41, 0, 213]",213,a,0.12066572566982359,colour,0.5
126,20,0,2,7,5,305,557.9540681132348,558.5756278691115,"[90, 0, 164]",164,l,0.09829567116685212,colour,0.5
126,20,0,2,7,6,306,559.0946947378106,559.6797016537748,"[86, 0, 168]",168,l,0.0618204188067466,colour,0.5
126,20,0,2,7,7,307,560.1883650824893,560.7996801183326,"[6, 0, 248]",248,a,0.08880555990617722,colour,0.5
126,20,0,2,7,8,308,561.3136974885128,561.9916221095482,"[69, 0, 185]",185,l,0.15488621010445058,colour,0.5
126,20,0,2,7,9,309,562.5008420425002,563.3836232563481,"[40, 0, 214]",214,a,0.35940882144495845,colour,0.5
126,20,0,2,7,10,310,563.8915092332754,564.607664084062,"[56, 0, 198]",198,a,0.1928907660767436,colour,0.5
126,20,0,2,7,11,311,565.125904270215,565.8157947179861,"[15, 0, 239]",239,a,0.16682919370941818,colour,0.5
126,20,0,2,7,12,312,566.329014550196,566.8556479867548,"[78, 0, 176]",176,l,0.003334299544803798,colour,0.5
126,20,0,2,7,13,313,567.3759156917222,568.0236283921404,"[10, 0, 244]",244,a,0.12507483072113246,colour,0.5
126,20,0,2,7,14,314,568.5321441286942,569.1116131771123,"[96, 0, 158]",158,l,0.05617424380034208,colour,0.5
126,20,0,2,7,15,315,569.6258475563955,571.0956234264886,"[44, 0, 210]",210,a,0.9465964622795582,colour,0.5
126,20,0,2,7,16,316,571.6112728941953,572.3036307867151,"[34, 0, 220]",220,a,0.1690583616727963,colour,0.5
126,20,0,2,7,17,317,572.8143493034877,573.37565378414,"[94, 0, 160]",160,l,0.038775312481448054,colour,0.5
126,20,0,2,7,18,318,573.8925013311673,574.4876446595881,"[47, 0, 207]",207,a,0.07201157591771334,colour,0.5
126,20,0,2,7,19,319,574.9929789087037,575.6476607127115,"[27, 0, 227]",227,a,0.1313511593034491,colour,0.5
126,20,0,2,7,20,320,576.1648650841089,576.8796072095865,"[76, 0, 178]",178,l,0.19177460670471191,colour,0.5
126,20,0,2,7,21,321,577.3992357025854,577.9676199575188,"[67, 0, 187]",187,a,0.045102840987965465,colour,0.5
126,20,0,2,7,22,322,578.4773609486874,579.1916379421018,"[14, 0, 240]",240,a,0.1910672594094649,colour,0.5
126,20,0,2,7,23,323,579.7117752840277,580.3756112487754,"[37, 0, 217]",217,a,0.14060259994585067,colour,0.5
126,20,0,2,7,24,324,580.8851423200686,581.535655658925,"[81, 0, 173]",173,l,0.12726973404642195,colour,0.5
126,20,0,2,7,25,325,582.0571710676886,582.8396440577926,"[57, 0, 197]",197,l,0.2593215452507138,colour,0.5
126,20,0,2,7,26,326,583.3539288493339,583.919642435154,"[59, 0, 195]",195,l,0.0423191380687058,colour,0.5
126,20,0,2,7,27,327,584.4319910801714,585.0076299769571,"[85, 0, 169]",169,l,0.05229328596033156,colour,0.5
126,20,0,2,7,28,328,585.5268283901969,586.2236461939756,"[45, 0, 209]",209,a,0.17352181754540652,colour,0.5
126,20,0,2,7,29,329,586.7299851441057,587.287627251586,"[12, 0, 242]",242,a,0.03432209661696106,colour,0.5
126,20,0,2,7,30,330,587.8081135409884,588.4956440640381,"[66, 0, 188]",188,l,0.1643278782721609,colour,0.5
126,20,0,2,7,31,331,589.0112572979415,589.6236034223111,"[35, 0, 219]",219,a,0.0890962181147188,colour,0.5
126,20,0,2,7,32,332,590.1362864425173,590.8156379673164,"[65, 0, 189]",189,l,0.15459791477769613,colour,0.5
126,20,0,2,7,33,333,591.3252044847468,592.735718359123,"[20, 0, 234]",234,a,0.8874872787855566,colour,0.5
126,20,0,2,7,34,334,593.2471359523479,593.831592665636,"[77, 0, 177]",177,l,0.061204443918541074,colour,0.5
126,20,0,2,7,35,335,594.3289857994532,594.879630052601,"[2, 0, 252]",252,a,0.027277768473140895,colour,0.5
126,20,0,2,7,36,336,595.3915466485778,596.0315970766824,"[62, 0, 192]",192,l,0.12942288967315108,colour,0.5
126,20,0,2,7,37,337,596.5510219513671,597.9116717813304,"[46, 0, 208]",208,a,0.8373963790945709,colour,0.5
126,20,0,2,7,38,338,598.4260247083148,599.0156652214937,"[23, 0, 231]",231,a,0.06624291476327926,colour,0.5
126,20,0,2,7,39,339,599.5353279791307,600.4236131897196,"[99, 0, 155]",155,l,0.36494550749193877,colour,0.5
126,20,0,2,7,40,340,600.941624945146,601.5755912414752,"[11, 0, 243]",243,a,0.11085738684050739,colour,0.5
126,20,0,2,7,41,341,602.0822318774881,602.9996896493249,"[64, 0, 190]",190,l,0.3941491824807599,colour,0.5
126,20,0,2,7,42,342,603.5206576123601,604.1356074521318,"[48, 0, 206]",206,a,0.09162037668284029,colour,0.5
126,20,0,2,7,43,343,604.6456517046317,605.3836141979555,"[42, 0, 212]",212,a,0.21453496254980564,colour,0.5
126,20,0,2,7,44,344,605.8956245293375,606.5676296461606,"[91, 0, 163]",163,l,0.1467328118160367,colour,0.5
126,20,0,2,7,45,345,607.0851152235409,607.7116075056838,"[1, 0, 253]",253,a,0.10352200653869659,colour,0.5
126,20,0,2,7,46,346,608.2257702050265,608.8796521079494,"[73, 0, 181]",181,l,0.13092856260482222,colour,0.5
126,20,0,2,7,47,347,609.3975827312097,610.0156215045135,"[92, 0, 162]",162,l,0.09473648550920188,colour,0.5
126,20,0,2,7,48,348,610.5226414143108,611.183640112984,"[55, 0, 199]",199,a,0.1377673032693565,colour,0.5
126,20,0,2,7,49,349,611.6945559465094,612.2396619383944,"[43, 0, 211]",211,a,0.021843482507392764,colour,0.5
126,20,0,2,7,50,350,612.7570392080816,613.4636775598628,"[49, 0, 205]",205,a,0.1833915963070467,colour,0.5
126,20,0,2,8,1,351,636.7636503056856,637.367589788977,"[10, 0, 244]",244,a,0.07997198973316699,colour,0.5
126,20,0,2,8,2,352,637.8737672622083,638.4636539290659,"[16, 0, 238]",238,a,0.06663991138339043,colour,0.5
126,20,0,2,8,3,353,638.9831225207308,639.7035738365958,"[49, 0, 205]",205,a,0.19723016035277396,colour,0.5
126,20,0,2,8,4,354,640.2202996851411,640.9516069700476,"[48, 0, 206]",206,a,0.20794080023188144,colour,0.5
126,20,0,2,8,5,355,641.4702922020806,642.0716299391352,"[39, 0, 215]",215,a,0.07809334457851946,colour,0.5
126,20,0,2,8,6,356,642.5796899959678,643.2396075875731,"[86, 0, 168]",168,l,0.1365109346807003,colour,0.5
126,20,0,2,8,7,357,643.7515202452196,644.3035693467828,"[80, 0, 174]",174,l,0.028755084611475468,colour,0.5
126,20,0,2,8,8,358,644.8149152600672,645.4636169075966,"[26, 0, 228]",228,a,0.12543165509123355,colour,0.5
126,20,0,2,8,9,359,645.9711681153858,646.5836178213358,"[90, 0, 164]",164,l,0.08920846425462514,colour,0.5
126,20,0,2,8,10,360,647.096365826088,647.7916157292202,"[25, 0, 229]",229,a,0.17211815062910318,colour,0.5
126,20,0,2,8,11,361,648.299272881588,648.8876085833181,"[89, 0, 165]",165,l,0.0650956416502595,colour,0.5
126,20,0,2,8,12,362,649.4086312908912,650.0636277777376,"[3, 0, 251]",251,a,0.13188009441364557,colour,0.5
126,20,0,2,8,13,363,650.5805497615365,651.2395871076733,"[0, 0, 254]",254,a,0.1357732613105327,colour,0.5
126,20,0,2,8,14,364,651.7523807985708,652.3596136213746,"[96, 0, 158]",158,l,0.08392777817789465,colour,0.5
126,20,0,2,8,15,365,652.8785607608734,653.4876289056847,"[2, 0, 252]",252,a,0.08572686626575887,colour,0.5
126,20,0,2,8,16,366,653.994794144528,654.807597996667,"[66, 0, 188]",188,l,0.28956615505740047,colour,0.5
126,20,0,2,8,17,367,655.322904424509,655.8955760862445,"[98, 0, 156]",156,l,0.04932683857623488,colour,0.5
126,20,0,2,8,18,368,656.4166401476832,656.959591802326,"[87, 0, 167]",167,l,0.019620616105385125,colour,0.5
126,20,0,2,8,19,369,657.4791647630045,658.0396016011946,"[79, 0, 175]",175,l,0.036999067408032715,colour,0.5
126,20,0,2,8,20,370,658.5573022183962,659.1276088353479,"[61, 0, 193]",193,l,0.047025596839375794,colour,0.5
126,20,0,2,8,21,371,659.6354428245686,660.3356323431944,"[56, 0, 198]",198,l,0.176865175482817,colour,0.5
126,20,0,2,8,22,372,660.8541545229964,662.1915540529881,"[68, 0, 186]",186,l,0.8141452913405374,colour,0.5
126,20,0,2,8,23,373,662.6854781919392,664.1915757145034,"[19, 0, 235]",235,a,0.9827802686486393,colour,0.5
126,20,0,2,8,24,374,664.7010571612045,665.295660526841,"[4, 0, 250]",250,a,0.07119749637786299,colour,0.5
126,20,0,2,8,25,375,665.8113533175783,666.4235820758622,"[41, 0, 213]",213,a,0.08918365195859224,colour,0.5
126,20,0,2,8,26,376,666.9363978221081,667.5596073985798,"[76, 0, 178]",178,l,0.09999629785306752,colour,0.5
126,20,0,2,8,27,377,668.0787179842591,669.1596096041612,"[20, 0, 234]",234,a,0.5575527044711635,colour,0.5
126,20,0,2,8,28,378,669.6724316519685,670.3915880024433,"[53, 0, 201]",201,a,0.19576859823428094,colour,0.5
126,20,0,2,8,29,379,670.8956584000262,671.5035761209438,"[95, 0, 159]",159,l,0.08456974697764963,colour,0.5
126,20,0,2,8,30,380,672.0207174769603,672.7356990607223,"[27, 0, 227]",227,a,0.19167023757472634,colour,0.5
126,20,0,2,8,31,381,673.2567867528414,673.8795827911235,"[92, 0, 162]",162,l,0.09949296282138675,colour,0.5
126,20,0,2,8,32,382,674.3974775744136,675.1355743691092,"[72, 0, 182]",182,l,0.21491541771683842,colour,0.5
126,20,0,2,8,33,383,675.6474563067313,676.3996811422985,"[58, 0, 196]",196,a,0.22899934777524322,colour,0.5
126,20,0,2,8,34,384,676.9130183405941,677.5435983495554,"[5, 0, 249]",249,a,0.1071930443868041,colour,0.5
126,20,0,2,8,35,385,678.0551884473534,678.7195482271491,"[69, 0, 185]",185,l,0.1411283842753619,colour,0.5
126,20,0,2,8,36,386,679.226958832005,679.7996163152857,"[35, 0, 219]",219,a,0.04936740477569401,colour,0.5
126,20,0,2,8,37,387,680.3207485120511,680.983569535776,"[32, 0, 222]",222,a,0.13954591134097427,colour,0.5
126,20,0,2,8,38,388,681.4925996350357,682.0475962795317,"[74, 0, 180]",180,l,0.031729802838526666,colour,0.5
126,20,0,2,8,39,389,682.5551222811919,683.5596066109138,"[6, 0, 248]",248,a,0.48130531574133784,colour,0.5
126,20,0,2,8,40,390,684.0707938042469,684.7435633760178,"[81, 0, 173]",173,l,0.149487370159477,colour,0.5
126,20,0,2,8,41,391,685.2461761499289,685.8715853558388,"[40, 0, 214]",214,a,0.10195765062235296,colour,0.5
126,20,0,2,8,42,392,686.3874872786691,687.5675938061904,"[31, 0, 223]",223,a,0.6567908489378169,colour,0.5
126,20,0,2,8,43,393,688.0750363125699,688.8956095631002,"[55, 0, 199]",199,a,0.2974934857338667,colour,0.5
126,20,0,2,8,44,394,689.3922008266672,690.0395649734419,"[11, 0, 243]",243,a,0.12442971102427691,colour,0.5
126,20,0,2,8,45,395,690.5484395036474,691.2315747062676,"[67, 0, 187]",187,l,0.15979353024158627,colour,0.5
126,20,0,2,8,46,396,691.7515407252358,692.759560609702,"[28, 0, 226]",226,a,0.4846943598240614,colour,0.5
126,20,0,2,8,47,397,693.2671681374777,694.2955691545503,"[57, 0, 197]",197,l,0.5050904585514218,colour,0.5
126,20,0,2,8,48,398,694.8140424975427,695.447557446314,"[23, 0, 231]",231,a,0.11025755945593119,colour,0.5
126,20,0,2,8,49,399,695.9547006298089,696.5755668230122,"[94, 0, 160]",160,l,0.09800225601065904,colour,0.5
126,20,0,2,8,50,400,697.0953059867024,697.8235893226229,"[44, 0, 210]",210,a,0.2049656881717965,colour,0.5
126,20,0,2,9,1,401,702.1736789619317,703.2155451772269,"[49, 0, 205]",205,a,0.517856186372228,colour,0.5
126,20,0,2,9,2,402,703.7233059110586,704.3356575493235,"[36, 0, 218]",218,a,0.08908007037825882,colour,0.5
126,20,0,2,9,3,403,704.8482007542625,705.4315468219575,"[82, 0, 172]",172,l,0.05990514613222331,colour,0.5
126,20,0,2,9,4,404,705.9420034311479,706.599566611927,"[88, 0, 166]",166,l,0.13444954517763108,colour,0.5
126,20,0,2,9,5,405,707.1138510096353,709.0875275298022,"[26, 0, 228]",228,a,1.4503549339715391,colour,0.5
126,20,0,2,9,6,406,709.5982393511804,710.223563486361,"[87, 0, 167]",167,l,0.10193717060610652,colour,0.5
126,20,0,2,9,7,407,710.7388931511668,711.6235337115359,"[23, 0, 231]",231,a,0.36145603260956705,colour,0.5
126,20,0,2,9,8,408,712.1295339541975,712.8875821955735,"[54, 0, 200]",200,a,0.23477391665801406,colour,0.5
126,20,0,2,9,9,409,713.3951503387652,714.079587989836,"[93, 0, 161]",161,l,0.1735107897548005,colour,0.5
126,20,0,2,9,10,410,714.5858651060844,715.3195476757828,"[19, 0, 235]",235,a,0.22337522800080478,colour,0.5
126,20,0,2,9,11,411,715.8391513564857,716.4795570335118,"[3, 0, 251]",251,a,0.11713607842102647,colour,0.5
126,20,0,2,9,12,412,716.9953880641842,717.7435834622011,"[33, 0, 221]",221,a,0.2248935040552169,colour,0.5
126,20,0,2,9,13,413,718.261023353436,718.9996045785956,"[77, 0, 177]",177,l,0.21525885129813105,colour,0.5
126,20,0,2,9,14,414,719.5136593641946,720.2715402210597,"[68, 0, 186]",186,l,0.23452185525093228,colour,0.5
126,20,0,2,9,15,415,720.7792749610962,721.3435640061507,"[6, 0, 248]",248,a,0.04090444347821176,colour,0.5
126,20,0,2,9,16,416,721.8575868902262,722.5755510691088,"[72, 0, 182]",182,l,0.19463392801117152,colour,0.5
126,20,0,2,9,17,417,723.0920484871604,723.767762450967,"[34, 0, 220]",220,a,0.1513927966589108,colour,0.5
126,20,0,2,9,18,418,724.2807806340279,724.9756071527954,"[45, 0, 209]",209,a,0.17148720938712358,colour,0.5
126,20,0,2,9,19,419,725.4838282925775,726.199553851271,"[59, 0, 195]",195,l,0.1896309033036232,colour,0.5
126,20,0,2,9,20,420,726.7055930846836,727.5275184082566,"[86, 0, 168]",168,l,0.298580500530079,colour,0.5
126,20,0,2,9,21,421,728.0337466876954,728.9195223121205,"[17, 0, 237]",237,a,0.36252020427491516,colour,0.5
126,20,0,2,9,22,422,729.4399975738488,730.1435237551341,"[81, 0, 173]",173,l,0.1802995118778199,colour,0.5
126,20,0,2,9,23,423,730.6587447184138,731.3035358698107,"[21, 0, 233]",233,a,0.12183584179729223,colour,0.5
126,20,0,2,9,24,424,731.8149518877035,732.5197021421045,"[73, 0, 181]",181,l,0.18132981285452843,colour,0.5
126,20,0,2,9,25,425,733.0336946999887,733.8155737704365,"[62, 0, 192]",192,l,0.25932627136353403,colour,0.5
126,20,0,2,9,26,426,734.3306241984246,735.0955446573207,"[55, 0, 199]",199,a,0.24150946957524866,colour,0.5
126,20,0,2,9,27,427,735.6118790230248,736.3835153426044,"[63, 0, 191]",191,l,0.2483608132461086,colour,0.5
126,20,0,2,9,28,428,736.8947596437065,737.4715056413552,"[24, 0, 230]",230,a,0.05341023299843073,colour,0.5
126,20,0,2,9,29,429,737.9883980867453,738.631602039095,"[0, 0, 254]",254,a,0.11980595998466015,colour,0.5
126,20,0,2,9,30,430,739.1466115071671,739.8556070268387,"[5, 0, 249]",249,a,0.18618238857015967,colour,0.5
126,20,0,2,9,31,431,740.3652208057465,741.015572667704,"[97, 0, 157]",157,l,0.12727485410869122,colour,0.5
126,20,0,2,9,32,432,741.5371353380615,742.2795372625114,"[92, 0, 162]",162,l,0.2190539506264031,colour,0.5
126,20,0,2,9,33,433,742.7871688149171,743.4475101848366,"[61, 0, 193]",193,a,0.13699733454268426,colour,0.5
126,20,0,2,9,34,434,743.9466626283247,744.5755010506837,"[10, 0, 244]",244,a,0.10551210993435234,colour,0.5
126,20,0,2,9,35,435,745.0873467545025,745.6795043370221,"[28, 0, 226]",226,a,0.06890019320417196,colour,0.5
126,20,0,2,9,36,436,746.1966500253184,746.8155272966251,"[43, 0, 211]",211,a,0.09367861540522426,colour,0.5
126,20,0,2,9,37,437,747.3235735688359,747.9035837615374,"[32, 0, 222]",222,a,0.05665749264881015,colour,0.5
126,20,0,2,9,38,438,748.4173687626608,748.99954707711,"[29, 0, 225]",225,a,0.05897330667357892,colour,0.5
126,20,0,2,9,39,439,749.5113951439271,750.2075386834331,"[53, 0, 201]",201,a,0.1728357378160581,colour,0.5
126,20,0,2,9,40,440,750.7145176331978,751.2795809793752,"[9, 0, 245]",245,a,0.04172521841246635,colour,0.5
126,20,0,2,9,41,441,751.7926357901888,752.4235367835499,"[71, 0, 183]",183,l,0.1076298194238916,colour,0.5
126,20,0,2,9,42,442,752.9332411470823,753.567563086166,"[67, 0, 187]",187,l,0.11088377446867526,colour,0.5
126,20,0,2,9,43,443,754.0738626517123,754.6875372183276,"[42, 0, 212]",212,a,0.09028287581168115,colour,0.5
126,20,0,2,9,44,444,755.1865033728536,755.7275310901459,"[91, 0, 163]",163,l,0.017640752717852592,colour,0.5
126,20,0,2,9,45,445,756.2489630036289,756.8475536654005,"[74, 0, 180]",180,l,0.07527104474138469,colour,0.5
126,20,0,2,9,46,446,757.3583710374078,758.6795161523623,"[46, 0, 208]",208,a,0.7960094743175432,colour,0.5
126,20,0,2,9,47,447,759.188319790177,759.7755204279674,"[2, 0, 252]",252,a,0.06381643004715443,colour,0.5
126,20,0,2,9,48,448,760.2819586271653,760.8635572005296,"[41, 0, 213]",213,a,0.058039891882799566,colour,0.5
126,20,0,2,9,49,449,761.3758144732565,762.879565855721,"[96, 0, 158]",158,l,0.9810256850905716,colour,0.5
126,20,0,2,9,50,450,763.3914344025543,763.9195872966666,"[51, 0, 203]",203,a,0.00498057552613318,colour,0.5
126,20,0,2,10,1,451,783.3470956225647,784.1194900955306,"[63, 0, 191]",191,l,0.2472021186258644,colour,0.5
126,20,0,2,10,2,452,784.6302913199179,785.3195374357747,"[77, 0, 177]",177,l,0.16606592037715018,colour,0.5
126,20,0,2,10,3,453,785.8333263753448,786.7355029254686,"[73, 0, 181]",181,l,0.37894988083280623,colour,0.5
126,20,0,2,10,4,454,787.2551834060578,787.8715369127458,"[32, 0, 222]",222,a,0.09303428349085152,colour,0.5
126,20,0,2,10,5,455,788.380204279907,788.9515215054853,"[22, 0, 232]",232,a,0.047968070139177144,colour,0.5
126,20,0,2,10,6,456,789.4584205044666,790.071538960794,"[83, 0, 171]",171,l,0.09004853758960962,colour,0.5
126,20,0,2,10,7,457,790.5833547322545,791.223554821685,"[42, 0, 212]",212,a,0.11696790624409914,colour,0.5
126,20,0,2,10,8,458,791.739581987611,792.3515452938154,"[41, 0, 213]",213,a,0.08869410143233836,colour,0.5
126,20,0,2,10,9,459,792.8648651628755,793.5754604846006,"[71, 0, 183]",183,l,0.18757660302799195,colour,0.5
126,20,0,2,10,10,460,794.0832503631245,794.6795153646963,"[16, 0, 238]",238,a,0.0729036369593814,colour,0.5
126,20,0,2,10,11,461,795.192651307676,795.8554932053667,"[25, 0, 229]",229,a,0.13974204671103507,colour,0.5
126,20,0,2,10,12,462,796.3664196727332,797.0955151189119,"[79, 0, 175]",175,l,0.2062003951286897,colour,0.5
126,20,0,2,10,13,463,797.6164098265581,798.3035504420986,"[76, 0, 178]",178,l,0.1640289492206648,colour,0.5
126,20,0,2,10,14,464,798.8197426295374,799.4635058430722,"[48, 0, 206]",206,a,0.12032938119955361,colour,0.5
126,20,0,2,10,15,465,799.9761356940726,800.631513423752,"[81, 0, 173]",173,l,0.13005934469401836,colour,0.5
126,20,0,2,10,16,466,801.1499824344646,801.8234912549378,"[23, 0, 231]",231,a,0.1501955051207915,colour,0.5
126,20,0,2,10,17,467,802.3374042559881,802.9515656162985,"[35, 0, 219]",219,a,0.09078148484695703,colour,0.5
126,20,0,2,10,18,468,803.4624519112986,804.1275521215284,"[49, 0, 205]",205,a,0.1417108824243769,colour,0.5
126,20,0,2,10,19,469,804.6343144560233,805.4075210392475,"[56, 0, 198]",198,a,0.24983064632397145,colour,0.5
126,20,0,2,10,20,470,805.9155149298022,806.511522750021,"[5, 0, 249]",249,a,0.07265827083028853,colour,0.5
126,20,0,2,10,21,471,807.0248737329384,807.5994909934234,"[9, 0, 245]",245,a,0.051343329600058496,colour,0.5
126,20,0,2,10,22,472,808.118672077544,809.7834895063424,"[96, 0, 158]",158,l,1.1415706733241677,colour,0.5
126,20,0,2,10,23,473,810.2905409237137,811.0554901333526,"[8, 0, 246]",246,a,0.24170914955902845,colour,0.5
126,20,0,2,10,24,474,811.5718107144348,812.2795140255475,"[10, 0, 244]",244,a,0.18441205099225044,colour,0.5
126,20,0,2,10,25,475,812.7906476559583,813.5354882744141,"[60, 0, 194]",194,l,0.22161552449688315,colour,0.5
126,20,0,2,10,26,476,814.0562380467309,814.6474732420174,"[59, 0, 195]",195,l,0.0685311594279483,colour,0.5
126,20,0,2,10,27,477,815.1655066590756,815.8955008616904,"[86, 0, 168]",168,l,0.2066946717677638,colour,0.5
126,20,0,2,10,28,478,816.4166803199332,816.9755228697322,"[0, 0, 254]",254,a,0.035522145102731884,colour,0.5
126,20,0,2,10,29,479,817.4947724830126,818.1995089527918,"[11, 0, 243]",243,a,0.1814259112579748,colour,0.5
126,20,0,2,10,30,480,818.7134940276155,819.7274940686766,"[27, 0, 227]",227,a,0.49057920556515455,colour,0.5
126,20,0,2,10,31,481,820.2448091106489,820.9435098917456,"[4, 0, 250]",250,a,0.17534965637605637,colour,0.5
126,20,0,2,10,32,482,821.4635231723078,822.0475072703557,"[80, 0, 174]",174,l,0.06055341649334878,colour,0.5
126,20,0,2,10,33,483,822.5448574749753,823.3594899537275,"[58, 0, 196]",196,l,0.29134200629778206,colour,0.5
126,20,0,2,10,34,484,823.8729543642839,824.5115251131356,"[28, 0, 226]",226,a,0.11523734731599689,colour,0.5
126,20,0,2,10,35,485,825.0291863457533,825.8634827636415,"[50, 0, 204]",204,l,0.31088779168203473,colour,0.5
126,20,0,2,10,36,486,826.372915373533,826.9835124281235,"[43, 0, 211]",211,a,0.08756770205218345,colour,0.5
126,20,0,2,10,37,487,827.4979720873525,828.1194849754684,"[15, 0, 239]",239,a,0.09829803416505456,colour,0.5
126,20,0,2,10,38,488,828.6386156473309,829.2394744677003,"[87, 0, 167]",167,l,0.07754826184827834,colour,0.5
126,20,0,2,10,39,489,829.7479496380547,830.3754993965849,"[90, 0, 164]",164,l,0.10418642463628203,colour,0.5
126,20,0,2,10,40,490,830.8886184041621,831.5035052286694,"[40, 0, 214]",214,a,0.09155933058355004,colour,0.5
126,20,0,2,10,41,491,832.0135400288273,832.6635197064606,"[89, 0, 165]",165,l,0.13922098861075938,colour,0.5
126,20,0,2,10,42,492,833.1729751592502,833.7034651350696,"[55, 0, 199]",199,a,0.007971441373229027,colour,0.5
126,20,0,2,10,43,493,834.2198877224,834.8314855394419,"[37, 0, 217]",217,a,0.08822621242143214,colour,0.5
126,20,0,2,10,44,494,835.3449527069461,835.8875046079047,"[1, 0, 253]",253,a,0.01923149626236409,colour,0.5
126,20,0,2,10,45,495,836.4073536546202,837.0154923230875,"[88, 0, 166]",166,l,0.08368083671666682,colour,0.5
126,20,0,2,10,46,496,837.5337785892189,838.1515479719965,"[78, 0, 176]",176,l,0.09448009193874896,colour,0.5
126,20,0,2,10,47,497,838.6615410244558,839.7594743574737,"[91, 0, 163]",163,l,0.5747385651338845,colour,0.5
126,20,0,2,10,48,498,840.2735949152848,841.56751424924,"[12, 0, 242]",242,a,0.7707162954611704,colour,0.5
126,20,0,2,10,49,499,842.086054152227,842.6715057201218,"[75, 0, 179]",179,l,0.06210674485191703,colour,0.5
126,20,0,2,10,50,500,843.1798028722405,843.7114932903787,"[61, 0, 193]",193,l,0.00914510223083198,colour,0.5
126,20,0,2,11,1,501,848.0539970634272,849.0234799121972,"[44, 0, 210]",210,a,0.445354666095227,colour,0.5
126,20,0,2,11,2,502,849.5391530107008,850.1675255133305,"[65, 0, 189]",189,l,0.10505327954888344,colour,0.5
126,20,0,2,11,3,503,850.679786330671,851.2875008269912,"[94, 0, 160]",160,l,0.08438267011661083,colour,0.5
126,20,0,2,11,4,504,851.8067012095125,852.479463692056,"[57, 0, 197]",197,a,0.14963663776870817,colour,0.5
126,20,0,2,11,5,505,852.9941868341994,853.6314622238278,"[24, 0, 230]",230,a,0.11401524336542934,colour,0.5
126,20,0,2,11,6,506,854.1410547350533,854.823511341121,"[5, 0, 249]",249,a,0.15927601663861424,colour,0.5
126,20,0,2,11,7,507,855.3441736797104,855.9915728787892,"[99, 0, 155]",155,l,0.12398387759458274,colour,0.5
126,20,0,2,11,8,508,856.5004891565768,857.8234628980281,"[70, 0, 184]",184,l,0.7996698783244938,colour,0.5
126,20,0,2,11,9,509,858.3441626520362,858.9995080863591,"[96, 0, 158]",158,l,0.13237515871878713,colour,0.5
126,20,0,2,11,10,510,859.5185808627866,860.2154790110653,"[25, 0, 229]",229,a,0.17398340487852693,colour,0.5
126,20,0,2,11,11,511,860.7216891736025,861.3274726434611,"[17, 0, 237]",237,a,0.08246306516230106,colour,0.5
126,20,0,2,11,12,512,861.8467596720438,862.4795058335876,"[51, 0, 203]",203,a,0.10940882156137377,colour,0.5
126,20,0,2,11,13,513,862.9873087089509,863.6154760179343,"[14, 0, 240]",240,a,0.10479846119415015,colour,0.5
126,20,0,2,11,14,514,864.1279699919978,864.7274948563427,"[38, 0, 216]",216,a,0.07622139505110681,colour,0.5
126,20,0,2,11,15,515,865.2372748382622,865.8554581530625,"[13, 0, 241]",241,a,0.09480659023392946,colour,0.5
126,20,0,2,11,16,516,866.3623244628543,866.9674793545855,"[95, 0, 159]",159,l,0.0818616624455899,colour,0.5
126,20,0,2,11,17,517,867.4873622719897,868.41548932984,"[32, 0, 222]",222,a,0.40483579772990197,colour,0.5
126,20,0,2,11,18,518,868.9248230843805,869.4954471411183,"[41, 0, 213]",213,a,0.04741786734666675,colour,0.5
126,20,0,2,11,19,519,870.0028530197451,870.679454318597,"[8, 0, 246]",246,a,0.15317613107617944,colour,0.5
126,20,0,2,11,20,520,871.1904363181675,871.7194789103232,"[48, 0, 206]",206,a,0.005764328991062939,colour,0.5
126,20,0,2,11,21,521,872.2373059520032,873.2794805486919,"[11, 0, 243]",243,a,0.5188423765357584,colour,0.5
126,20,0,2,11,22,522,873.7997340752045,874.4714812228922,"[46, 0, 208]",208,a,0.1484921214869246,colour,0.5
126,20,0,2,11,23,523,874.9748726302059,875.5754526077071,"[86, 0, 168]",168,l,0.0777101325802505,colour,0.5
126,20,0,2,11,24,524,876.0718284375034,876.9674309114926,"[61, 0, 193]",193,l,0.37253964447882026,colour,0.5
126,20,0,2,11,25,525,877.4781104375143,878.4474751325324,"[16, 0, 238]",238,a,0.4459607950411737,colour,0.5
126,20,0,2,11,26,526,878.9624932651641,879.6154756239848,"[97, 0, 157]",157,l,0.12965604639612138,colour,0.5
126,20,0,2,11,27,527,880.134358172887,880.7434219854185,"[31, 0, 223]",223,a,0.0858269032323733,colour,0.5
126,20,0,2,11,28,528,881.259382985183,881.903447884717,"[7, 0, 247]",247,a,0.12083232251461595,colour,0.5
126,20,0,2,11,29,529,882.4155952744186,883.0234747922514,"[84, 0, 170]",170,l,0.0844319008756429,colour,0.5
126,20,0,2,11,30,530,883.5406799513148,884.2314872724237,"[73, 0, 181]",181,l,0.16757080564275384,colour,0.5
126,20,0,2,11,31,531,884.7436925575603,885.3354976478731,"[3, 0, 251]",251,a,0.06843742413911968,colour,0.5
126,20,0,2,11,32,532,885.844789654715,886.471478466061,"[28, 0, 226]",226,a,0.10326718830037862,colour,0.5
126,20,0,2,11,33,533,886.9854340023594,887.6234328870196,"[76, 0, 178]",178,l,0.12592396256513894,colour,0.5
126,20,0,2,11,34,534,888.1306174242636,888.7674446173478,"[56, 0, 198]",198,a,0.11354774830397218,colour,0.5
126,20,0,2,11,35,535,889.2867816643557,889.9594756177394,"[71, 0, 183]",183,l,0.14933180098887533,colour,0.5
126,20,0,2,11,36,536,890.4749423408648,891.2394382338971,"[90, 0, 164]",164,l,0.2412877343595028,colour,0.5
126,20,0,2,11,37,537,891.756270814687,892.4714642876061,"[26, 0, 228]",228,a,0.19198767736088485,colour,0.5
126,20,0,2,11,38,538,892.9905827501789,893.6954180753091,"[40, 0, 214]",214,a,0.18156415119301528,colour,0.5
126,20,0,2,11,39,539,894.2115708780475,894.8235290641896,"[42, 0, 212]",212,a,0.08866771380417049,colour,0.5
126,20,0,2,11,40,540,895.3366138072452,896.0234306814382,"[87, 0, 167]",167,l,0.16353073413483799,colour,0.5
126,20,0,2,11,41,541,896.539697305765,897.1434323828435,"[92, 0, 162]",162,l,0.07990621740464121,colour,0.5
126,20,0,2,11,42,542,897.6558022955433,898.375435199705,"[27, 0, 227]",227,a,0.19623766874428838,colour,0.5
126,20,0,2,11,43,543,898.8901453448925,899.5354551912751,"[2, 0, 252]",252,a,0.12195045105181634,colour,0.5
126,20,0,2,11,44,544,900.0464285264025,900.7114999857731,"[55, 0, 199]",199,l,0.14172506087925285,colour,0.5
126,20,0,2,11,45,545,901.2182595633203,901.879427615786,"[10, 0, 244]",244,a,0.13782322930637747,colour,0.5
126,20,0,2,11,46,546,902.3902292340063,903.0234105953714,"[58, 0, 196]",196,l,0.10987159051001072,colour,0.5
126,20,0,2,11,47,547,903.530863735592,904.1034767142264,"[98, 0, 156]",156,l,0.05015352112241089,colour,0.5
126,20,0,2,11,48,548,904.6248995692004,905.1834368885029,"[89, 0, 165]",165,l,0.03544967749621719,colour,0.5
126,20,0,2,11,49,549,905.7029499846976,906.8954524185974,"[69, 0, 185]",185,l,0.6674951871391386,colour,0.5
126,20,0,2,11,50,550,907.4077569529181,908.2794703086838,"[82, 0, 172]",172,l,0.3484697510721162,colour,0.5
126,20,0,2,12,1,551,912.6100169195561,913.5354465267155,"[72, 0, 182]",182,l,0.401294335257262,colour,0.5
126,20,0,2,12,2,552,914.0359892463312,915.9354392011883,"[37, 0, 217]",217,a,1.3762504608603194,colour,0.5
126,20,0,2,12,3,553,916.4422334370902,917.079449749901,"[57, 0, 197]",197,a,0.11421177245210856,colour,0.5
126,20,0,2,12,4,554,917.5983886187896,918.1434256875655,"[89, 0, 165]",165,l,0.02169500256422907,colour,0.5
126,20,0,2,12,5,555,918.6608447049512,919.303443316021,"[67, 0, 187]",187,l,0.12838786258362234,colour,0.5
126,20,0,2,12,6,556,919.8136230516247,920.3994515300728,"[80, 0, 174]",174,l,0.062404492287896574,colour,0.5
126,20,0,2,12,7,557,920.907366651576,921.4634573999792,"[40, 0, 214]",214,a,0.032825088244862854,colour,0.5
126,20,0,2,12,8,558,921.9698967807926,923.8154331673868,"[87, 0, 167]",167,l,1.3222553664818406,colour,0.5
126,20,0,2,12,9,559,924.3292378608603,925.7354934731266,"[45, 0, 209]",209,a,0.8829478106927127,colour,0.5
126,20,0,2,12,10,560,926.2511200977024,927.2714555441635,"[64, 0, 190]",190,l,0.49700283247511834,colour,0.5
126,20,0,2,12,11,561,927.782342233113,928.4554229432251,"[0, 0, 254]",254,a,0.14972997922450304,colour,0.5
126,20,0,2,12,12,562,928.9698026516708,929.6794109954499,"[31, 0, 223]",223,a,0.18619184067938477,colour,0.5
126,20,0,2,12,13,563,930.188659285428,930.871459325077,"[75, 0, 179]",179,l,0.15953044116031379,colour,0.5
126,20,0,2,12,14,564,931.391689220909,932.0954343804624,"[83, 0, 171]",171,l,0.1804582318291068,colour,0.5
126,20,0,2,12,15,565,932.6104899285128,933.1994439682458,"[34, 0, 220]",220,a,0.06565175193827599,colour,0.5
126,20,0,2,12,16,566,933.7198121038964,934.423393029836,"[10, 0, 244]",244,a,0.18023728427942842,colour,0.5
126,20,0,2,12,17,567,934.938619507011,935.5753899861593,"[3, 0, 251]",251,a,0.11345598218031228,colour,0.5
126,20,0,2,12,18,568,936.094878270058,937.095461555873,"[15, 0, 239]",239,a,0.477332198061049,colour,0.5
126,20,0,2,12,19,569,937.6104690546636,938.4874654596206,"[56, 0, 198]",198,l,0.35373271408025175,colour,0.5
126,20,0,2,12,20,570,939.0010271500796,939.6394108221866,"[84, 0, 170]",170,l,0.1120408937567845,colour,0.5
126,20,0,2,12,21,571,940.1603693328798,940.7434278930305,"[90, 0, 164]",164,l,0.059850007644854486,colour,0.5
126,20,0,2,12,22,572,941.2459811961744,941.9194372413913,"[43, 0, 211]",211,a,0.15010492061264813,colour,0.5
126,20,0,2,12,23,573,942.433373873122,943.0154151292518,"[24, 0, 230]",230,a,0.058649565326049924,colour,0.5
126,20,0,2,12,24,574,943.527178913122,944.1194361386588,"[76, 0, 178]",178,l,0.06896635924931616,colour,0.5
126,20,0,2,12,25,575,944.6365042392863,945.2154108757386,"[58, 0, 196]",196,a,0.05545468721538782,colour,0.5
126,20,0,2,12,26,576,945.7302116054343,946.2794297426008,"[22, 0, 232]",232,a,0.02573822485283017,colour,0.5
126,20,0,2,12,27,577,946.7948558996432,947.4954349318286,"[42, 0, 212]",212,a,0.17739253514446318,colour,0.5
126,20,0,2,12,28,578,948.0134525950998,948.5514244618826,"[55, 0, 199]",199,a,0.014573086751624942,colour,0.5
126,20,0,2,12,29,579,949.0480318730697,949.687439150759,"[66, 0, 188]",188,l,0.11624362366273999,colour,0.5
126,20,0,2,12,30,580,950.2042579469271,951.0794028822565,"[16, 0, 238]",238,a,0.3519474104978144,colour,0.5
126,20,0,2,12,31,581,951.594862910104,952.2874385993928,"[60, 0, 194]",194,a,0.16924977081362158,colour,0.5
126,20,0,2,12,32,582,952.7917720860569,953.3753969966201,"[79, 0, 175]",175,l,0.06037461047526449,colour,0.5
126,20,0,2,12,33,583,953.8855416799197,954.5354232897516,"[74, 0, 180]",180,l,0.13894372095819563,colour,0.5
126,20,0,2,12,34,584,955.0450256471522,955.6074006011477,"[8, 0, 246]",246,a,0.03902816155459732,colour,0.5
126,20,0,2,12,35,585,956.1255328734405,956.8233754643006,"[48, 0, 206]",206,a,0.1747801551828161,colour,0.5
126,20,0,2,12,36,586,957.34443479951,958.0874176467769,"[65, 0, 189]",189,l,0.21977508254349232,colour,0.5
126,20,0,2,12,37,587,958.5943040426355,959.183446734678,"[97, 0, 157]",157,l,0.06582701345905662,colour,0.5
126,20,0,2,12,38,588,959.7043378977105,960.3274911541957,"[2, 0, 252]",252,a,0.09881239698734134,colour,0.5
126,20,0,2,12,39,589,960.8459912786493,961.5354339235928,"[98, 0, 156]",156,l,0.1660828556632623,colour,0.5
126,20,0,2,12,40,590,962.0491228263127,962.679445653921,"[51, 0, 203]",203,a,0.10709458286873996,colour,0.5
126,20,0,2,12,41,591,963.1896750140004,963.8233923997032,"[5, 0, 249]",249,a,0.11034144868608564,colour,0.5
126,20,0,2,12,42,592,964.3304162478307,965.0233975984156,"[32, 0, 222]",222,a,0.16961762285791337,colour,0.5
126,20,0,2,12,43,593,965.5342512043426,966.1274048230844,"[25, 0, 229]",229,a,0.06993049406446517,colour,0.5
126,20,0,2,12,44,594,966.6454937724629,968.4794652675046,"[19, 0, 235]",235,a,1.310710167279467,colour,0.5
126,20,0,2,12,45,595,968.9892129539512,970.2873897624668,"[26, 0, 228]",228,a,0.7749044529628009,colour,0.5
126,20,0,2,12,46,596,970.7892558044987,971.479423913639,"[14, 0, 240]",240,a,0.1669311998412013,colour,0.5
126,20,0,2,12,47,597,971.9923857767135,972.7354395162547,"[78, 0, 176]",176,l,0.2200133593287319,colour,0.5
126,20,0,2,12,48,598,973.2424121644581,973.8394128702348,"[20, 0, 234]",234,a,0.07376419031061232,colour,0.5
126,20,0,2,12,49,599,974.3518883335637,974.9833950620377,"[39, 0, 215]",215,a,0.10853999736718833,colour,0.5
126,20,0,2,12,50,600,975.4925767920213,976.0954261097359,"[70, 0, 184]",184,l,0.07978058059234172,colour,0.5
126,20,0,2,13,1,601,1017.9928497272776,1018.5353980836226,"[42, 0, 212]",212,a,0.018335102940909564,colour,0.5
126,20,0,2,13,2,602,1019.0562388343969,1019.607373425737,"[2, 0, 252]",252,a,0.028181251022033393,colour,0.5
126,20,0,2,13,3,603,1020.1186842867173,1020.6953897183994,"[72, 0, 182]",182,l,0.053336583892814815,colour,0.5
126,20,0,2,13,4,604,1021.2124538805801,1022.1513845259324,"[92, 0, 162]",162,l,0.4155755821848288,colour,0.5
126,20,0,2,13,5,605,1022.6655015391298,1023.3034098391654,"[9, 0, 245]",245,a,0.11444020317867398,colour,0.5
126,20,0,2,13,6,606,1023.8218398590107,1024.4473904556362,"[25, 0, 229]",229,a,0.10217426577582955,colour,0.5
126,20,0,2,13,7,607,1024.9636133629829,1025.5273632330354,"[38, 0, 216]",216,a,0.040257748565636575,colour,0.5
126,20,0,2,13,8,608,1026.0418189537013,1026.6794330509147,"[27, 0, 227]",227,a,0.11435158783569932,colour,0.5
126,20,0,2,13,9,609,1027.1980840183096,1027.7754140895559,"[85, 0, 169]",169,l,0.05257252277806401,colour,0.5
126,20,0,2,13,10,610,1028.293284848216,1028.9273874151986,"[43, 0, 211]",211,a,0.11078294995240867,colour,0.5
126,20,0,2,13,11,611,1029.4340020574164,1030.0153265139088,"[99, 0, 155]",155,l,0.058046587160788476,colour,0.5
126,20,0,2,13,12,612,1030.5294100502506,1031.1833998670336,"[17, 0, 237]",237,a,0.13058040291070938,colour,0.5
126,20,0,2,13,13,613,1031.6993002145318,1032.279407293303,"[93, 0, 161]",161,l,0.055534244049340487,colour,0.5
126,20,0,2,13,14,614,1032.7944041583687,1033.4633585446281,"[6, 0, 248]",248,a,0.1456863631028682,colour,0.5
126,20,0,2,13,15,615,1033.9818011675961,1034.6153929163702,"[3, 0, 251]",251,a,0.11025007639545947,colour,0.5
126,20,0,2,13,16,616,1035.1225290106377,1035.7434007177362,"[89, 0, 165]",165,l,0.09756036091130227,colour,0.5
126,20,0,2,13,17,617,1036.2631390937604,1036.9274047443178,"[82, 0, 172]",172,l,0.14095430437009782,colour,0.5
126,20,0,2,13,18,618,1037.4350335398922,1038.0713566100458,"[69, 0, 185]",185,l,0.1130644993390888,colour,0.5
126,20,0,2,13,19,619,1038.591242284514,1039.2074028066127,"[76, 0, 178]",178,l,0.09310163115151227,colour,0.5
126,20,0,2,13,20,620,1039.7169484501937,1040.3273584280396,"[22, 0, 232]",232,a,0.08709981315769255,colour,0.5
126,20,0,2,13,21,621,1040.8419799578842,1041.4954305995489,"[77, 0, 177]",177,l,0.14256828499492258,colour,0.5
126,20,0,2,13,22,622,1042.0108583320398,1042.5433659804985,"[48, 0, 206]",206,a,0.007537817116826773,colour,0.5
126,20,0,2,13,23,623,1043.0576830673963,1043.6793582201935,"[26, 0, 228]",228,a,0.09847920341417193,colour,0.5
126,20,0,2,13,24,624,1044.1982135935687,1044.8473996716784,"[60, 0, 194]",194,l,0.1258247133810073,colour,0.5
126,20,0,2,13,25,625,1045.354521981324,1045.9433429010678,"[54, 0, 200]",200,l,0.06551351200323552,colour,0.5
126,20,0,2,13,26,626,1046.4639745196328,1047.1673423749162,"[49, 0, 205]",205,l,0.18005965976044536,colour,0.5
126,20,0,2,13,27,627,1047.6826007536147,1048.2793950841296,"[52, 0, 202]",202,l,0.074093445437029,colour,0.5
126,20,0,2,13,28,628,1048.7920481719775,1049.407367833075,"[63, 0, 191]",191,l,0.09220563166309148,colour,0.5
126,20,0,2,13,29,629,1049.917064713547,1050.5193547700765,"[40, 0, 214]",214,l,0.07894483953714371,colour,0.5
126,20,0,2,13,30,630,1051.0264195782365,1051.6233647516929,"[75, 0, 179]",179,l,0.07353024580515921,colour,0.5
126,20,0,2,13,31,631,1052.1358370643575,1052.847472139285,"[24, 0, 230]",230,a,0.1883859564550221,colour,0.5
126,20,0,2,13,32,632,1053.3548055503052,1053.9514088656288,"[91, 0, 163]",163,l,0.07357750739902258,colour,0.5
126,20,0,2,13,33,633,1054.463970581186,1055.0073952447856,"[31, 0, 223]",223,a,0.02005896659102291,colour,0.5
126,20,0,2,13,34,634,1055.526418002788,1056.0873483298346,"[15, 0, 239]",239,a,0.037598500843159854,colour,0.5
126,20,0,2,13,35,635,1056.6046239873394,1057.2313982632477,"[13, 0, 241]",241,a,0.10380872641690075,colour,0.5
126,20,0,2,13,36,636,1057.7470753000816,1058.2793497918174,"[11, 0, 243]",243,a,0.008885163930244744,colour,0.5
126,20,0,2,13,37,637,1058.7939197277883,1059.4313451728085,"[35, 0, 219]",219,a,0.11404360027518123,colour,0.5
126,20,0,2,13,38,638,1059.9522229450522,1060.5833547322545,"[64, 0, 190]",190,l,0.10780547477770597,colour,0.5
126,20,0,2,13,39,639,1061.0928897419944,1061.64745000517,"[65, 0, 189]",189,l,0.03147616609930992,colour,0.5
126,20,0,2,13,40,640,1062.1553761543473,1062.7193824180868,"[84, 0, 170]",170,l,0.04076856677420437,colour,0.5
126,20,0,2,13,41,641,1063.2334592589177,1063.8073262430262,"[30, 0, 224]",224,a,0.06283220904879272,colour,0.5
126,20,0,2,13,42,642,1064.3148609093623,1065.1273449586006,"[55, 0, 199]",199,a,0.28908448154106736,colour,0.5
126,20,0,2,13,43,643,1065.6430263277143,1066.2953801085241,"[50, 0, 204]",204,a,0.12896051455754787,colour,0.5
126,20,0,2,13,44,644,1066.8148857216584,1067.3593662860803,"[61, 0, 193]",193,l,0.02124247362371534,colour,0.5
126,20,0,2,13,45,645,1067.8774119123118,1068.4233418297954,"[12, 0, 242]",242,a,0.02263078046962619,colour,0.5
126,20,0,2,13,46,646,1068.9399002939463,1069.5193350777263,"[98, 0, 156]",156,l,0.05611437908373773,colour,0.5
126,20,0,2,13,47,647,1070.0335800908506,1070.679318047827,"[39, 0, 215]",215,a,0.12232736160513014,colour,0.5
126,20,0,2,13,48,648,1071.181402280461,1071.7833721402567,"[96, 0, 158]",158,l,0.0786687535000965,colour,0.5
126,20,0,2,13,49,649,1072.2907327266876,1072.8633082899032,"[14, 0, 240]",240,a,0.04931935539934784,colour,0.5
126,20,0,2,13,50,650,1073.3845094096614,1073.9673363884212,"[90, 0, 164]",164,l,0.05953532480634749,colour,0.5
126,20,0,2,14,1,651,1078.9148855641251,1079.4793668059865,"[89, 0, 165]",165,l,0.040280197747051716,colour,0.5
126,20,0,2,14,2,652,1079.995085984352,1080.5754455184797,"[10, 0, 244]",244,a,0.05736129533033818,colour,0.5
126,20,0,2,14,3,653,1081.0888343105325,1081.6873887385009,"[33, 0, 221]",221,a,0.07562865689396858,colour,0.5
126,20,0,2,14,4,654,1082.1981490028556,1082.7993386539165,"[48, 0, 206]",206,a,0.0778751540929079,colour,0.5
126,20,0,2,14,5,655,1083.307499535149,1083.91138348612,"[88, 0, 166]",166,l,0.08058284467551857,colour,0.5
126,20,0,2,14,6,656,1084.4325215906138,1085.0073318355717,"[94, 0, 160]",160,l,0.05144769884645939,colour,0.5
126,20,0,2,14,7,657,1085.5269713563612,1086.54334392515,"[16, 0, 238]",238,a,0.4930781580042094,colour,0.5
126,20,0,2,14,8,658,1087.061757797259,1087.6953704198822,"[1, 0, 253]",253,a,0.11031703022308648,colour,0.5
126,20,0,2,14,9,659,1088.202261935803,1088.7833512664074,"[58, 0, 196]",196,l,0.05764368292875588,colour,0.5
126,20,0,2,14,10,660,1089.2970767967636,1089.8793693266343,"[4, 0, 250]",250,a,0.05782563972752541,colour,0.5
126,20,0,2,14,11,661,1090.3920145375887,1091.0313182336977,"[54, 0, 200]",200,l,0.11618769750930369,colour,0.5
126,20,0,2,14,12,662,1091.5482922052033,1092.1753728932235,"[22, 0, 232]",232,a,0.10381857247557491,colour,0.5
126,20,0,2,14,13,663,1092.6888692053035,1093.31930664205,"[34, 0, 220]",220,a,0.10717374586965889,colour,0.5
126,20,0,2,14,14,664,1093.829513552948,1094.7833516602404,"[97, 0, 157]",157,l,0.4305941086495295,colour,0.5
126,20,0,2,14,15,665,1095.2982622729614,1095.9753476083279,"[61, 0, 193]",193,l,0.15358848765026778,colour,0.5
126,20,0,2,14,16,666,1096.4858833806356,1097.1353290030966,"[39, 0, 215]",215,a,0.12612876237835735,colour,0.5
126,20,0,2,14,17,667,1097.6421669559786,1098.2633580720285,"[63, 0, 191]",191,l,0.09817318501882255,colour,0.5
126,20,0,2,14,18,668,1098.782722294447,1099.5194256623508,"[24, 0, 230]",230,a,0.2133597262436524,colour,0.5
126,20,0,2,14,19,669,1100.0332839187467,1101.2473927399842,"[47, 0, 207]",207,l,0.6905800721142441,colour,0.5
126,20,0,2,14,20,670,1101.7684855520492,1102.4072985162493,"[32, 0, 222]",222,a,0.11617233755532652,colour,0.5
126,20,0,2,14,21,671,1102.9246828751639,1103.5353208899032,"[90, 0, 164]",164,l,0.08736053924076259,colour,0.5
126,20,0,2,14,22,672,1104.0460039604222,1104.9913523250725,"[26, 0, 228]",228,a,0.4219897568691522,colour,0.5
126,20,0,2,14,23,673,1105.4991154220188,1106.1114186171908,"[66, 0, 188]",188,l,0.08885636599734426,colour,0.5
126,20,0,2,14,24,674,1106.624166621943,1107.9593759747222,"[3, 0, 251]",251,a,0.81275580287911,colour,0.5
126,20,0,2,14,25,675,1108.4678905296605,1109.1433524321765,"[91, 0, 163]",163,l,0.15213165164459497,colour,0.5
126,20,0,2,14,26,676,1109.6553781235125,1110.3113214160549,"[71, 0, 183]",183,l,0.1325645986944437,colour,0.5
126,20,0,2,14,27,677,1110.827235154342,1111.4393674203893,"[62, 0, 192]",192,l,0.08870434144046158,colour,0.5
126,20,0,2,14,28,678,1111.9522402742878,1112.6073356164852,"[43, 0, 211]",211,a,0.13176430366002023,colour,0.5
126,20,0,2,14,29,679,1113.1240591020323,1113.7354253377998,"[96, 0, 158]",158,l,0.08801589882932603,colour,0.5
126,20,0,2,14,30,680,1114.249053194304,1114.87133920216,"[81, 0, 173]",173,l,0.09883917856495827,colour,0.5
126,20,0,2,14,31,681,1115.3897625266109,1116.0553514995845,"[46, 0, 208]",208,a,0.14227093139197677,colour,0.5
126,20,0,2,14,32,682,1116.5616924188798,1117.2953178808093,"[85, 0, 169]",169,l,0.21032868803013116,colour,0.5
126,20,0,2,14,33,683,1117.7992846969282,1118.39929438557,"[59, 0, 195]",195,a,0.07756598491687328,colour,0.5
126,20,0,2,14,34,684,1118.9087104538921,1119.4553126663668,"[40, 0, 214]",214,a,0.023496059933677316,colour,0.5
126,20,0,2,14,35,685,1119.971157875494,1120.5033142133616,"[13, 0, 241]",241,a,0.008738653268665075,colour,0.5
126,20,0,2,14,36,686,1121.0180452323984,1121.599414193537,"[5, 0, 249]",249,a,0.06795968906953931,colour,0.5
126,20,0,2,14,37,687,1122.1172376907198,1122.6873733784305,"[49, 0, 205]",205,a,0.04680622462183237,colour,0.5
126,20,0,2,14,38,688,1123.1955700997496,1123.7834056171123,"[36, 0, 218]",218,a,0.06225522479508072,colour,0.5
126,20,0,2,14,39,689,1124.291145477211,1124.823334110435,"[35, 0, 219]",219,a,0.00887728703673929,colour,0.5
126,20,0,2,14,40,690,1125.3385574368294,1125.91957902594,"[69, 0, 185]",185,l,0.057945762760937214,colour,0.5
126,20,0,2,14,41,691,1126.4321486185072,1127.4475054586073,"[51, 0, 203]",203,a,0.4922262692125514,colour,0.5
126,20,0,2,14,42,692,1127.9632801692933,1128.5513736557914,"[79, 0, 175]",175,l,0.06468643562402576,colour,0.5
126,20,0,2,14,43,693,1129.0606010718038,1129.6634988326114,"[15, 0, 239]",239,a,0.09177791501861066,colour,0.5
126,20,0,2,14,44,694,1130.1735525374534,1130.9593369839713,"[50, 0, 204]",204,a,0.26271846634335816,colour,0.5
126,20,0,2,14,45,695,1131.4704702204326,1132.0313075998565,"[31, 0, 223]",223,a,0.03762252535670996,colour,0.5
126,20,0,2,14,46,696,1132.548675811151,1133.2793249795213,"[64, 0, 190]",190,l,0.20747566816862673,colour,0.5
126,20,0,2,14,47,697,1133.7984261128586,1134.471342195291,"[99, 0, 155]",155,l,0.14939442242030054,colour,0.5
126,20,0,2,14,48,698,1134.974527621176,1135.5673574985703,"[80, 0, 174]",174,l,0.06959139264654368,colour,0.5
126,20,0,2,14,49,699,1136.0794544761302,1136.6952924383804,"[45, 0, 209]",209,a,0.09258254221640527,colour,0.5
126,20,0,2,14,50,700,1137.1951191462576,1137.8473626500927,"[67, 0, 187]",187,l,0.12885969004128128,colour,0.5
126,20,0,2,15,1,701,1158.618217579322,1159.143379213754,"[8, 0, 246]",246,a,0.001042510150000453,colour,0.5
126,20,0,2,15,2,702,1159.6658583634999,1160.207359089749,"[93, 0, 161]",161,l,0.01830556453205645,colour,0.5
126,20,0,2,15,3,703,1160.7282935758121,1161.2552873814711,"[23, 0, 231]",231,a,0.0035836041206493974,colour,0.5
126,20,0,2,15,4,704,1161.7752951480215,1162.343343058601,"[48, 0, 206]",206,a,0.04486023192293942,colour,0.5
126,20,0,2,15,5,705,1162.8533979450585,1163.4713075369364,"[61, 0, 193]",193,l,0.09408663981594145,colour,0.5
126,20,0,2,15,6,706,1163.9797476549866,1164.519259459339,"[20, 0, 234]",234,a,0.016274895053356886,colour,0.5
126,20,0,2,15,7,707,1165.0264861381147,1165.5513449050486,"[95, 0, 159]",159,l,0.0014745591906830668,colour,0.5
126,20,0,2,15,8,708,1166.0733203258133,1166.6073769703507,"[35, 0, 219]",219,a,0.010646442882716656,colour,0.5
126,20,0,2,15,9,709,1167.1203159904107,1167.66329994041,"[38, 0, 216]",216,a,0.019663545303046703,colour,0.5
126,20,0,2,15,10,710,1168.1827645935118,1168.7352965502068,"[91, 0, 163]",163,l,0.029215884278528392,colour,0.5
126,20,0,2,15,11,711,1169.245253762696,1169.8392892025877,"[52, 0, 202]",202,a,0.07077174901496619,colour,0.5
126,20,0,2,15,12,712,1170.3546889718855,1171.0312930275686,"[64, 0, 190]",190,l,0.15340219857171178,colour,0.5
126,20,0,2,15,13,713,1171.5421619934496,1173.2872944517294,"[41, 0, 213]",213,a,1.222037727246061,colour,0.5
126,20,0,2,15,14,714,1173.8077811350813,1174.4152601115638,"[33, 0, 221]",221,a,0.08425506413914263,colour,0.5
126,20,0,2,15,15,715,1174.932751202723,1175.5993318797555,"[57, 0, 197]",197,l,0.14333549689035863,colour,0.5
126,20,0,2,15,16,716,1176.1205341810128,1176.6953164630104,"[87, 0, 167]",167,l,0.05156073265243322,colour,0.5
126,20,0,2,15,17,717,1177.2148921806365,1177.7752841203474,"[77, 0, 177]",177,l,0.037156605743803084,colour,0.5
126,20,0,2,15,18,718,1178.2805514157517,1178.8872954758117,"[78, 0, 176]",176,l,0.08335985231678933,colour,0.5
126,20,0,2,15,19,719,1179.3930834353669,1180.0232644785428,"[55, 0, 199]",199,a,0.10695870604831725,colour,0.5
126,20,0,2,15,20,720,1180.5336561031872,1181.0632811933756,"[44, 0, 210]",210,a,0.006224340992048383,colour,0.5
126,20,0,2,15,21,721,1181.580654524616,1182.679332226282,"[39, 0, 215]",215,a,0.575323426281102,colour,0.5
126,20,0,2,15,22,722,1183.1900464107748,1184.0953398575075,"[21, 0, 233]",233,a,0.38205693126656115,colour,0.5
126,20,0,2,15,23,723,1184.613726554322,1185.215279725031,"[31, 0, 223]",223,a,0.07819889532402158,colour,0.5
126,20,0,2,15,24,724,1185.7249431286473,1186.3352767003234,"[68, 0, 186]",186,l,0.08710611471906304,colour,0.5
126,20,0,2,15,25,725,1186.8500211100327,1187.839284870308,"[25, 0, 229]",229,a,0.46601936779916286,colour,0.5
126,20,0,2,15,26,726,1188.3499246177962,1188.9833210189827,"[58, 0, 196]",196,l,0.11015673482324928,colour,0.5
126,20,0,2,15,27,727,1189.4905232794117,1190.4153148561018,"[4, 0, 250]",250,a,0.4013309628935531,colour,0.5
126,20,0,2,15,28,728,1190.9280534086283,1191.551327969646,"[71, 0, 183]",183,l,0.0999777871184051,colour,0.5
126,20,0,2,15,29,729,1192.0686434055679,1192.647362177493,"[92, 0, 162]",162,l,0.05536055809352547,colour,0.5
126,20,0,2,15,30,730,1193.162346833269,1193.6953018907225,"[84, 0, 170]",170,l,0.009551157476380467,colour,0.5
126,20,0,2,15,31,731,1194.209242067067,1194.8073270306922,"[11, 0, 243]",243,a,0.07495439262129366,colour,0.5
126,20,0,2,15,32,732,1195.3186012640363,1195.8792539297137,"[69, 0, 185]",185,l,0.037352740997448564,colour,0.5
126,20,0,2,15,33,733,1196.396769439336,1197.0793260822538,"[70, 0, 184]",184,l,0.15916534594725817,colour,0.5
126,20,0,2,15,34,734,1197.5999009871157,1198.5672673078952,"[24, 0, 230]",230,a,0.44414043915458024,colour,0.5
126,20,0,2,15,35,735,1199.0843428916996,1200.0073440448614,"[82, 0, 172]",172,l,0.39972919155843556,colour,0.5
126,20,0,2,15,36,736,1200.521764713223,1201.1432606660528,"[45, 0, 209]",209,a,0.09816570195835084,colour,0.5
126,20,0,2,15,37,737,1201.6623779471265,1202.543275789707,"[81, 0, 173]",173,l,0.35757153027225286,colour,0.5
126,20,0,2,15,38,738,1203.0554771363968,1203.7912821416976,"[49, 0, 205]",205,a,0.21248853905126452,colour,0.5
126,20,0,2,15,39,739,1204.3055153394816,1205.0393014905276,"[43, 0, 211]",211,a,0.21047992480453104,colour,0.5
126,20,0,2,15,40,740,1205.5555039179744,1206.2392779386137,"[5, 0, 249]",249,a,0.16050599748268723,colour,0.5
126,20,0,2,15,41,741,1206.7585629979149,1207.407292608521,"[17, 0, 237]",237,a,0.12536548892967403,colour,0.5
126,20,0,2,15,42,742,1207.9149044686928,1208.743276656256,"[50, 0, 204]",204,a,0.30586192396003753,colour,0.5
126,20,0,2,15,43,743,1209.2492670526262,1209.8632759945467,"[51, 0, 203]",203,a,0.09062670334242284,colour,0.5
126,20,0,2,15,44,744,1210.3743403080152,1211.0473040458746,"[6, 0, 248]",248,a,0.1500450560124591,colour,0.5
126,20,0,2,15,45,745,1211.5618857971858,1212.2792832318228,"[72, 0, 182]",182,l,0.1941924267448485,colour,0.5
126,20,0,2,15,46,746,1212.7972000705777,1213.4232772390824,"[3, 0, 251]",251,a,0.10095610027201474,colour,0.5
126,20,0,2,15,47,747,1213.9396320848027,1214.631280660862,"[73, 0, 181]",181,l,0.16912295238580555,colour,0.5
126,20,0,2,15,48,748,1215.1427486663451,1215.7992500385735,"[13, 0, 241]",241,a,0.13324831519275904,colour,0.5
126,20,0,2,15,49,749,1216.3148101031547,1216.983277695952,"[28, 0, 226]",226,a,0.14523895422462374,colour,0.5
126,20,0,2,15,50,750,1217.502252798644,1218.2232810987625,"[62, 0, 192]",192,l,0.1977681538555771,colour,0.5
126,20,0,2,16,1,751,1244.8523983641062,1245.5032846749527,"[81, 0, 173]",173,l,0.12674316205084324,colour,0.5
126,20,0,2,16,2,752,1246.009486566647,1246.6552489420865,"[17, 0, 237]",237,a,0.12258808757178485,colour,0.5
126,20,0,2,16,3,753,1247.1655905483058,1247.7512441591825,"[2, 0, 252]",252,a,0.06215873244218528,colour,0.5
126,20,0,2,16,4,754,1248.2594007082516,1248.991231808206,"[57, 0, 197]",197,l,0.20877851056866348,colour,0.5
126,20,0,2,16,5,755,1249.5094593912363,1250.1112248450518,"[7, 0, 247]",247,a,0.07890191033948213,colour,0.5
126,20,0,2,16,6,756,1250.6188051974168,1251.2392519447021,"[58, 0, 196]",196,l,0.09713225020095706,colour,0.5
126,20,0,2,16,7,757,1251.7607586890226,1252.319242051337,"[84, 0, 170]",170,l,0.03519840375520289,colour,0.5
126,20,0,2,16,8,758,1252.838778384379,1253.4312597082462,"[94, 0, 160]",160,l,0.06940864818170667,colour,0.5
126,20,0,2,16,9,759,1253.9482612489955,1254.5513004004024,"[11, 0, 243]",243,a,0.08052770630456507,colour,0.5
126,20,0,2,16,10,760,1255.0575070183259,1255.9832237390801,"[75, 0, 179]",179,l,0.4024108884623274,colour,0.5
126,20,0,2,16,11,761,1256.4972178724129,1257.1752346532885,"[30, 0, 224]",224,a,0.15470346552319825,colour,0.5
126,20,0,2,16,12,762,1257.6847188569373,1258.2952233578544,"[48, 0, 206]",206,a,0.08583359851036221,colour,0.5
126,20,0,2,16,13,763,1258.808995755855,1259.447280966444,"[54, 0, 200]",200,a,0.11524601187556982,colour,0.5
126,20,0,2,16,14,764,1259.9651399097638,1260.5992452335777,"[37, 0, 217]",217,a,0.11138750333338976,colour,0.5
126,20,0,2,16,15,765,1261.10584609129,1261.735224082484,"[92, 0, 162]",162,l,0.1061135126510635,colour,0.5
126,20,0,2,16,16,766,1262.247219447745,1262.9272452368168,"[71, 0, 183]",183,l,0.1566852981923148,colour,0.5
126,20,0,2,16,17,767,1263.4347377616214,1264.0632209349424,"[25, 0, 229]",229,a,0.10519900254439563,colour,0.5
126,20,0,2,16,18,768,1264.575289161643,1265.2792812626576,"[5, 0, 249]",249,a,0.18072447169106454,colour,0.5
126,20,0,2,16,19,769,1265.7940733277937,1266.391259534983,"[70, 0, 184]",184,l,0.07380239339545369,colour,0.5
126,20,0,2,16,20,770,1266.9034514293307,1267.7912195201498,"[49, 0, 205]",205,a,0.3643846708582714,colour,0.5
126,20,0,2,16,21,771,1268.299267367809,1268.935240308987,"[56, 0, 198]",198,a,0.11262221040669829,colour,0.5
126,20,0,2,16,22,772,1269.4555332200835,1270.1112295711646,"[83, 0, 171]",171,l,0.13240312179550529,colour,0.5
126,20,0,2,16,23,773,1270.6274520846782,1271.3112394961063,"[67, 0, 187]",187,l,0.16048945602960885,colour,0.5
126,20,0,2,16,24,774,1271.830541884643,1272.415231360821,"[9, 0, 245]",245,a,0.06128518225159496,colour,0.5
126,20,0,2,16,25,775,1272.9243264446268,1273.5752379616024,"[39, 0, 215]",215,a,0.1276419183705002,colour,0.5
126,20,0,2,16,26,776,1274.096138183144,1274.6792491248343,"[36, 0, 218]",218,a,0.05842783011030406,colour,0.5
126,20,0,2,16,27,777,1275.1911704470403,1275.9272491752636,"[50, 0, 204]",204,a,0.21280873590148985,colour,0.5
126,20,0,2,16,28,778,1276.4411791116,1277.0632024240913,"[24, 0, 230]",230,a,0.09876789234112948,colour,0.5
126,20,0,2,16,29,779,1277.5817423270782,1278.2392180740135,"[28, 0, 226]",226,a,0.1341187146026641,colour,0.5
126,20,0,2,16,30,780,1278.7572440080112,1279.3431870957138,"[65, 0, 189]",189,l,0.06262780306860805,colour,0.5
126,20,0,2,16,31,781,1279.8385920953006,1280.4712421584409,"[23, 0, 231]",231,a,0.11514400574378669,colour,0.5
126,20,0,2,16,32,782,1280.9887580620125,1281.655233188183,"[18, 0, 236]",236,a,0.14303459855727851,colour,0.5
126,20,0,2,16,33,783,1282.176392560359,1282.8232076859567,"[52, 0, 202]",202,l,0.12362823472358286,colour,0.5
126,20,0,2,16,34,784,1283.3327174895676,1283.95124305645,"[1, 0, 253]",253,a,0.09523588221054524,colour,0.5
126,20,0,2,16,35,785,1284.457536714268,1285.439233118901,"[55, 0, 199]",199,l,0.45718067756388336,colour,0.5
126,20,0,2,16,36,786,1285.9588572796201,1286.5992452335777,"[99, 0, 155]",155,l,0.11729637370444834,colour,0.5
126,20,0,2,16,37,787,1287.1150364858331,1287.73520872253,"[3, 0, 251]",251,a,0.11179158929735422,colour,0.5
126,20,0,2,16,38,788,1288.2563527346356,1288.815186226042,"[26, 0, 228]",228,a,0.035456766723655164,colour,0.5
126,20,0,2,16,39,789,1289.3344630146166,1289.9351891089464,"[0, 0, 254]",254,a,0.07737575727514923,colour,0.5
126,20,0,2,16,40,790,1290.4323660214432,1291.0952551806113,"[34, 0, 220]",220,a,0.1403588093817234,colour,0.5
126,20,0,2,16,41,791,1291.6034621419385,1292.343212695676,"[74, 0, 180]",180,l,0.21641478908713907,colour,0.5
126,20,0,2,16,42,792,1292.8535617849557,1293.4632817447418,"[73, 0, 181]",181,l,0.08652952429838479,colour,0.5
126,20,0,2,16,43,793,1293.978397157276,1294.647207396105,"[61, 0, 193]",193,l,0.1454532063798979,colour,0.5
126,20,0,2,16,44,794,1295.1658957789186,1295.9032127587125,"[95, 0, 159]",159,l,0.21391859371215105,colour,0.5
126,20,0,2,16,45,795,1296.415917440434,1297.0792193500092,"[76, 0, 178]",178,l,0.1399184896145016,colour,0.5
126,20,0,2,16,46,796,1297.5877693512011,1298.2472225985257,"[62, 0, 192]",192,l,0.13607731042429805,colour,0.5
126,20,0,2,16,47,797,1298.7618275868008,1299.5672003540676,"[38, 0, 216]",216,a,0.2820830825949088,colour,0.5
126,20,0,2,16,48,798,1300.0743896175409,1300.663210931234,"[33, 0, 221]",221,a,0.0656103981891647,colour,0.5
126,20,0,2,16,49,799,1301.1836629559984,1301.8552852546563,"[66, 0, 188]",188,l,0.148581130662933,colour,0.5
126,20,0,2,16,50,800,1302.3713250237051,1302.9673261485295,"[22, 0, 232]",232,a,0.07327542756684124,colour,0.5
