id,age,condition,counterbalance,block,trialinblock,trial,tstart,tend,trialstim,trialintensity,response,RT,trialtype,colourfreq
162,23,0,1,Practice,1,NA,5.200039595365524e-06,1.0669478001073003,"[24, 0, 230]",230,a,0.44927289988845587,colour,0.5
162,23,0,1,Practice,2,NA,1.5788866002112627,2.370944700203836,"[12, 0, 242]",242,a,0.26934480015188456,colour,0.5
162,23,0,1,Practice,3,NA,2.8770187003538013,4.754892300348729,"[92, 0, 162]",162,l,1.3549367003142834,colour,0.5
162,23,0,1,Practice,4,NA,5.274563200306147,6.082934100180864,"[88, 0, 166]",166,l,0.285519499797374,colour,0.5
162,23,0,1,Practice,5,NA,6.603980800136924,7.650914500001818,"[18, 0, 236]",236,a,0.5245514996349812,colour,0.5
162,23,0,1,Practice,6,NA,8.166034399997443,8.906964800320566,"[50, 0, 204]",204,a,0.21811020001769066,colour,0.5
162,23,0,1,Practice,7,NA,9.417966400273144,10.138943400233984,"[29, 0, 225]",225,a,0.2104325001128018,colour,0.5
162,23,0,1,Practice,8,NA,10.655638700351119,11.922938500065356,"[57, 0, 197]",197,a,0.7445918996818364,colour,0.5
162,23,0,1,Practice,9,NA,12.43679130030796,13.194901800248772,"[82, 0, 172]",172,l,0.23799930000677705,colour,0.5
162,23,0,1,Practice,10,NA,13.715536000207067,14.584999500308186,"[38, 0, 216]",216,a,0.3421674999408424,colour,0.5
162,23,0,1,1,1,1,5.360498900059611,6.143937800079584,"[12, 0, 242]",242,a,0.25928720040246844,colour,0.5
162,23,0,1,1,2,2,6.656347599811852,7.391969999764115,"[22, 0, 232]",232,a,0.2145135998725891,colour,0.5
162,23,0,1,1,3,3,7.901288599707186,8.5919372998178,"[84, 0, 170]",170,l,0.16948299994692206,colour,0.5
162,23,0,1,1,4,4,9.103505699895322,9.815989600028843,"[68, 0, 186]",186,l,0.18526179995387793,colour,0.5
162,23,0,1,1,5,5,10.327517699915916,11.127950800117105,"[58, 0, 196]",196,a,0.2839934001676738,colour,0.5
162,23,0,1,1,6,6,11.641329899895936,12.175890599843115,"[41, 0, 213]",213,a,0.011248199734836817,colour,0.5
162,23,0,1,1,7,7,12.679597300011665,13.583932499866933,"[15, 0, 239]",239,a,0.3814090001396835,colour,0.5
162,23,0,1,1,8,8,14.101798499934375,14.808063199743629,"[78, 0, 176]",176,l,0.18681579967960715,colour,0.5
162,23,0,1,1,9,9,15.323802900034934,15.895947099663317,"[37, 0, 217]",217,a,0.049324299674481153,colour,0.5
162,23,0,1,1,10,10,16.40198400011286,17.039915199857205,"[11, 0, 243]",243,a,0.11511299991980195,colour,0.5
162,23,0,1,1,11,11,17.558118499815464,18.239921600092202,"[55, 0, 199]",199,a,0.15893390029668808,colour,0.5
162,23,0,1,1,12,12,18.74553889967501,19.65599469980225,"[18, 0, 236]",236,a,0.39611139986664057,colour,0.5
162,23,0,1,1,13,13,20.174457099754363,20.767989200074226,"[30, 0, 224]",224,a,0.0707126003690064,colour,0.5
162,23,0,1,1,14,14,21.283777699805796,21.847939299885184,"[99, 0, 155]",155,l,0.041335000190883875,colour,0.5
162,23,0,1,1,15,15,22.361847899854183,22.959945499897003,"[6, 0, 248]",248,a,0.07531550014391541,colour,0.5
162,23,0,1,1,16,16,23.471188299823552,24.183918099850416,"[0, 0, 254]",254,a,0.20264190016314387,colour,0.5
162,23,0,1,1,17,17,24.70299689983949,25.287957400083542,"[19, 0, 235]",235,a,0.06966610020026565,colour,0.5
162,23,0,1,1,18,18,25.804713199846447,26.399924899917096,"[96, 0, 158]",158,l,0.08428549999371171,colour,0.5
162,23,0,1,1,19,19,26.918051300104707,27.487919900100678,"[43, 0, 211]",211,a,0.04762460011988878,colour,0.5
162,23,0,1,1,20,20,27.99614189984277,28.54394909972325,"[50, 0, 204]",204,a,0.02497059991583228,colour,0.5
162,23,0,1,1,21,21,29.060319199692458,29.679909899830818,"[10, 0, 244]",244,a,0.09691759990528226,colour,0.5
162,23,0,1,1,22,22,30.200881300028414,30.823881699703634,"[66, 0, 188]",188,l,0.10022229980677366,colour,0.5
162,23,0,1,1,23,23,31.341423300094903,31.99996710009873,"[57, 0, 197]",197,l,0.13572570029646158,colour,0.5
162,23,0,1,1,24,24,32.51321229990572,33.31190910004079,"[92, 0, 162]",162,l,0.2758239000104368,colour,0.5
162,23,0,1,1,25,25,33.82561539998278,34.38394040009007,"[1, 0, 253]",253,a,0.03445840021595359,colour,0.5
162,23,0,1,1,26,26,34.90810230001807,35.45593190006912,"[34, 0, 220]",220,a,0.02623540023341775,colour,0.5
162,23,0,1,1,27,27,35.96961109992117,36.91187469987199,"[31, 0, 223]",223,a,0.42133319983258843,colour,0.5
162,23,0,1,1,28,28,37.43191959988326,38.14391240011901,"[51, 0, 203]",203,a,0.18996290024369955,colour,0.5
162,23,0,1,1,29,29,38.66183719970286,39.239942299667746,"[47, 0, 207]",207,a,0.05745269963517785,colour,0.5
162,23,0,1,1,30,30,39.76045840000734,40.3759349999018,"[71, 0, 183]",183,l,0.09601060021668673,colour,0.5
162,23,0,1,1,31,31,40.88784400001168,41.41594380000606,"[23, 0, 231]",231,a,0.009176400024443865,colour,0.5
162,23,0,1,1,32,32,41.94377049989998,42.50390909984708,"[14, 0, 240]",240,a,0.03783020004630089,colour,0.5
162,23,0,1,1,33,33,43.02178939990699,43.5519427000545,"[35, 0, 219]",219,a,0.007315299939364195,colour,0.5
162,23,0,1,1,34,34,44.074737899936736,45.1119492999278,"[42, 0, 212]",212,a,0.5193272000178695,colour,0.5
162,23,0,1,1,35,35,45.6254278998822,46.255872699897736,"[98, 0, 156]",156,l,0.10774639993906021,colour,0.5
162,23,0,1,1,36,36,46.76586630009115,47.49593900004402,"[89, 0, 165]",165,l,0.207082100212574,colour,0.5
162,23,0,1,1,37,37,48.016918099951,48.79399329982698,"[36, 0, 218]",218,a,0.2614116999320686,colour,0.5
162,23,0,1,1,38,38,49.30073220003396,49.919925699941814,"[64, 0, 190]",190,l,0.10881769983097911,colour,0.5
162,23,0,1,1,39,39,50.42875219974667,50.97591789998114,"[56, 0, 198]",198,l,0.03616000013425946,colour,0.5
162,23,0,1,1,40,40,51.49501759978011,52.191896399948746,"[86, 0, 168]",168,l,0.17411640007048845,colour,0.5
162,23,0,1,1,41,41,52.69800479989499,53.583903399761766,"[82, 0, 172]",172,l,0.363856999669224,colour,0.5
162,23,0,1,1,42,42,54.10439050011337,54.80787579994649,"[81, 0, 173]",173,l,0.18138920003548265,colour,0.5
162,23,0,1,1,43,43,55.32501900009811,55.94407339999452,"[53, 0, 201]",201,a,0.09380399994552135,colour,0.5
162,23,0,1,1,44,44,56.45269780000672,57.215923899784684,"[49, 0, 205]",205,a,0.24151499988511205,colour,0.5
162,23,0,1,1,45,45,57.73327239975333,58.26392689999193,"[5, 0, 249]",249,a,0.005301500204950571,colour,0.5
162,23,0,1,1,46,46,58.78478049999103,59.57590329973027,"[7, 0, 247]",247,a,0.27159509994089603,colour,0.5
162,23,0,1,1,47,47,60.08728969981894,60.663895399775356,"[77, 0, 177]",177,l,0.059488299768418074,colour,0.5
162,23,0,1,1,48,48,61.18607119983062,61.74397489987314,"[79, 0, 175]",175,l,0.039828999899327755,colour,0.5
162,23,0,1,1,49,49,62.2629819996655,62.879943899810314,"[59, 0, 195]",195,l,0.094183299690485,colour,0.5
162,23,0,1,1,50,50,63.379579700063914,63.98385899979621,"[76, 0, 178]",178,l,0.07977270008996129,colour,0.5
162,23,0,1,2,1,51,72.69605819974095,73.27990159997717,"[8, 0, 246]",246,a,0.0601675002835691,colour,0.5
162,23,0,1,2,2,52,73.79058380005881,74.50389829976484,"[39, 0, 215]",215,a,0.19864499988034368,colour,0.5
162,23,0,1,2,3,53,75.02612659987062,75.6958759999834,"[50, 0, 204]",204,a,0.1546428999863565,colour,0.5
162,23,0,1,2,4,54,76.20586000010371,76.88793460000306,"[27, 0, 227]",227,a,0.15912509988993406,colour,0.5
162,23,0,1,2,5,55,77.40889080008492,78.11193539993837,"[65, 0, 189]",189,l,0.18030840018764138,colour,0.5
162,23,0,1,2,6,56,78.62751179980114,79.30387949990109,"[37, 0, 217]",217,a,0.15353049989789724,colour,0.5
162,23,0,1,2,7,57,79.82027659984306,80.48788859974593,"[31, 0, 223]",223,a,0.1446551000699401,colour,0.5
162,23,0,1,2,8,58,81.00777219980955,81.71190209966153,"[42, 0, 212]",212,a,0.17835889989510179,colour,0.5
162,23,0,1,2,9,59,82.22923239972442,82.97592040011659,"[20, 0, 234]",234,a,0.22364050010219216,colour,0.5
162,23,0,1,2,10,60,83.49483980005607,84.15991479996592,"[82, 0, 172]",172,l,0.1422753999941051,colour,0.5
162,23,0,1,2,11,61,84.66504559991881,85.30386810004711,"[43, 0, 211]",211,a,0.11086060013622046,colour,0.5
162,23,0,1,2,12,62,85.81882319971919,86.50387529982254,"[56, 0, 198]",198,a,0.16232339991256595,colour,0.5
162,23,0,1,2,13,63,87.02187369996682,87.55991979967803,"[19, 0, 235]",235,a,0.015332299750298262,colour,0.5
162,23,0,1,2,14,64,88.0686094998382,88.66394269978628,"[59, 0, 195]",195,a,0.08502150001004338,colour,0.5
162,23,0,1,2,15,65,89.18120760004967,89.75994609994814,"[47, 0, 207]",207,a,0.06406550016254187,colour,0.5
162,23,0,1,2,16,66,90.26790570002049,90.93587009981275,"[87, 0, 167]",167,l,0.15446260012686253,colour,0.5
162,23,0,1,2,17,67,91.4460473000072,92.14390849974006,"[25, 0, 229]",229,a,0.17498719971626997,colour,0.5
162,23,0,1,2,18,68,92.66478429967538,93.44784449972212,"[34, 0, 220]",220,a,0.26034559961408377,colour,0.5
162,23,0,1,2,19,69,93.96144009986892,94.59195169992745,"[38, 0, 216]",216,a,0.10661440016701818,colour,0.5
162,23,0,1,2,20,70,95.11524569988251,95.8078838000074,"[29, 0, 225]",225,a,0.16701060021296144,colour,0.5
162,23,0,1,2,21,71,96.32869029976428,96.95186330005527,"[75, 0, 179]",179,l,0.1054662000387907,colour,0.5
162,23,0,1,2,22,72,97.47148429974914,98.15989319980145,"[78, 0, 176]",176,l,0.16976269986480474,colour,0.5
162,23,0,1,2,23,73,98.67444969993085,99.3119084998034,"[10, 0, 244]",244,a,0.1179935997352004,colour,0.5
162,23,0,1,2,24,74,99.82515960000455,100.49596109986305,"[84, 0, 170]",170,l,0.14833150012418628,colour,0.5
162,23,0,1,2,25,75,101.00771529972553,101.59187529981136,"[66, 0, 188]",188,l,0.06465889979153872,colour,0.5
162,23,0,1,2,26,76,102.10964429983869,102.83988570002839,"[17, 0, 237]",237,a,0.21151480032131076,colour,0.5
162,23,0,1,2,27,77,103.35538379987702,103.88791579985991,"[45, 0, 209]",209,a,0.017582600004971027,colour,0.5
162,23,0,1,2,28,78,104.39413919998333,105.14392719976604,"[73, 0, 181]",181,l,0.2283131997101009,colour,0.5
162,23,0,1,2,29,79,105.66181709989905,106.3038594997488,"[60, 0, 194]",194,l,0.12096880003809929,colour,0.5
162,23,0,1,2,30,80,106.8147466997616,107.43988709989935,"[33, 0, 221]",221,a,0.10726660024374723,colour,0.5
162,23,0,1,2,31,81,107.9610147997737,108.68003719998524,"[13, 0, 241]",241,a,0.19869200000539422,colour,0.5
162,23,0,1,2,32,82,109.20081100007519,109.87989149987698,"[71, 0, 183]",183,l,0.14881529984995723,colour,0.5
162,23,0,1,2,33,83,110.39247319987044,111.02387159969658,"[90, 0, 164]",164,l,0.11182949971407652,colour,0.5
162,23,0,1,2,34,84,111.54243919998407,112.15191459981725,"[1, 0, 253]",253,a,0.08975740009918809,colour,0.5
162,23,0,1,2,35,85,112.6695848996751,113.28790509980172,"[94, 0, 160]",160,l,0.10504989977926016,colour,0.5
162,23,0,1,2,36,86,113.80082089966163,114.35995969967917,"[6, 0, 248]",248,a,0.03633669996634126,colour,0.5
162,23,0,1,2,37,87,114.8735424997285,115.49591569975019,"[62, 0, 192]",192,l,0.10409849975258112,colour,0.5
162,23,0,1,2,38,88,116.0137299997732,116.65589459985495,"[88, 0, 166]",166,l,0.1247434001415968,colour,0.5
162,23,0,1,2,39,89,117.17065079975873,117.8639090997167,"[96, 0, 158]",158,l,0.1750361998565495,colour,0.5
162,23,0,1,2,40,90,118.41737869987264,119.08782659983262,"[98, 0, 156]",156,l,0.15079420013353229,colour,0.5
162,23,0,1,2,41,91,119.6079040998593,120.37586160004139,"[54, 0, 200]",200,l,0.24545300006866455,colour,0.5
162,23,0,1,2,42,92,120.89767559990287,121.50383649999276,"[85, 0, 169]",169,l,0.08338369987905025,colour,0.5
162,23,0,1,2,43,93,122.01661149971187,122.59987209970132,"[3, 0, 251]",251,a,0.06269019981846213,colour,0.5
162,23,0,1,2,44,94,123.1115310001187,123.63987979991361,"[92, 0, 162]",162,l,0.0055634998716413975,colour,0.5
162,23,0,1,2,45,95,124.15828470000997,125.18383129965514,"[83, 0, 171]",171,l,0.5027933996170759,colour,0.5
162,23,0,1,2,46,96,125.75019160006195,126.45587030006573,"[63, 0, 191]",191,l,0.18887539999559522,colour,0.5
162,23,0,1,2,47,97,126.97092820005491,127.57586789969355,"[86, 0, 168]",168,l,0.0761278998106718,colour,0.5
162,23,0,1,2,48,98,128.09507180005312,128.6718683997169,"[24, 0, 230]",230,a,0.05997679987922311,colour,0.5
162,23,0,1,2,49,99,129.19132150011137,129.89586059981957,"[26, 0, 228]",228,a,0.1870253998786211,colour,0.5
162,23,0,1,2,50,100,130.41773399990052,130.991909599863,"[14, 0, 240]",240,a,0.051485400181263685,colour,0.5
162,23,0,1,3,1,101,136.15853959973902,136.73587779980153,"[64, 0, 190]",190,l,0.05378710012882948,colour,0.5
162,23,0,1,3,2,102,137.25297340005636,137.79186329990625,"[0, 0, 254]",254,a,0.01602789992466569,colour,0.5
162,23,0,1,3,3,103,138.2996903997846,138.83985910005867,"[12, 0, 242]",242,a,0.026320900302380323,colour,0.5
162,23,0,1,3,4,104,139.35314809996635,140.08788419980556,"[10, 0, 244]",244,a,0.22176910005509853,colour,0.5
162,23,0,1,3,5,105,140.60898849973455,141.27184320008382,"[58, 0, 196]",196,a,0.1401566001586616,colour,0.5
162,23,0,1,3,6,106,141.7808268996887,142.42384869977832,"[98, 0, 156]",156,l,0.12033829977735877,colour,0.5
162,23,0,1,3,7,107,142.92605930007994,143.61588669987395,"[55, 0, 199]",199,l,0.16701360000297427,colour,0.5
162,23,0,1,3,8,108,144.12916069990024,146.15191609971225,"[6, 0, 248]",248,a,1.499925300013274,colour,0.5
162,23,0,1,3,9,109,146.6701726000756,148.13590799970552,"[50, 0, 204]",204,a,0.9430009997449815,colour,0.5
162,23,0,1,3,10,110,148.65615489985794,149.35986709967256,"[72, 0, 182]",182,l,0.1808796999976039,colour,0.5
162,23,0,1,3,11,111,149.87472019996494,150.45584499975666,"[52, 0, 202]",202,a,0.06397939985617995,colour,0.5
162,23,0,1,3,12,112,150.9635755997151,151.54383020009845,"[19, 0, 235]",235,a,0.057381400372833014,colour,0.5
162,23,0,1,3,13,113,152.0572750000283,152.93584010004997,"[99, 0, 155]",155,l,0.3558522001840174,colour,0.5
162,23,0,1,3,14,114,153.44781629974023,154.18382669985294,"[85, 0, 169]",169,l,0.21314310003072023,colour,0.5
162,23,0,1,3,15,115,154.69762189965695,155.41585149988532,"[70, 0, 184]",184,l,0.20533860009163618,colour,0.5
162,23,0,1,3,16,116,155.93167509976774,156.5598406996578,"[14, 0, 240]",240,a,0.10603589983657002,colour,0.5
162,23,0,1,3,17,117,157.06763450009748,157.7598832999356,"[44, 0, 210]",210,a,0.16919359983876348,colour,0.5
162,23,0,1,3,18,118,158.2837553001009,158.8798186997883,"[1, 0, 253]",253,a,0.07320379978045821,colour,0.5
162,23,0,1,3,19,119,159.39025999978185,160.1117841997184,"[15, 0, 239]",239,a,0.19793969998136163,colour,0.5
162,23,0,1,3,20,120,160.62866890011355,161.23981399973854,"[92, 0, 162]",162,l,0.08365179970860481,colour,0.5
162,23,0,1,3,21,121,161.76171549968421,162.67979989992455,"[2, 0, 252]",252,a,0.3993383999913931,colour,0.5
162,23,0,1,3,22,122,163.18941390002146,163.88783989986405,"[87, 0, 167]",167,l,0.17557819979265332,colour,0.5
162,23,0,1,3,23,123,164.40589990001172,165.05583640001714,"[63, 0, 191]",191,a,0.12713970011100173,colour,0.5
162,23,0,1,3,24,124,165.56986519973725,166.21593899978325,"[28, 0, 226]",226,a,0.11966329999268055,colour,0.5
162,23,0,1,3,25,125,166.7260161996819,167.4318303000182,"[83, 0, 171]",171,l,0.18156500020995736,colour,0.5
162,23,0,1,3,26,126,167.94666450005025,168.5998275000602,"[80, 0, 174]",174,l,0.13136170012876391,colour,0.5
162,23,0,1,3,27,127,169.11364819994196,169.671806700062,"[35, 0, 219]",219,a,0.036237300373613834,colour,0.5
162,23,0,1,3,28,128,170.19134890008718,170.88785859989002,"[18, 0, 236]",236,a,0.16677139978855848,colour,0.5
162,23,0,1,3,29,129,171.40581669984385,172.26381930010393,"[62, 0, 192]",192,l,0.33200340019539,colour,0.5
162,23,0,1,3,30,130,172.77532409969717,173.51981800002977,"[38, 0, 216]",216,a,0.213652899954468,colour,0.5
162,23,0,1,3,31,131,174.03334339987487,174.76782649988309,"[67, 0, 187]",187,a,0.21169070014730096,colour,0.5
162,23,0,1,3,32,132,175.27337629999965,175.89583429973572,"[17, 0, 237]",237,a,0.10195809975266457,colour,0.5
162,23,0,1,3,33,133,176.41458029998466,177.06389149976894,"[90, 0, 164]",164,l,0.13229350000619888,colour,0.5
162,23,0,1,3,34,134,177.5871321996674,178.26387859974056,"[46, 0, 208]",208,a,0.14780799997970462,colour,0.5
162,23,0,1,3,35,135,178.77290059998631,179.67983719985932,"[49, 0, 205]",205,a,0.3758267997764051,colour,0.5
162,23,0,1,3,36,136,180.19215579982847,180.9358585998416,"[93, 0, 161]",161,l,0.221388999838382,colour,0.5
162,23,0,1,3,37,137,181.45276740007102,182.08784199971706,"[89, 0, 165]",165,l,0.1144868996925652,colour,0.5
162,23,0,1,3,38,138,182.6019695000723,183.24780779983848,"[81, 0, 173]",173,l,0.12274809973314404,colour,0.5
162,23,0,1,3,39,139,183.74749609967694,184.40780689986423,"[4, 0, 250]",250,a,0.13742549996823072,colour,0.5
162,23,0,1,3,40,140,184.91303069982678,185.527786700055,"[25, 0, 229]",229,a,0.0935585000552237,colour,0.5
162,23,0,1,3,41,141,186.09015240008011,186.70383189991117,"[9, 0, 245]",245,a,0.0925453002564609,colour,0.5
162,23,0,1,3,42,142,187.2134219999425,187.79981839982793,"[16, 0, 238]",238,a,0.06360259978100657,colour,0.5
162,23,0,1,3,43,143,188.29461019998416,188.89583909977227,"[27, 0, 227]",227,a,0.07839709986001253,colour,0.5
162,23,0,1,3,44,144,189.3945458997041,190.05576619971544,"[86, 0, 168]",168,l,0.1384664997458458,colour,0.5
162,23,0,1,3,45,145,190.56009340006858,191.24780840007588,"[22, 0, 232]",232,a,0.1619319999590516,colour,0.5
162,23,0,1,3,46,146,191.76763489982113,192.44785299990326,"[36, 0, 218]",218,a,0.15737710008397698,colour,0.5
162,23,0,1,3,47,147,192.9550728998147,193.67985199997202,"[43, 0, 211]",211,a,0.20208969991654158,colour,0.5
162,23,0,1,3,48,148,194.17966299969703,194.87978649977595,"[61, 0, 193]",193,l,0.17725099995732307,colour,0.5
162,23,0,1,3,49,149,195.39404470007867,195.9278480997309,"[75, 0, 179]",179,l,0.016642899718135595,colour,0.5
162,23,0,1,3,50,150,196.44095129985362,196.98386009968817,"[66, 0, 188]",188,l,0.023439399898052216,colour,0.5
162,23,0,1,4,1,151,201.48493900010362,202.47179089998826,"[13, 0, 241]",241,a,0.46592630026862025,colour,0.5
162,23,0,1,4,2,152,202.9894828996621,203.55178260011598,"[69, 0, 185]",185,l,0.04375570034608245,colour,0.5
162,23,0,1,4,3,153,204.0720534999855,204.6958447000943,"[65, 0, 189]",189,l,0.10097860032692552,colour,0.5
162,23,0,1,4,4,154,205.2125872001052,205.87175579974428,"[46, 0, 208]",208,a,0.13135370006784797,colour,0.5
162,23,0,1,4,5,155,206.38502709986642,207.0238200998865,"[23, 0, 231]",231,a,0.1137513997964561,colour,0.5
162,23,0,1,4,6,156,207.53930180007592,208.15180790005252,"[80, 0, 174]",174,l,0.0807917001657188,colour,0.5
162,23,0,1,4,7,157,208.66520239971578,209.31981769995764,"[71, 0, 183]",183,l,0.13649309985339642,colour,0.5
162,23,0,1,4,8,158,209.84090359974653,210.4558358998038,"[16, 0, 238]",238,a,0.0959584997035563,colour,0.5
162,23,0,1,4,9,159,210.9741499996744,211.67977599985898,"[61, 0, 193]",193,l,0.18544680019840598,colour,0.5
162,23,0,1,4,10,160,212.20135329989716,212.75988020002842,"[66, 0, 188]",188,l,0.03813000023365021,colour,0.5
162,23,0,1,4,11,161,213.2723193001002,214.0078370999545,"[73, 0, 181]",181,l,0.21655349992215633,colour,0.5
162,23,0,1,4,12,162,214.51828419975936,215.183758799918,"[35, 0, 219]",219,a,0.1551049998961389,colour,0.5
162,23,0,1,4,13,163,215.6868527997285,216.35975899966434,"[89, 0, 165]",165,l,0.15493209986016154,colour,0.5
162,23,0,1,4,14,164,216.8739523999393,217.51980399992317,"[11, 0, 243]",243,a,0.12302340008318424,colour,0.5
162,23,0,1,4,15,165,218.03012980008498,218.7117932997644,"[62, 0, 192]",192,l,0.15884839976206422,colour,0.5
162,23,0,1,4,16,166,219.21745450003073,219.87986119976267,"[25, 0, 229]",229,a,0.13956979988142848,colour,0.5
162,23,0,1,4,17,167,220.41967589966953,221.11176889995113,"[70, 0, 184]",184,l,0.1763496999628842,colour,0.5
162,23,0,1,4,18,168,221.63143009971827,222.33577949972823,"[4, 0, 250]",250,a,0.18150199996307492,colour,0.5
162,23,0,1,4,19,169,222.84993049968034,223.5517922998406,"[12, 0, 242]",242,a,0.17902209982275963,colour,0.5
162,23,0,1,4,20,170,224.06871049990878,224.76782249985263,"[6, 0, 248]",248,a,0.1763184000737965,colour,0.5
162,23,0,1,4,21,171,225.27328380011022,225.9438688000664,"[38, 0, 216]",216,a,0.15860110009089112,colour,0.5
162,23,0,1,4,22,172,226.4591536996886,227.1277685998939,"[54, 0, 200]",200,a,0.14298530016094446,colour,0.5
162,23,0,1,4,23,173,227.63442579982802,228.28778339968994,"[36, 0, 218]",218,a,0.130575199611485,colour,0.5
162,23,0,1,4,24,174,228.80624169996008,229.55180869996548,"[63, 0, 191]",191,l,0.22274520015344024,colour,0.5
162,23,0,1,4,25,175,230.0717197000049,230.63978389976546,"[64, 0, 190]",190,l,0.05279329977929592,colour,0.5
162,23,0,1,4,26,176,231.16004429990426,231.9837262998335,"[39, 0, 215]",215,a,0.30417869985103607,colour,0.5
162,23,0,1,4,27,177,232.50104120001197,233.04784459993243,"[78, 0, 176]",176,l,0.024011299945414066,colour,0.5
162,23,0,1,4,28,178,233.56340650003403,234.1917514996603,"[82, 0, 172]",172,l,0.1053445995785296,colour,0.5
162,23,0,1,4,29,179,234.70478740008548,235.43978359969333,"[52, 0, 202]",202,a,0.2122205998748541,colour,0.5
162,23,0,1,4,30,180,235.94770619971678,236.4957538996823,"[98, 0, 156]",156,l,0.02929440001025796,colour,0.5
162,23,0,1,4,31,181,237.05736619979143,238.57579579995945,"[48, 0, 206]",206,a,1.0002379002980888,colour,0.5
162,23,0,1,4,32,182,239.09205269999802,239.69575570011511,"[33, 0, 221]",221,a,0.08590930001810193,colour,0.5
162,23,0,1,4,33,183,240.2045411998406,240.87181179970503,"[75, 0, 179]",179,l,0.15005999989807606,colour,0.5
162,23,0,1,4,34,184,241.3814142998308,242.02381750009954,"[15, 0, 239]",239,a,0.11922210035845637,colour,0.5
162,23,0,1,4,35,185,242.53581369994208,243.1838091998361,"[22, 0, 232]",232,a,0.13006799994036555,colour,0.5
162,23,0,1,4,36,186,243.70640869997442,244.31176840001717,"[9, 0, 245]",245,a,0.08258619997650385,colour,0.5
162,23,0,1,4,37,187,244.83128920011222,246.30375359999016,"[37, 0, 217]",217,a,0.949949000030756,colour,0.5
162,23,0,1,4,38,188,246.81823890004307,247.43980249995366,"[14, 0, 240]",240,a,0.09035809990018606,colour,0.5
162,23,0,1,4,39,189,247.96116330008954,248.5677636996843,"[30, 0, 224]",224,a,0.08928789990022779,colour,0.5
162,23,0,1,4,40,190,249.08673889981583,249.8479109997861,"[53, 0, 201]",201,l,0.24339389987289906,colour,0.5
162,23,0,1,4,41,191,250.36983549967408,251.31183629995212,"[5, 0, 249]",249,a,0.4209586000069976,colour,0.5
162,23,0,1,4,42,192,251.82987760007381,252.47979609994218,"[60, 0, 194]",194,l,0.12738140020519495,colour,0.5
162,23,0,1,4,43,193,252.99547090008855,253.7437275997363,"[88, 0, 166]",166,l,0.22863380005583167,colour,0.5
162,23,0,1,4,44,194,254.25605339976028,254.84781799977645,"[26, 0, 228]",228,a,0.06627089995890856,colour,0.5
162,23,0,1,4,45,195,255.36301769968122,256.03175069997087,"[72, 0, 182]",182,l,0.13122390024363995,colour,0.5
162,23,0,1,4,46,196,256.54429399967194,257.35975489998236,"[51, 0, 203]",203,l,0.2894681002944708,colour,0.5
162,23,0,1,4,47,197,257.8768016998656,258.5437567997724,"[2, 0, 252]",252,a,0.14240349968895316,colour,0.5
162,23,0,1,4,48,198,259.0667412998155,259.703790999949,"[81, 0, 173]",173,l,0.11054620007053018,colour,0.5
162,23,0,1,4,49,199,260.2267990000546,260.8957706997171,"[32, 0, 222]",222,a,0.14358859974890947,colour,0.5
162,23,0,1,4,50,200,261.4109061998315,262.0238389996812,"[67, 0, 187]",187,l,0.09430789994075894,colour,0.5
162,23,0,1,5,1,201,266.44654819974676,267.27979289973155,"[42, 0, 212]",212,a,0.3135559996590018,colour,0.5
162,23,0,1,5,2,202,267.8027975996956,268.53576650004834,"[36, 0, 218]",218,a,0.21262010000646114,colour,0.5
162,23,0,1,5,3,203,269.046739900019,269.6957581997849,"[34, 0, 220]",220,a,0.12708969973027706,colour,0.5
162,23,0,1,5,4,204,270.21545649971813,270.8957615001127,"[70, 0, 184]",184,l,0.15858780033886433,colour,0.5
162,23,0,1,5,5,205,271.40552309993654,272.2557328999974,"[37, 0, 217]",217,a,0.32288650004193187,colour,0.5
162,23,0,1,5,6,206,272.77029059967026,273.5037155998871,"[48, 0, 206]",206,a,0.21563739981502295,colour,0.5
162,23,0,1,5,7,207,274.01356949983165,274.6797513999045,"[28, 0, 226]",226,a,0.1433513998053968,colour,0.5
162,23,0,1,5,8,208,275.1853507999331,275.79174319980666,"[86, 0, 168]",168,l,0.09602969978004694,colour,0.5
162,23,0,1,5,9,209,276.29058879986405,277.03987909993157,"[54, 0, 200]",200,l,0.23056469997391105,colour,0.5
162,23,0,1,5,10,210,277.55322969984263,278.1917352997698,"[10, 0, 244]",244,a,0.11579849990084767,colour,0.5
162,23,0,1,5,11,211,278.70924989972264,279.3597295996733,"[65, 0, 189]",189,l,0.12754379957914352,colour,0.5
162,23,0,1,5,12,212,279.86550629977137,280.5357379997149,"[43, 0, 211]",211,a,0.14739959966391325,colour,0.5
162,23,0,1,5,13,213,281.05289949988946,281.74370189988986,"[88, 0, 166]",166,l,0.17177589982748032,colour,0.5
162,23,0,1,5,14,214,282.2522355997935,282.7837769999169,"[68, 0, 186]",186,l,0.008792799897491932,colour,0.5
162,23,0,1,5,15,215,283.31456459965557,284.0957732000388,"[78, 0, 176]",176,l,0.2582909003831446,colour,0.5
162,23,0,1,5,16,216,284.6113287997432,285.25573319988325,"[12, 0, 242]",242,a,0.12163690011948347,colour,0.5
162,23,0,1,5,17,217,285.7674540998414,286.4957043998875,"[75, 0, 179]",179,l,0.2147448998875916,colour,0.5
162,23,0,1,5,18,218,287.0174702000804,287.65571679966524,"[71, 0, 183]",183,l,0.12332249991595745,colour,0.5
162,23,0,1,5,19,219,288.16569259995595,288.9117576996796,"[96, 0, 158]",158,a,0.2230464997701347,colour,0.5
162,23,0,1,5,20,220,289.43279819982126,290.12773180007935,"[47, 0, 207]",207,l,0.16947100032120943,colour,0.5
162,23,0,1,5,21,221,290.63850579969585,291.9277218999341,"[8, 0, 246]",246,a,0.7664479999803007,colour,0.5
162,23,0,1,5,22,222,292.42983789974824,292.9837639001198,"[63, 0, 191]",191,l,0.043557300232350826,colour,0.5
162,23,0,1,5,23,223,293.4954349999316,294.38370699994266,"[57, 0, 197]",197,a,0.36551429983228445,colour,0.5
162,23,0,1,5,24,224,294.9016062999144,295.55974069982767,"[44, 0, 210]",210,a,0.13529759971424937,colour,0.5
162,23,0,1,5,25,225,296.0734015000053,296.79171449970454,"[33, 0, 221]",221,a,0.2061749999411404,colour,0.5
162,23,0,1,5,26,226,297.3022646000609,297.871700800024,"[93, 0, 161]",161,l,0.04889910016208887,colour,0.5
162,23,0,1,5,27,227,298.393541299738,299.2877293000929,"[0, 0, 254]",254,a,0.37186710024252534,colour,0.5
162,23,0,1,5,28,228,299.805144299753,300.40774059994146,"[91, 0, 163]",163,l,0.0852550002746284,colour,0.5
162,23,0,1,5,29,229,300.93025239976123,301.7277679000981,"[16, 0, 238]",238,a,0.2775885001756251,colour,0.5
162,23,0,1,5,30,230,302.24755449965596,303.01573200011626,"[30, 0, 224]",224,a,0.24874160019680858,colour,0.5
162,23,0,1,5,31,231,303.53348909970373,304.2157656000927,"[55, 0, 199]",199,a,0.16449210001155734,colour,0.5
162,23,0,1,5,32,232,304.72596439998597,305.27968070004135,"[24, 0, 230]",230,a,0.031133099924772978,colour,0.5
162,23,0,1,5,33,233,305.7883115001023,307.4717349000275,"[98, 0, 156]",156,l,1.1607666001655161,colour,0.5
162,23,0,1,5,34,234,307.9853018000722,308.60771179990843,"[99, 0, 155]",155,l,0.10097099980339408,colour,0.5
162,23,0,1,5,35,235,309.12768539972603,309.81573459971696,"[46, 0, 208]",208,a,0.1776771997101605,colour,0.5
162,23,0,1,5,36,236,310.33387759979814,311.3757301000878,"[84, 0, 170]",170,l,0.519127500243485,colour,0.5
162,23,0,1,5,37,237,311.8967744000256,312.6317493999377,"[29, 0, 225]",225,a,0.21211080020293593,colour,0.5
162,23,0,1,5,38,238,313.14698089985177,314.2397082997486,"[11, 0, 243]",243,a,0.5697315996512771,colour,0.5
162,23,0,1,5,39,239,314.7573752999306,315.53568489989266,"[25, 0, 229]",229,a,0.25626680022105575,colour,0.5
162,23,0,1,5,40,240,316.0572846997529,316.87171729980037,"[9, 0, 245]",245,a,0.2898733001202345,colour,0.5
162,23,0,1,5,41,241,317.3795406999998,318.07968849968165,"[13, 0, 241]",241,a,0.17487559979781508,colour,0.5
162,23,0,1,5,42,242,318.6006008000113,319.35178590007126,"[60, 0, 194]",194,l,0.22840959997847676,colour,0.5
162,23,0,1,5,43,243,319.8661348000169,320.54369099996984,"[6, 0, 248]",248,a,0.15469689993187785,colour,0.5
162,23,0,1,5,44,244,321.0535420998931,321.6877915998921,"[95, 0, 159]",159,l,0.11395190004259348,colour,0.5
162,23,0,1,5,45,245,322.2071370999329,322.8237164998427,"[89, 0, 165]",165,l,0.09380439994856715,colour,0.5
162,23,0,1,5,46,246,323.33199930004776,324.0557174999267,"[74, 0, 180]",180,l,0.20087420009076595,colour,0.5
162,23,0,1,5,47,247,324.5630608997308,325.1677164998837,"[23, 0, 231]",231,a,0.08183939987793565,colour,0.5
162,23,0,1,5,48,248,325.6879614996724,326.41570660006255,"[52, 0, 202]",202,a,0.20219910005107522,colour,0.5
162,23,0,1,5,49,249,326.9260625997558,327.6317647998221,"[77, 0, 177]",177,l,0.1870893999002874,colour,0.5
162,23,0,1,5,50,250,328.1437657000497,328.807676800061,"[76, 0, 178]",178,l,0.13827670039609075,colour,0.5
162,23,0,1,6,1,251,333.3884089998901,334.17567679984495,"[51, 0, 203]",203,a,0.27287370013073087,colour,0.5
162,23,0,1,6,2,252,334.68969650007784,335.28777359984815,"[45, 0, 209]",209,a,0.0751935001462698,colour,0.5
162,23,0,1,6,3,253,335.7988990996964,336.4317155997269,"[95, 0, 159]",159,l,0.10994499968364835,colour,0.5
162,23,0,1,6,4,254,336.9361535999924,337.62371090007946,"[65, 0, 189]",189,a,0.16908400040119886,colour,0.5
162,23,0,1,6,5,255,338.13994390005246,338.983684099745,"[73, 0, 181]",181,l,0.32086339965462685,colour,0.5
162,23,0,1,6,6,256,339.4992615999654,340.1836810000241,"[13, 0, 241]",241,a,0.161553000099957,colour,0.5
162,23,0,1,6,7,257,340.7023177999072,341.3516722000204,"[12, 0, 242]",242,a,0.1265997001901269,colour,0.5
162,23,0,1,6,8,258,341.8527458999306,342.48770810011774,"[98, 0, 156]",156,l,0.11219580005854368,colour,0.5
162,23,0,1,6,9,259,342.9933028998785,343.7996926000342,"[76, 0, 178]",178,l,0.2838612999767065,colour,0.5
162,23,0,1,6,10,260,344.305568699725,344.91969199990854,"[48, 0, 206]",206,a,0.08860829984769225,colour,0.5
162,23,0,1,6,11,261,345.4342219000682,346.09567609988153,"[79, 0, 175]",175,l,0.1385491997934878,colour,0.5
162,23,0,1,6,12,262,346.618960800115,347.32770589971915,"[44, 0, 210]",210,a,0.18665669998154044,colour,0.5
162,23,0,1,6,13,263,347.84029399976134,348.46368489973247,"[75, 0, 179]",179,l,0.10481949988752604,colour,0.5
162,23,0,1,6,14,264,348.98482859972864,349.71171809965745,"[61, 0, 193]",193,a,0.20838059997186065,colour,0.5
162,23,0,1,6,15,265,350.2244901997037,351.1277262996882,"[9, 0, 245]",245,a,0.38578939996659756,colour,0.5
162,23,0,1,6,16,266,351.6471465998329,352.18367239972576,"[66, 0, 188]",188,l,0.01624349970370531,colour,0.5
162,23,0,1,6,17,267,352.7020938997157,353.327700200025,"[34, 0, 220]",220,a,0.0992109002545476,colour,0.5
162,23,0,1,6,18,268,353.8354222998023,354.5117985000834,"[15, 0, 239]",239,a,0.1577163003385067,colour,0.5
162,23,0,1,6,19,269,355.01989399967715,355.7037057997659,"[72, 0, 182]",182,l,0.17054850002750754,colour,0.5
162,23,0,1,6,20,270,356.2135561998002,356.87969799991697,"[14, 0, 240]",240,a,0.1432074001058936,colour,0.5
162,23,0,1,6,21,271,357.3965352997184,358.18369699968025,"[56, 0, 198]",198,a,0.2624068995937705,colour,0.5
162,23,0,1,6,22,272,358.6963017997332,359.279660299886,"[82, 0, 172]",172,l,0.06457349983975291,colour,0.5
162,23,0,1,6,23,273,359.7943051001057,360.33568819984794,"[11, 0, 243]",243,a,0.023352299816906452,colour,0.5
162,23,0,1,6,24,274,360.84857419971377,361.83173150010407,"[42, 0, 212]",212,a,0.46426620008423924,colour,0.5
162,23,0,1,6,25,275,362.353683100082,363.0796996001154,"[36, 0, 218]",218,a,0.20364960003644228,colour,0.5
162,23,0,1,6,26,276,363.600698699709,364.23164269980043,"[89, 0, 165]",165,l,0.11227759998291731,colour,0.5
162,23,0,1,6,27,277,364.7526543997228,365.2876389999874,"[53, 0, 201]",201,a,0.012242699973285198,colour,0.5
162,23,0,1,6,28,278,365.78700019977987,366.50369199970737,"[16, 0, 238]",238,a,0.19391709985211492,colour,0.5
162,23,0,1,6,29,279,367.0217944998294,367.78371489979327,"[3, 0, 251]",251,a,0.24216859973967075,colour,0.5
162,23,0,1,6,30,280,368.3020250000991,368.93570460006595,"[32, 0, 222]",222,a,0.11172900022938848,colour,0.5
162,23,0,1,6,31,281,369.4549579001032,370.047714299988,"[78, 0, 176]",176,l,0.07057050010189414,colour,0.5
162,23,0,1,6,32,282,370.564033200033,371.19968149997294,"[18, 0, 236]",236,a,0.11323430016636848,colour,0.5
162,23,0,1,6,33,283,371.7204744000919,372.42375049972907,"[74, 0, 180]",180,l,0.1757872998714447,colour,0.5
162,23,0,1,6,34,284,372.9424359998666,373.50370740005746,"[46, 0, 208]",208,a,0.03415550012141466,colour,0.5
162,23,0,1,6,35,285,374.02277439972386,374.6637094998732,"[21, 0, 233]",233,a,0.12168650003150105,colour,0.5
162,23,0,1,6,36,286,375.17587419971824,375.855655499734,"[58, 0, 196]",196,a,0.15715389978140593,colour,0.5
162,23,0,1,6,37,287,376.36325779976323,377.01568489987403,"[22, 0, 232]",232,a,0.12955280020833015,colour,0.5
162,23,0,1,6,38,288,377.528310299851,378.2477520997636,"[85, 0, 169]",169,l,0.19373629987239838,colour,0.5
162,23,0,1,6,39,289,378.7652504998259,379.5116777000949,"[83, 0, 171]",171,l,0.22262550005689263,colour,0.5
162,23,0,1,6,40,290,380.0298071000725,380.727666599676,"[28, 0, 226]",226,a,0.17074309987947345,colour,0.5
162,23,0,1,6,41,291,381.2392142000608,382.1356557998806,"[8, 0, 246]",246,a,0.37206210009753704,colour,0.5
162,23,0,1,6,42,292,382.65447419974953,383.3436779999174,"[0, 0, 254]",254,a,0.16611939994618297,colour,0.5
162,23,0,1,6,43,293,383.85430380003527,384.5357543998398,"[19, 0, 235]",235,a,0.16315589984878898,colour,0.5
162,23,0,1,6,44,294,385.0559955998324,385.7036609998904,"[91, 0, 163]",163,l,0.12492730002850294,colour,0.5
162,23,0,1,6,45,295,386.21202039998025,386.86362459976226,"[2, 0, 252]",252,a,0.1275021997280419,colour,0.5
162,23,0,1,6,46,296,387.36930970009416,388.1036569001153,"[10, 0, 244]",244,a,0.20676220022141933,colour,0.5
162,23,0,1,6,47,297,388.6223840001039,389.287684999872,"[59, 0, 195]",195,a,0.142505900003016,colour,0.5
162,23,0,1,6,48,298,389.79413809999824,390.7196603999473,"[52, 0, 202]",202,a,0.40265029994770885,colour,0.5
162,23,0,1,6,49,299,391.2315429998562,391.79965359997004,"[60, 0, 194]",194,a,0.045339399948716164,colour,0.5
162,23,0,1,6,50,300,392.3002542001195,392.871724399738,"[64, 0, 190]",190,a,0.049422299955040216,colour,0.5
162,23,0,1,7,1,301,397.31990739982575,397.9277081997134,"[0, 0, 254]",254,a,0.08727369969710708,colour,0.5
162,23,0,1,7,2,302,398.4930445998907,399.1116979997605,"[90, 0, 164]",164,l,0.09925880003720522,colour,0.5
162,23,0,1,7,3,303,399.62860929965973,400.21568170003593,"[7, 0, 247]",247,a,0.06307419994845986,colour,0.5
162,23,0,1,7,4,304,400.7384774996899,401.2876657997258,"[58, 0, 196]",196,a,0.029095399659126997,colour,0.5
162,23,0,1,7,5,305,401.8109788997099,402.4236008999869,"[66, 0, 188]",188,a,0.09029990015551448,colour,0.5
162,23,0,1,7,6,306,402.9366786996834,403.5356940999627,"[83, 0, 171]",171,l,0.07174939988180995,colour,0.5
162,23,0,1,7,7,307,404.05358459986746,404.57563410000876,"[86, 0, 168]",168,l,0.0019076000899076462,colour,0.5
162,23,0,1,7,8,308,405.0929708997719,405.73573309974745,"[27, 0, 227]",227,a,0.12747919978573918,colour,0.5
162,23,0,1,7,9,309,406.241513799876,406.9916249997914,"[3, 0, 251]",251,a,0.22768389992415905,colour,0.5
162,23,0,1,7,10,310,407.5044996999204,408.1756281997077,"[43, 0, 211]",211,a,0.15194479981437325,colour,0.5
162,23,0,1,7,11,311,408.691824299749,410.67967849969864,"[15, 0, 239]",239,a,1.4622978996485472,colour,0.5
162,23,0,1,7,12,312,411.1942841000855,411.83966289972886,"[79, 0, 175]",175,l,0.12246519979089499,colour,0.5
162,23,0,1,7,13,313,412.3411845997907,412.91165839973837,"[11, 0, 243]",243,a,0.04748419998213649,colour,0.5
162,23,0,1,7,14,314,413.41925209993497,414.0556179997511,"[34, 0, 220]",220,a,0.1185661000199616,colour,0.5
162,23,0,1,7,15,315,414.5719727999531,415.1436272999272,"[22, 0, 232]",232,a,0.04881960013881326,colour,0.5
162,23,0,1,7,16,316,415.6501027997583,416.93561709998176,"[44, 0, 210]",210,a,0.7628798000514507,colour,0.5
162,23,0,1,7,17,317,417.44178529968485,418.01565789990127,"[21, 0, 233]",233,a,0.05625839997082949,colour,0.5
162,23,0,1,7,18,318,418.53733329987153,419.13564659981057,"[69, 0, 185]",185,l,0.07762040011584759,colour,0.5
162,23,0,1,7,19,319,419.65936459973454,420.2876850999892,"[76, 0, 178]",178,l,0.10684930020943284,colour,0.5
162,23,0,1,7,20,320,420.7972236997448,421.3756585000083,"[14, 0, 240]",240,a,0.05570430029183626,colour,0.5
162,23,0,1,7,21,321,421.8898812998086,422.9676191001199,"[26, 0, 228]",228,a,0.5533457002602518,colour,0.5
162,23,0,1,7,22,322,423.48435179982334,424.12765990011394,"[9, 0, 245]",245,a,0.11805330030620098,colour,0.5
162,23,0,1,7,23,323,424.6378387999721,425.1836437997408,"[85, 0, 169]",169,l,0.026560799684375525,colour,0.5
162,23,0,1,7,24,324,425.6999931996688,426.33564190007746,"[48, 0, 206]",206,a,0.1128189000301063,colour,0.5
162,23,0,1,7,25,325,426.8562370999716,427.4396139997989,"[1, 0, 253]",253,a,0.06065459968522191,colour,0.5
162,23,0,1,7,26,326,427.952025400009,428.63165919994935,"[63, 0, 191]",191,l,0.1584545001387596,colour,0.5
162,23,0,1,7,27,327,429.1522735999897,429.6796283000149,"[50, 0, 204]",204,a,0.004781600087881088,colour,0.5
162,23,0,1,7,28,328,430.1993378996849,430.8556435001083,"[65, 0, 189]",189,l,0.13273050030693412,colour,0.5
162,23,0,1,7,29,329,431.373478599824,431.9676385996863,"[29, 0, 225]",225,a,0.0696896999143064,colour,0.5
162,23,0,1,7,30,330,432.48672650009394,433.64760809997097,"[98, 0, 156]",156,l,0.6425624000839889,colour,0.5
162,23,0,1,7,31,331,434.17023889999837,435.95169749995694,"[87, 0, 167]",167,l,1.2620715000666678,colour,0.5
162,23,0,1,7,32,332,436.4696529000066,437.119631299749,"[28, 0, 226]",226,a,0.12804039986804128,colour,0.5
162,23,0,1,7,33,333,437.6242132000625,438.1756150997244,"[71, 0, 183]",183,l,0.033244899939745665,colour,0.5
162,23,0,1,7,34,334,438.69046900002286,439.2160060000606,"[23, 0, 231]",231,a,0.00626259995624423,colour,0.5
162,23,0,1,7,35,335,439.7482954999432,440.35970970010385,"[10, 0, 244]",244,a,0.08965390035882592,colour,0.5
162,23,0,1,7,36,336,440.8685614001006,441.43164009973407,"[93, 0, 161]",161,l,0.041562499944120646,colour,0.5
162,23,0,1,7,37,337,441.943638399709,443.03959459997714,"[54, 0, 200]",200,a,0.5724847000092268,colour,0.5
162,23,0,1,7,38,338,443.550994399935,444.487676799763,"[60, 0, 194]",194,l,0.410434499848634,colour,0.5
162,23,0,1,7,39,339,445.0002397997305,445.6795911998488,"[77, 0, 177]",177,l,0.14815230015665293,colour,0.5
162,23,0,1,7,40,340,446.19602030003443,446.7596311997622,"[99, 0, 155]",155,l,0.04083229973912239,colour,0.5
162,23,0,1,7,41,341,447.27406829968095,447.86363720009103,"[64, 0, 190]",190,l,0.07801950024440885,colour,0.5
162,23,0,1,7,42,342,448.38428189978004,449.02361229993403,"[57, 0, 197]",197,l,0.061235500033944845,colour,0.5
162,23,0,1,7,43,343,449.53513399977237,450.2636098000221,"[70, 0, 184]",184,l,0.20620639994740486,colour,0.5
162,23,0,1,7,44,344,450.78560790000483,451.42360370000824,"[12, 0, 242]",242,a,0.11472890013828874,colour,0.5
162,23,0,1,7,45,345,451.94431110005826,452.5996238999069,"[45, 0, 209]",209,a,0.12970839999616146,colour,0.5
162,23,0,1,7,46,346,453.1148772998713,453.73559649987146,"[49, 0, 205]",205,a,0.0972719001583755,colour,0.5
162,23,0,1,7,47,347,454.2544128000736,454.8956065000966,"[17, 0, 237]",237,a,0.12034610006958246,colour,0.5
162,23,0,1,7,48,348,455.4047797997482,456.1515767998062,"[68, 0, 186]",186,l,0.22901069978252053,colour,0.5
162,23,0,1,7,49,349,456.66529130004346,457.41559339966625,"[72, 0, 182]",182,l,0.227522199973464,colour,0.5
162,23,0,1,7,50,350,457.9308265000582,458.66366309998557,"[18, 0, 236]",236,a,0.21506300009787083,colour,0.5
162,23,0,1,8,1,351,463.2509951000102,464.04763810010627,"[49, 0, 205]",205,a,0.2729807002469897,colour,0.5
162,23,0,1,8,2,352,464.5643217996694,465.13562079984695,"[93, 0, 161]",161,l,0.04862259980291128,colour,0.5
162,23,0,1,8,3,353,465.64222559984773,466.2316108997911,"[59, 0, 195]",195,a,0.06663049990311265,colour,0.5
162,23,0,1,8,4,354,466.7515831999481,467.39161890000105,"[89, 0, 165]",165,l,0.11726920027285814,colour,0.5
162,23,0,1,8,5,355,467.89866239996627,468.5436462997459,"[68, 0, 186]",186,l,0.1258657998405397,colour,0.5
162,23,0,1,8,6,356,469.05531209986657,469.8236243999563,"[67, 0, 187]",187,l,0.24261600011959672,colour,0.5
162,23,0,1,8,7,357,470.3392912996933,470.95962579967454,"[21, 0, 233]",233,a,0.09751649992540479,colour,0.5
162,23,0,1,8,8,358,471.47978819999844,472.10362259997055,"[11, 0, 243]",243,a,0.10159179987385869,colour,0.5
162,23,0,1,8,9,359,472.62031459994614,473.2635904997587,"[55, 0, 199]",199,a,0.11613609967753291,colour,0.5
162,23,0,1,8,10,360,473.7815417996608,474.47964269993827,"[40, 0, 214]",214,a,0.17602619994431734,colour,0.5
162,23,0,1,8,11,361,474.9993318999186,475.7356146997772,"[82, 0, 172]",172,l,0.21338489977642894,colour,0.5
162,23,0,1,8,12,362,476.2399959997274,476.8716547996737,"[90, 0, 164]",164,l,0.10888279974460602,colour,0.5
162,23,0,1,8,13,363,477.3680300996639,478.39162869984284,"[87, 0, 167]",167,l,0.5037878998555243,colour,0.5
162,23,0,1,8,14,364,478.9099066997878,479.6475840997882,"[32, 0, 222]",222,a,0.2153841000981629,colour,0.5
162,23,0,1,8,15,365,480.17150689987466,481.8956125997938,"[74, 0, 180]",180,l,1.2065769000910223,colour,0.5
162,23,0,1,8,16,366,482.4069210998714,482.98361309990287,"[23, 0, 231]",231,a,0.05863230023533106,colour,0.5
162,23,0,1,8,17,367,483.49635110003874,484.14356389967725,"[29, 0, 225]",225,a,0.1241287998855114,colour,0.5
162,23,0,1,8,18,368,484.665262399707,485.24758390011266,"[20, 0, 234]",234,a,0.06302350014448166,colour,0.5
162,23,0,1,8,19,369,485.7652401998639,486.4236269998364,"[38, 0, 216]",216,a,0.13561420002952218,colour,0.5
162,23,0,1,8,20,370,486.93699559988454,487.54358709976077,"[5, 0, 249]",249,a,0.08374079968780279,colour,0.5
162,23,0,1,8,21,371,488.04978779982775,488.9435649998486,"[52, 0, 202]",202,a,0.3757885000668466,colour,0.5
162,23,0,1,8,22,372,489.45681109977886,490.5036243000068,"[70, 0, 184]",184,l,0.5193811003118753,colour,0.5
162,23,0,1,8,23,373,491.024143199902,491.71957199973986,"[1, 0, 253]",253,a,0.1707861996255815,colour,0.5
162,23,0,1,8,24,374,492.229041100014,493.1676000999287,"[34, 0, 220]",220,a,0.4224308002740145,colour,0.5
162,23,0,1,8,25,375,493.6846654000692,494.40756270010024,"[8, 0, 246]",246,a,0.19955630041658878,colour,0.5
162,23,0,1,8,26,376,494.93070279993117,495.50355789996684,"[47, 0, 207]",207,a,0.05238929996266961,colour,0.5
162,23,0,1,8,27,377,496.01654929993674,496.73558750003576,"[41, 0, 213]",213,a,0.19619330018758774,colour,0.5
162,23,0,1,8,28,378,497.238424600102,497.87163650011644,"[75, 0, 179]",179,l,0.11036820011213422,colour,0.5
162,23,0,1,8,29,379,498.3867687997408,499.09557279990986,"[60, 0, 194]",194,l,0.1896534999832511,colour,0.5
162,23,0,1,8,30,380,499.60650309966877,500.19961389992386,"[9, 0, 245]",245,a,0.07029070006683469,colour,0.5
162,23,0,1,8,31,381,500.7033889000304,501.3275830997154,"[42, 0, 212]",212,a,0.10140349995344877,colour,0.5
162,23,0,1,8,32,382,501.84388990001753,502.44755719974637,"[27, 0, 227]",227,a,0.08101039985194802,colour,0.5
162,23,0,1,8,33,383,502.9563474999741,503.61561159975827,"[54, 0, 200]",200,a,0.1362259997986257,colour,0.5
162,23,0,1,8,34,384,504.12884419970214,504.8155716001056,"[69, 0, 185]",185,l,0.16389890015125275,colour,0.5
162,23,0,1,8,35,385,505.3319329000078,505.87956620007753,"[43, 0, 211]",211,a,0.024926200043410063,colour,0.5
162,23,0,1,8,36,386,506.39424780011177,506.96758840000257,"[10, 0, 244]",244,a,0.05136220017448068,colour,0.5
162,23,0,1,8,37,387,507.4879708997905,508.0635973000899,"[91, 0, 163]",163,l,0.05296040000393987,colour,0.5
162,23,0,1,8,38,388,508.58188909990713,509.175550899934,"[83, 0, 171]",171,l,0.07613319996744394,colour,0.5
162,23,0,1,8,39,389,509.68131909985095,510.28762759966776,"[72, 0, 182]",182,l,0.08377969963476062,colour,0.5
162,23,0,1,8,40,390,510.80622470006347,511.9675985998474,"[76, 0, 178]",178,l,0.6386556997895241,colour,0.5
162,23,0,1,8,41,391,512.4807508997619,513.1515589999035,"[6, 0, 248]",248,a,0.14830229990184307,colour,0.5
162,23,0,1,8,42,392,513.6725592999719,514.3115722998045,"[64, 0, 190]",190,l,0.11602329974994063,colour,0.5
162,23,0,1,8,43,393,514.828695199918,515.3595563000999,"[19, 0, 235]",235,a,0.008064300287514925,colour,0.5
162,23,0,1,8,44,394,515.8754511997104,516.5357157997787,"[86, 0, 168]",168,l,0.13734069978818297,colour,0.5
162,23,0,1,8,45,395,517.0435540997423,517.7355665997602,"[95, 0, 159]",159,l,0.16942639974877238,colour,0.5
162,23,0,1,8,46,396,518.239379900042,518.7755795996636,"[66, 0, 188]",188,l,0.016020499635487795,colour,0.5
162,23,0,1,8,47,397,519.2872156999074,520.2715781996958,"[48, 0, 206]",206,a,0.4589454997330904,colour,0.5
162,23,0,1,8,48,398,520.7832756000571,521.3515813997947,"[15, 0, 239]",239,a,0.04834609990939498,colour,0.5
162,23,0,1,8,49,399,521.8743618000299,522.5515282000415,"[35, 0, 219]",219,a,0.1576781002804637,colour,0.5
162,23,0,1,8,50,400,523.0708170998842,523.7355611999519,"[96, 0, 158]",158,l,0.13681480009108782,colour,0.5
162,23,0,1,9,1,401,528.3618898997083,529.3355521997437,"[93, 0, 161]",161,l,0.4534819000400603,colour,0.5
162,23,0,1,9,2,402,529.8453756999224,530.4395703999326,"[37, 0, 217]",217,a,0.07132099987939,colour,0.5
162,23,0,1,9,3,403,530.954649399966,531.5915270000696,"[5, 0, 249]",249,a,0.11407960020005703,colour,0.5
162,23,0,1,9,4,404,532.1106209000573,532.7195679997094,"[92, 0, 162]",162,l,0.08615299966186285,colour,0.5
162,23,0,1,9,5,405,533.2544015999883,533.8075769999996,"[42, 0, 212]",212,a,0.024511400144547224,colour,0.5
162,23,0,1,9,6,406,534.3227770999074,535.1035620998591,"[64, 0, 190]",190,l,0.2579135000705719,colour,0.5
162,23,0,1,9,7,407,535.6228328999132,536.2635369999334,"[87, 0, 167]",167,l,0.11791610019281507,colour,0.5
162,23,0,1,9,8,408,536.7788601000793,537.4715974996798,"[11, 0, 243]",243,a,0.16987429978325963,colour,0.5
162,23,0,1,9,9,409,537.9829724999145,538.6235692999326,"[15, 0, 239]",239,a,0.1152305998839438,colour,0.5
162,23,0,1,9,10,410,539.1362648997456,539.7435620999895,"[4, 0, 250]",250,a,0.09094149991869926,colour,0.5
162,23,0,1,9,11,411,540.2661623000167,540.9995963997208,"[86, 0, 168]",168,l,0.2121460996568203,colour,0.5
162,23,0,1,9,12,412,541.5128521998413,542.22364489967,"[69, 0, 185]",185,l,0.18881199974566698,colour,0.5
162,23,0,1,9,13,413,542.7441223999485,543.4315463998355,"[32, 0, 222]",222,a,0.16385179990902543,colour,0.5
162,23,0,1,9,14,414,543.9515319997445,544.6235571000725,"[9, 0, 245]",245,a,0.1457416000775993,colour,0.5
162,23,0,1,9,15,415,545.1420295997523,545.8075528996997,"[89, 0, 165]",165,l,0.1480198996141553,colour,0.5
162,23,0,1,9,16,416,546.3194120996632,546.9995736000128,"[75, 0, 179]",179,l,0.15935950027778745,colour,0.5
162,23,0,1,9,17,417,547.5059663997963,548.4155691000633,"[53, 0, 201]",201,l,0.38687000004574656,colour,0.5
162,23,0,1,9,18,418,548.9293057001196,549.5355501999147,"[48, 0, 206]",206,a,0.0861149001866579,colour,0.5
162,23,0,1,9,19,419,550.0471303998493,550.5995867000893,"[52, 0, 202]",202,a,0.029664200264960527,colour,0.5
162,23,0,1,9,20,420,551.1121875997633,551.7835137997754,"[24, 0, 230]",230,a,0.14842520002275705,colour,0.5
162,23,0,1,9,21,421,552.2996151996776,552.9115442996845,"[63, 0, 191]",191,a,0.08906579995527864,colour,0.5
162,23,0,1,9,22,422,553.4137189998291,553.975542999804,"[82, 0, 172]",172,l,0.05614469991996884,colour,0.5
162,23,0,1,9,23,423,554.4902323000133,555.0955917998217,"[23, 0, 231]",231,a,0.08305290015414357,colour,0.5
162,23,0,1,9,24,424,555.6152539998293,556.3035307996906,"[59, 0, 195]",195,a,0.16628360003232956,colour,0.5
162,23,0,1,9,25,425,556.8180256998166,557.5515811997466,"[26, 0, 228]",228,a,0.211396099999547,colour,0.5
162,23,0,1,9,26,426,558.0672192000784,559.0555205000564,"[47, 0, 207]",207,a,0.4627092001028359,colour,0.5
162,23,0,1,9,27,427,559.5773291001096,560.2875723997131,"[66, 0, 188]",188,a,0.19170959992334247,colour,0.5
162,23,0,1,9,28,428,560.8090566997416,561.4395479001105,"[79, 0, 175]",175,l,0.10314220003783703,colour,0.5
162,23,0,1,9,29,429,561.9550632997416,562.6875549000688,"[1, 0, 253]",253,a,0.20965069998055696,colour,0.5
162,23,0,1,9,30,430,563.1993958996609,564.1995411999524,"[18, 0, 236]",236,a,0.48261049995198846,colour,0.5
162,23,0,1,9,31,431,564.7180929998867,565.5035307998769,"[10, 0, 244]",244,a,0.26329470006749034,colour,0.5
162,23,0,1,9,32,432,566.021915699821,566.679532200098,"[91, 0, 163]",163,l,0.13680070033296943,colour,0.5
162,23,0,1,9,33,433,567.1972042000853,568.199550899677,"[84, 0, 170]",170,l,0.47958279959857464,colour,0.5
162,23,0,1,9,34,434,568.7098952997476,569.4394980999641,"[14, 0, 240]",240,a,0.20997259998694062,colour,0.5
162,23,0,1,9,35,435,569.9541048998944,570.6235003001057,"[76, 0, 178]",178,l,0.15574310021474957,colour,0.5
162,23,0,1,9,36,436,571.1290698996745,571.8395445998758,"[90, 0, 164]",164,l,0.18508339999243617,colour,0.5
162,23,0,1,9,37,437,572.3518741996959,572.9755072998814,"[33, 0, 221]",221,a,0.10083900019526482,colour,0.5
162,23,0,1,9,38,438,573.4924071999267,574.2875206000172,"[70, 0, 184]",184,l,0.28151819994673133,colour,0.5
162,23,0,1,9,39,439,574.797056700103,575.7594980997965,"[41, 0, 213]",213,a,0.4396588997915387,colour,0.5
162,23,0,1,9,40,440,576.2673092000186,577.0715051000006,"[56, 0, 198]",198,a,0.2814696002751589,colour,0.5
162,23,0,1,9,41,441,577.5796717996709,578.3034826996736,"[31, 0, 223]",223,a,0.2011009999550879,colour,0.5
162,23,0,1,9,42,442,578.8167532999068,579.4554840996861,"[8, 0, 246]",246,a,0.11801069974899292,colour,0.5
162,23,0,1,9,43,443,579.9787844996899,580.6555637000129,"[74, 0, 180]",180,l,0.15233599999919534,colour,0.5
162,23,0,1,9,44,444,581.1654632999562,581.8155503999442,"[7, 0, 247]",247,a,0.13369330018758774,colour,0.5
162,23,0,1,9,45,445,582.3378734998405,582.9275221000426,"[21, 0, 233]",233,a,0.07321250019595027,colour,0.5
162,23,0,1,9,46,446,583.4487191997468,585.3595332000405,"[50, 0, 204]",204,a,1.3924950999207795,colour,0.5
162,23,0,1,9,47,447,585.8731064996682,586.5195205998607,"[28, 0, 226]",226,a,0.12762559996917844,colour,0.5
162,23,0,1,9,48,448,587.0390486000106,587.7755958000198,"[88, 0, 166]",166,l,0.21374170016497374,colour,0.5
162,23,0,1,9,49,449,588.2889592000283,590.4475525999442,"[34, 0, 220]",220,a,1.6357204001396894,colour,0.5
162,23,0,1,9,50,450,590.9576222999021,591.4955525998957,"[83, 0, 171]",171,l,0.00786030013114214,colour,0.5
162,23,0,1,10,1,451,595.9980875998735,596.5755984997377,"[78, 0, 176]",176,l,0.05741139966994524,colour,0.5
162,23,0,1,10,2,452,597.0905923000537,597.9034969997592,"[15, 0, 239]",239,a,0.28760690009221435,colour,0.5
162,23,0,1,10,3,453,598.4227473000064,599.1115270000882,"[81, 0, 173]",173,l,0.16443970007821918,colour,0.5
162,23,0,1,10,4,454,599.6345315999351,600.2794963996857,"[24, 0, 230]",230,a,0.11356139974668622,colour,0.5
162,23,0,1,10,5,455,600.7993226000108,601.4635083996691,"[84, 0, 170]",170,l,0.1406230996362865,colour,0.5
162,23,0,1,10,6,456,601.9799406998791,602.567461699713,"[28, 0, 226]",226,a,0.06835930002853274,colour,0.5
162,23,0,1,10,7,457,603.0798200997524,603.8154857000336,"[3, 0, 251]",251,a,0.2167537002824247,colour,0.5
162,23,0,1,10,8,458,604.3390290997922,605.0235433001071,"[27, 0, 227]",227,a,0.1623013000935316,colour,0.5
162,23,0,1,10,9,459,605.5380842001177,606.1275685001165,"[21, 0, 233]",233,a,0.06630520010367036,colour,0.5
162,23,0,1,10,10,460,606.6433398998342,607.2874798998237,"[83, 0, 171]",171,l,0.11847979994490743,colour,0.5
162,23,0,1,10,11,461,607.802527599968,608.5275365998968,"[62, 0, 192]",192,l,0.21400099992752075,colour,0.5
162,23,0,1,10,12,462,609.0400298996828,609.6874921997078,"[74, 0, 180]",180,l,0.12744069984182715,colour,0.5
162,23,0,1,10,13,463,610.1958316997625,610.7994760996662,"[20, 0, 234]",234,a,0.08702739980071783,colour,0.5
162,23,0,1,10,14,464,611.3205510997213,612.0634518000297,"[69, 0, 185]",185,l,0.22471620002761483,colour,0.5
162,23,0,1,10,15,465,612.5719063999131,613.239563500043,"[59, 0, 195]",195,l,0.15053450036793947,colour,0.5
162,23,0,1,10,16,466,613.7623542998917,614.4075184999965,"[25, 0, 229]",229,a,0.12466430012136698,colour,0.5
162,23,0,1,10,17,467,614.9290364999324,615.5755003998056,"[13, 0, 241]",241,a,0.12277369992807508,colour,0.5
162,23,0,1,10,18,468,616.0959413996898,616.863507299684,"[41, 0, 213]",213,a,0.24619039986282587,colour,0.5
162,23,0,1,10,19,469,617.3829628000967,618.055538199842,"[1, 0, 253]",253,a,0.1495805000886321,colour,0.5
162,23,0,1,10,20,470,618.5704911998473,619.2154691000469,"[31, 0, 223]",223,a,0.12214170023798943,colour,0.5
162,23,0,1,10,21,471,619.7360700997524,620.4235312999226,"[0, 0, 254]",254,a,0.16053370013833046,colour,0.5
162,23,0,1,10,22,472,620.9365463000722,621.6714866999537,"[58, 0, 196]",196,l,0.21961789997294545,colour,0.5
162,23,0,1,10,23,473,622.1919201998971,622.7675072997808,"[19, 0, 235]",235,a,0.05751350009813905,colour,0.5
162,23,0,1,10,24,474,623.2883755997755,623.9434805996716,"[2, 0, 252]",252,a,0.13423999957740307,colour,0.5
162,23,0,1,10,25,475,624.4574611000717,625.039489899762,"[75, 0, 179]",179,l,0.060343299992382526,colour,0.5
162,23,0,1,10,26,476,625.5481182998046,626.2074468000792,"[46, 0, 208]",208,a,0.13800440030172467,colour,0.5
162,23,0,1,10,27,477,626.7266818000935,627.3435390996747,"[53, 0, 201]",201,a,0.09037869982421398,colour,0.5
162,23,0,1,10,28,478,627.8553142999299,628.5514930998906,"[9, 0, 245]",245,a,0.1735231000930071,colour,0.5
162,23,0,1,10,29,479,629.0582137000747,629.5995053998195,"[39, 0, 215]",215,a,0.01631949981674552,colour,0.5
162,23,0,1,10,30,480,630.1176470997743,631.4235284999013,"[32, 0, 222]",222,a,0.7896385001949966,colour,0.5
162,23,0,1,10,31,481,631.9390369998291,632.6314829997718,"[12, 0, 242]",242,a,0.1695113000459969,colour,0.5
162,23,0,1,10,32,482,633.1454968000762,633.7835371997207,"[98, 0, 156]",156,l,0.11521469987928867,colour,0.5
162,23,0,1,10,33,483,634.3041067998856,635.3194681997411,"[55, 0, 199]",199,l,0.48974879970774055,colour,0.5
162,23,0,1,10,34,484,635.8379536001012,636.5595545996912,"[68, 0, 186]",186,l,0.19873249996453524,colour,0.5
162,23,0,1,10,35,485,637.0729445996694,637.759520499967,"[63, 0, 191]",191,l,0.16425650008022785,colour,0.5
162,23,0,1,10,36,486,638.2754203998484,639.0394500000402,"[35, 0, 219]",219,a,0.24125590035691857,colour,0.5
162,23,0,1,10,37,487,639.559471399989,640.2554651000537,"[5, 0, 249]",249,a,0.1777286003343761,colour,0.5
162,23,0,1,10,38,488,640.7658428000286,641.3994789998978,"[88, 0, 166]",166,l,0.11082469997927547,colour,0.5
162,23,0,1,10,39,489,641.9064525999129,642.5914437999018,"[86, 0, 168]",168,l,0.1629050998017192,colour,0.5
162,23,0,1,10,40,490,643.1203677998856,643.7834549997933,"[72, 0, 182]",182,l,0.13552109990268946,colour,0.5
162,23,0,1,10,41,491,644.2969769998454,644.9434825996868,"[4, 0, 250]",250,a,0.11881199991330504,colour,0.5
162,23,0,1,10,42,492,645.4580107997172,646.1354988999665,"[38, 0, 216]",216,a,0.15464540012180805,colour,0.5
162,23,0,1,10,43,493,646.6453800997697,647.3754793996923,"[71, 0, 183]",183,l,0.20727729983627796,colour,0.5
162,23,0,1,10,44,494,647.8953390000388,648.4715239000507,"[42, 0, 212]",212,a,0.05338570009917021,colour,0.5
162,23,0,1,10,45,495,648.9889817000367,649.6794871999882,"[64, 0, 190]",190,l,0.17677640030160546,colour,0.5
162,23,0,1,10,46,496,650.1927896998823,650.735521200113,"[52, 0, 202]",202,a,0.011700700037181377,colour,0.5
162,23,0,1,10,47,497,651.247784699779,652.2474715998396,"[56, 0, 198]",198,a,0.4768179999664426,colour,0.5
162,23,0,1,10,48,498,652.7633675998077,653.4314681999385,"[96, 0, 158]",158,l,0.14535220013931394,colour,0.5
162,23,0,1,10,49,499,653.9383968999609,656.3434794996865,"[50, 0, 204]",204,a,1.868475599680096,colour,0.5
162,23,0,1,10,50,500,656.858929600101,657.5354891000316,"[79, 0, 175]",175,l,0.1538340002298355,colour,0.5
162,23,0,1,11,1,501,662.6676058000885,663.2874790998176,"[43, 0, 211]",211,a,0.09034089976921678,colour,0.5
162,23,0,1,11,2,502,663.8076464999467,664.3755163997412,"[64, 0, 190]",190,l,0.051808899734169245,colour,0.5
162,23,0,1,11,3,503,664.8926474996842,665.5034757000394,"[86, 0, 168]",168,l,0.08853110019117594,colour,0.5
162,23,0,1,11,4,504,666.0154884997755,667.2954525998794,"[42, 0, 212]",212,a,0.7588677001185715,colour,0.5
162,23,0,1,11,5,505,667.8096540998667,668.4314512996934,"[1, 0, 253]",253,a,0.09905449999496341,colour,0.5
162,23,0,1,11,6,506,668.9501668997109,669.5754605000839,"[48, 0, 206]",206,a,0.10257480014115572,colour,0.5
162,23,0,1,11,7,507,670.0904127997346,670.7674575997517,"[30, 0, 224]",224,a,0.14989229990169406,colour,0.5
162,23,0,1,11,8,508,671.2836664998904,671.9914707997814,"[59, 0, 195]",195,a,0.18614659970626235,colour,0.5
162,23,0,1,11,9,509,672.5144894998521,673.0634600999765,"[74, 0, 180]",180,l,0.027436400298029184,colour,0.5
162,23,0,1,11,10,510,673.573813199997,674.1994678997435,"[56, 0, 198]",198,l,0.10116189997643232,colour,0.5
162,23,0,1,11,11,511,674.7152908998542,675.3034842000343,"[78, 0, 176]",176,l,0.06908590020611882,colour,0.5
162,23,0,1,11,12,512,675.8222388001159,676.4235060997307,"[5, 0, 249]",249,a,0.07535439962521195,colour,0.5
162,23,0,1,11,13,513,676.9466850999743,677.5194701999426,"[8, 0, 246]",246,a,0.0549320001155138,colour,0.5
162,23,0,1,11,14,514,678.0329828998074,678.6316017997451,"[15, 0, 239]",239,a,0.07565729971975088,colour,0.5
162,23,0,1,11,15,515,679.1423240997829,680.7114630998112,"[13, 0, 241]",241,a,1.055809199810028,colour,0.5
162,23,0,1,11,16,516,681.2208092999645,682.1594818998128,"[23, 0, 231]",231,a,0.4133699997328222,colour,0.5
162,23,0,1,11,17,517,682.676238199696,683.3834273000248,"[14, 0, 240]",240,a,0.18450390035286546,colour,0.5
162,23,0,1,11,18,518,683.8948746998794,684.5034571997821,"[92, 0, 162]",162,l,0.08574760006740689,colour,0.5
162,23,0,1,11,19,519,685.0187844000757,685.6634331997484,"[71, 0, 183]",183,l,0.1191954999230802,colour,0.5
162,23,0,1,11,20,520,686.1776012997143,686.8714481000789,"[94, 0, 160]",160,l,0.17094850027933717,colour,0.5
162,23,0,1,11,21,521,687.3806106997654,687.9914555000141,"[69, 0, 185]",185,l,0.08792350022122264,colour,0.5
162,23,0,1,11,22,522,688.5055684996769,689.1355185001157,"[19, 0, 235]",235,a,0.10696230037137866,colour,0.5
162,23,0,1,11,23,523,689.6461291997693,690.295418499969,"[72, 0, 182]",182,l,0.12736390018835664,colour,0.5
162,23,0,1,11,24,524,690.8032937999815,691.3914238000289,"[20, 0, 234]",234,a,0.06858510011807084,colour,0.5
162,23,0,1,11,25,525,691.9071160997264,692.5194971999153,"[2, 0, 252]",252,a,0.08954739989712834,colour,0.5
162,23,0,1,11,26,526,693.0311906998977,693.5834949999116,"[34, 0, 220]",220,a,0.031015700194984674,colour,0.5
162,23,0,1,11,27,527,694.1024779998697,694.7593936999328,"[62, 0, 192]",192,l,0.1397202000953257,colour,0.5
162,23,0,1,11,28,528,695.2821374996565,695.8634399999864,"[18, 0, 236]",236,a,0.05906630028039217,colour,0.5
162,23,0,1,11,29,529,696.3735158997588,697.2074325997382,"[88, 0, 166]",166,l,0.3140268996357918,colour,0.5
162,23,0,1,11,30,530,697.7218630998395,698.4154372001067,"[67, 0, 187]",187,l,0.1788978003896773,colour,0.5
162,23,0,1,11,31,531,698.9323416999541,699.5114060998894,"[61, 0, 193]",193,l,0.056229600217193365,colour,0.5
162,23,0,1,11,32,532,700.0205395999365,700.7434844998643,"[83, 0, 171]",171,l,0.20643409993499517,colour,0.5
162,23,0,1,11,33,533,701.2643057997338,701.999497700017,"[28, 0, 226]",226,a,0.21281239995732903,colour,0.5
162,23,0,1,11,34,534,702.5112720998004,703.119398099836,"[10, 0, 244]",244,a,0.08549319999292493,colour,0.5
162,23,0,1,11,35,535,703.6341761997901,704.2234110999852,"[9, 0, 245]",245,a,0.06901179999113083,colour,0.5
162,23,0,1,11,36,536,704.7385368999094,705.3914342997596,"[51, 0, 203]",203,a,0.12713850010186434,colour,0.5
162,23,0,1,11,37,537,705.9107217998244,706.5194492000155,"[97, 0, 157]",157,l,0.08741760021075606,colour,0.5
162,23,0,1,11,38,538,707.0294645000249,707.8474737997167,"[70, 0, 184]",184,l,0.29919279972091317,colour,0.5
162,23,0,1,11,39,539,708.3547068000771,709.0954088997096,"[84, 0, 170]",170,l,0.2178086000494659,colour,0.5
162,23,0,1,11,40,540,709.6045758998953,710.2634227997623,"[7, 0, 247]",247,a,0.14317990001291037,colour,0.5
162,23,0,1,11,41,541,710.7784659001045,711.4393929000944,"[47, 0, 207]",207,a,0.12994440039619803,colour,0.5
162,23,0,1,11,42,542,711.9583936999552,712.5674200998619,"[26, 0, 228]",228,a,0.0862066000699997,colour,0.5
162,23,0,1,11,43,543,713.0833216998726,713.7594288000837,"[50, 0, 204]",204,a,0.1533036003820598,colour,0.5
162,23,0,1,11,44,544,714.2706524999812,714.9754484998994,"[80, 0, 174]",174,l,0.18188680009916425,colour,0.5
162,23,0,1,11,45,545,715.4946145997383,716.2314714998938,"[98, 0, 156]",156,l,0.21453290013596416,colour,0.5
162,23,0,1,11,46,546,716.7444968000054,717.4794503999874,"[54, 0, 200]",200,a,0.21361140022054315,colour,0.5
162,23,0,1,11,47,547,717.9956688000821,718.6713990001008,"[66, 0, 188]",188,a,0.15292590018361807,colour,0.5
162,23,0,1,11,48,548,719.1830760999583,719.9594287998043,"[33, 0, 221]",221,a,0.2534845997579396,colour,0.5
162,23,0,1,11,49,549,720.4793187999167,721.0874327998608,"[46, 0, 208]",208,a,0.08913049986585975,colour,0.5
162,23,0,1,11,50,550,721.6096534999087,722.3434051997028,"[39, 0, 215]",215,a,0.2025200999341905,colour,0.5
162,23,0,1,12,1,551,726.8071020999923,727.4153889999725,"[75, 0, 179]",179,l,0.08774580014869571,colour,0.5
162,23,0,1,12,2,552,727.9262661999092,728.4874224998057,"[94, 0, 160]",160,l,0.038478999864310026,colour,0.5
162,23,0,1,12,3,553,729.0043126996607,729.5594295999035,"[9, 0, 245]",245,a,0.03210629988461733,colour,0.5
162,23,0,1,12,4,554,730.0686123999767,730.6634152997285,"[20, 0, 234]",234,a,0.07169009977951646,colour,0.5
162,23,0,1,12,5,555,731.1811655997299,731.8074177000672,"[53, 0, 201]",201,a,0.10526620037853718,colour,0.5
162,23,0,1,12,6,556,732.3179933996871,732.8634043997154,"[96, 0, 158]",158,l,0.023670499678701162,colour,0.5
162,23,0,1,12,7,557,733.3778121997602,733.9834054997191,"[43, 0, 211]",211,a,0.08393799979239702,colour,0.5
162,23,0,1,12,8,558,734.4994288999587,735.1754177999683,"[45, 0, 209]",209,a,0.15324510028585792,colour,0.5
162,23,0,1,12,9,559,735.6904905997217,736.3194458996877,"[59, 0, 195]",195,a,0.10352869983762503,colour,0.5
162,23,0,1,12,10,560,736.8383172000758,737.4553572000004,"[64, 0, 190]",190,a,0.0979325002990663,colour,0.5
162,23,0,1,12,11,561,737.9688206999563,738.6233667000197,"[11, 0, 243]",243,a,0.136266500223428,colour,0.5
162,23,0,1,12,12,562,739.1360667999834,739.7274087998085,"[85, 0, 169]",169,l,0.06956009985879064,colour,0.5
162,23,0,1,12,13,563,740.2380617996678,740.8713706000708,"[29, 0, 225]",225,a,0.11424530018121004,colour,0.5
162,23,0,1,12,14,564,741.3914316999726,742.3113965000957,"[32, 0, 222]",222,a,0.3943126001395285,colour,0.5
162,23,0,1,12,15,565,742.8300677998923,743.5754180001095,"[93, 0, 161]",161,l,0.22700190031901002,colour,0.5
162,23,0,1,12,16,566,744.0969031997956,744.9994431999512,"[79, 0, 175]",175,l,0.38569159992039204,colour,0.5
162,23,0,1,12,17,567,745.5211752001196,746.1994011998177,"[47, 0, 207]",207,a,0.15636650007218122,colour,0.5
162,23,0,1,12,18,568,746.7196780000813,747.2795755998231,"[41, 0, 213]",213,a,0.040055399760603905,colour,0.5
162,23,0,1,12,19,569,747.7908773999661,748.5673691998236,"[0, 0, 254]",254,a,0.24806230003014207,colour,0.5
162,23,0,1,12,20,570,749.0778369000182,749.9513723999262,"[84, 0, 170]",170,l,0.36245519993826747,colour,0.5
162,23,0,1,12,21,571,750.4706604997627,751.2873832997866,"[18, 0, 236]",236,a,0.2979669999331236,colour,0.5
162,23,0,1,12,22,572,751.8016857998446,752.639371199999,"[70, 0, 184]",184,l,0.3131762002594769,colour,0.5
162,23,0,1,12,23,573,753.1373064997606,753.8314533000812,"[22, 0, 232]",232,a,0.16974780010059476,colour,0.5
162,23,0,1,12,24,574,754.3420285996981,754.9353767000139,"[17, 0, 237]",237,a,0.07059930032119155,colour,0.5
162,23,0,1,12,25,575,755.4472380997613,756.071355199907,"[35, 0, 219]",219,a,0.10143449995666742,colour,0.5
162,23,0,1,12,26,576,756.5876357997768,757.1753624998964,"[92, 0, 162]",162,l,0.06484499992802739,colour,0.5
162,23,0,1,12,27,577,757.6813626000658,758.2634378001094,"[14, 0, 240]",240,a,0.05917340004816651,colour,0.5
162,23,0,1,12,28,578,758.7749173999764,759.3513678996824,"[97, 0, 157]",157,l,0.05345689970999956,colour,0.5
162,23,0,1,12,29,579,759.8687283000909,760.4235779000446,"[39, 0, 215]",215,a,0.03256550012156367,colour,0.5
162,23,0,1,12,30,580,760.932948899921,761.6073964997195,"[67, 0, 187]",187,l,0.14555640006437898,colour,0.5
162,23,0,1,12,31,581,762.1282285000198,763.0473770997487,"[46, 0, 208]",208,a,0.3962761997245252,colour,0.5
162,23,0,1,12,32,582,763.5636368999258,764.3273916998878,"[61, 0, 193]",193,a,0.23332990007475019,colour,0.5
162,23,0,1,12,33,583,764.8449421999976,765.6315166996792,"[66, 0, 188]",188,a,0.25533089973032475,colour,0.5
162,23,0,1,12,34,584,766.1465189997107,766.7513842997141,"[73, 0, 181]",181,l,0.08301219996064901,colour,0.5
162,23,0,1,12,35,585,767.2683600001037,767.951401299797,"[52, 0, 202]",202,a,0.16270139999687672,colour,0.5
162,23,0,1,12,36,586,768.4660185999237,769.103394200094,"[58, 0, 196]",196,a,0.11505230003967881,colour,0.5
162,23,0,1,12,37,587,769.6221789997071,770.1913574999198,"[83, 0, 171]",171,l,0.05587510019540787,colour,0.5
162,23,0,1,12,38,588,770.6992043997161,771.3993934998289,"[68, 0, 186]",186,l,0.18110619997605681,colour,0.5
162,23,0,1,12,39,589,771.9153851997107,772.9513523997739,"[81, 0, 173]",173,l,0.5187870999798179,colour,0.5
162,23,0,1,12,40,590,773.4720924999565,774.119429399725,"[44, 0, 210]",210,a,0.12747700000181794,colour,0.5
162,23,0,1,12,41,591,774.6336973998696,775.32739030011,"[27, 0, 227]",227,a,0.17573570040985942,colour,0.5
162,23,0,1,12,42,592,775.8553685001098,776.415387999732,"[25, 0, 229]",229,a,0.034320699982345104,colour,0.5
162,23,0,1,12,43,593,776.9349635997787,777.5433928999119,"[82, 0, 172]",172,l,0.08703069994226098,colour,0.5
162,23,0,1,12,44,594,778.0550913000479,778.6473902999423,"[13, 0, 241]",241,a,0.07396689988672733,colour,0.5
162,23,0,1,12,45,595,779.1599715999328,779.9353575999849,"[80, 0, 174]",174,l,0.25264730025082827,colour,0.5
162,23,0,1,12,46,596,780.4301179000176,781.079369999934,"[3, 0, 251]",251,a,0.12949620001018047,colour,0.5
162,23,0,1,12,47,597,781.6196626997553,782.2314065000974,"[19, 0, 235]",235,a,0.09283550037071109,colour,0.5
162,23,0,1,12,48,598,782.749309099745,783.4314616997726,"[50, 0, 204]",204,a,0.1640960997901857,colour,0.5
162,23,0,1,12,49,599,783.9537193998694,784.5594677999616,"[7, 0, 247]",247,a,0.08791569992899895,colour,0.5
162,23,0,1,12,50,600,785.0680396999232,785.7353856000118,"[2, 0, 252]",252,a,0.1369865001179278,colour,0.5
162,23,0,1,13,1,601,790.2541191997007,790.7913460996933,"[10, 0, 244]",244,a,0.012846099678426981,colour,0.5
162,23,0,1,13,2,602,791.312712599989,792.1753652999178,"[45, 0, 209]",209,a,0.3329639001749456,colour,0.5
162,23,0,1,13,3,603,792.6911065997556,793.3593842997216,"[98, 0, 156]",156,l,0.14487129962071776,colour,0.5
162,23,0,1,13,4,604,793.8718824996613,794.5593679999001,"[64, 0, 190]",190,a,0.16998740006238222,colour,0.5
162,23,0,1,13,5,605,795.0752904000692,795.7033599996939,"[33, 0, 221]",221,a,0.11063419980928302,colour,0.5
162,23,0,1,13,6,606,796.2238606996834,796.8474126998335,"[85, 0, 169]",169,l,0.10148049984127283,colour,0.5
162,23,0,1,13,7,607,797.3615815998055,797.9753541001119,"[71, 0, 183]",183,l,0.09477180009707808,colour,0.5
162,23,0,1,13,8,608,798.4940802999772,799.1353655997664,"[38, 0, 216]",216,a,0.122170299757272,colour,0.5
162,23,0,1,13,9,609,799.646421900019,800.2713584001176,"[83, 0, 171]",171,l,0.11441160039976239,colour,0.5
162,23,0,1,13,10,610,800.7847058996558,801.4234516997822,"[16, 0, 238]",238,a,0.11964990012347698,colour,0.5
162,23,0,1,13,11,611,801.9424041998573,802.5513752000406,"[96, 0, 158]",158,l,0.0841061002574861,colour,0.5
162,23,0,1,13,12,612,803.0714342999272,803.6953368000686,"[91, 0, 163]",163,l,0.09813520032912493,colour,0.5
162,23,0,1,13,13,613,804.2080882997252,804.8073685998097,"[0, 0, 254]",254,a,0.07648700010031462,colour,0.5
162,23,0,1,13,14,614,805.3244238998741,805.9513822998852,"[35, 0, 219]",219,a,0.1080350000411272,colour,0.5
162,23,0,1,13,15,615,806.4601846998557,807.095352999866,"[34, 0, 220]",220,a,0.11136659979820251,colour,0.5
162,23,0,1,13,16,616,807.6152331996709,808.1993860998191,"[93, 0, 161]",161,l,0.06487180013209581,colour,0.5
162,23,0,1,13,17,617,808.7156907999888,809.3033483996987,"[74, 0, 180]",180,a,0.06708869989961386,colour,0.5
162,23,0,1,13,18,618,809.8227669000626,810.4953716997989,"[63, 0, 191]",191,a,0.14979359973222017,colour,0.5
162,23,0,1,13,19,619,811.0006558997557,811.6314302999526,"[94, 0, 160]",160,l,0.11212870012968779,colour,0.5
162,23,0,1,13,20,620,812.1409257999621,812.9753970000893,"[65, 0, 189]",189,l,0.3115976001136005,colour,0.5
162,23,0,1,13,21,621,813.4846012997441,814.1194213000126,"[8, 0, 246]",246,a,0.11194299999624491,colour,0.5
162,23,0,1,13,22,622,814.6252238000743,815.2153117000125,"[56, 0, 198]",198,a,0.0673521002754569,colour,0.5
162,23,0,1,13,23,623,815.7343623000197,816.4553753999062,"[11, 0, 243]",243,a,0.2059948001988232,colour,0.5
162,23,0,1,13,24,624,816.9694171999581,817.5833453997038,"[29, 0, 225]",225,a,0.09101399965584278,colour,0.5
162,23,0,1,13,25,625,818.096034700051,818.727352200076,"[40, 0, 214]",214,a,0.10851020039990544,colour,0.5
162,23,0,1,13,26,626,819.2300879997201,819.7833801996894,"[4, 0, 250]",250,a,0.0304064997471869,colour,0.5
162,23,0,1,13,27,627,820.2925486001186,821.1353511000052,"[19, 0, 235]",235,a,0.32012390019372106,colour,0.5
162,23,0,1,13,28,628,821.6452438998967,822.2314853998832,"[49, 0, 205]",205,a,0.054734400007873774,colour,0.5
162,23,0,1,13,29,629,822.7507563000545,823.3834175998345,"[97, 0, 157]",157,l,0.107744500041008,colour,0.5
162,23,0,1,13,30,630,823.8938457998447,824.4314321000129,"[24, 0, 230]",230,a,0.020005099941045046,colour,0.5
162,23,0,1,13,31,631,824.9477168000303,825.6553730997257,"[66, 0, 188]",188,l,0.1882331999950111,colour,0.5
162,23,0,1,13,32,632,826.174519199878,826.7193562998436,"[5, 0, 249]",249,a,0.02154710004106164,colour,0.5
162,23,0,1,13,33,633,827.2338747000322,827.9513244000264,"[75, 0, 179]",179,l,0.19523579999804497,colour,0.5
162,23,0,1,13,34,634,828.4622781998478,829.0553623996675,"[27, 0, 227]",227,a,0.06934019969776273,colour,0.5
162,23,0,1,13,35,635,829.5730709000491,830.2713740998879,"[79, 0, 175]",175,l,0.18853829987347126,colour,0.5
162,23,0,1,13,36,636,830.7793895998038,831.5513341999613,"[62, 0, 192]",192,l,0.2565677003003657,colour,0.5
162,23,0,1,13,37,637,832.069655300118,832.6952883000486,"[54, 0, 200]",200,a,0.1138508003205061,colour,0.5
162,23,0,1,13,38,638,833.2163192997687,833.7833734997548,"[95, 0, 159]",159,l,0.04607350006699562,colour,0.5
162,23,0,1,13,39,639,834.29406929994,834.9353630999103,"[20, 0, 234]",234,a,0.11855040024966002,colour,0.5
162,23,0,1,13,40,640,835.4377862000838,836.0633430997841,"[31, 0, 223]",223,a,0.10271729994565248,colour,0.5
162,23,0,1,13,41,641,836.5774201001041,837.1993483998813,"[15, 0, 239]",239,a,0.09652339993044734,colour,0.5
162,23,0,1,13,42,642,837.706472299993,838.3033225000836,"[3, 0, 251]",251,a,0.07403140002861619,colour,0.5
162,23,0,1,13,43,643,838.8173655997962,839.4873579996638,"[7, 0, 247]",247,a,0.14435029961168766,colour,0.5
162,23,0,1,13,44,644,839.9973343000747,840.6793239996769,"[44, 0, 210]",210,a,0.15911109978333116,colour,0.5
162,23,0,1,13,45,645,841.1941843000241,841.8873819001019,"[73, 0, 181]",181,l,0.17498400015756488,colour,0.5
162,23,0,1,13,46,646,842.3989494997077,842.9113793000579,"[42, 0, 212]",212,a,0.0019082999788224697,colour,0.5
162,23,0,1,13,47,647,843.4333025999367,843.999315999914,"[57, 0, 197]",197,a,0.04625209979712963,colour,0.5
162,23,0,1,13,48,648,844.5082715000026,845.0953799998388,"[67, 0, 187]",187,l,0.06433039996773005,colour,0.5
162,23,0,1,13,49,649,845.6020227996632,846.3033141996711,"[99, 0, 155]",155,l,0.18246179958805442,colour,0.5
162,23,0,1,13,50,650,846.8104089996777,847.4713296997361,"[92, 0, 162]",162,l,0.1367540997453034,colour,0.5
162,23,0,1,14,1,651,851.8861591001041,852.4393352996558,"[45, 0, 209]",209,a,0.022152999881654978,colour,0.5
162,23,0,1,14,2,652,852.9577460000291,853.5113582997583,"[20, 0, 234]",234,a,0.03212969982996583,colour,0.5
162,23,0,1,14,3,653,854.033063699957,854.615307699889,"[58, 0, 196]",196,a,0.06067859986796975,colour,0.5
162,23,0,1,14,4,654,855.138571199961,855.6713757999241,"[17, 0, 237]",237,a,0.009167099837213755,colour,0.5
162,23,0,1,14,5,655,856.1858752998523,856.8953764997423,"[62, 0, 192]",192,l,0.18605409981682897,colour,0.5
162,23,0,1,14,6,656,857.4148571998812,858.0633831000887,"[29, 0, 225]",225,a,0.126067700330168,colour,0.5
162,23,0,1,14,7,657,858.582579900045,859.1913378997706,"[0, 0, 254]",254,a,0.08882659999653697,colour,0.5
162,23,0,1,14,8,658,859.7002125000581,860.439331300091,"[49, 0, 205]",205,l,0.21624890016391873,colour,0.5
162,23,0,1,14,9,659,860.950184899848,861.5593220000155,"[35, 0, 219]",219,a,0.08720580022782087,colour,0.5
162,23,0,1,14,10,660,862.0692206998356,862.7273357999511,"[98, 0, 156]",156,l,0.13061940018087626,colour,0.5
162,23,0,1,14,11,661,863.2437903000973,863.9033189998008,"[87, 0, 167]",167,l,0.1382464999333024,colour,0.5
162,23,0,1,14,12,662,864.4255025996827,865.007322399877,"[66, 0, 188]",188,l,0.06079280003905296,colour,0.5
162,23,0,1,14,13,663,865.5155342998914,866.17536989972,"[36, 0, 218]",218,a,0.13734459970146418,colour,0.5
162,23,0,1,14,14,664,866.6859599999152,868.7593804998323,"[94, 0, 160]",160,l,1.5496664000675082,colour,0.5
162,23,0,1,14,15,665,869.2747112000361,870.2472977000289,"[5, 0, 249]",249,a,0.449808600358665,colour,0.5
162,23,0,1,14,16,666,870.7589231999591,871.4713415997103,"[53, 0, 201]",201,a,0.19020579988136888,colour,0.5
162,23,0,1,14,17,667,871.9867913997732,872.8553332998417,"[97, 0, 157]",157,l,0.34051849972456694,colour,0.5
162,23,0,1,14,18,668,873.37699839985,873.9513158998452,"[57, 0, 197]",197,a,0.052399400155991316,colour,0.5
162,23,0,1,14,19,669,874.4675600999035,875.1033216998912,"[82, 0, 172]",172,l,0.11793600022792816,colour,0.5
162,23,0,1,14,20,670,875.6157808997668,876.1753253000788,"[26, 0, 228]",228,a,0.03676360007375479,colour,0.5
162,23,0,1,14,21,671,876.6857213000767,877.3593151997775,"[28, 0, 226]",226,a,0.14625759981572628,colour,0.5
162,23,0,1,14,22,672,877.8801215998828,878.4633593996987,"[2, 0, 252]",252,a,0.059498799964785576,colour,0.5
162,23,0,1,14,23,673,878.984569999855,879.5992862996645,"[69, 0, 185]",185,l,0.08670849958434701,colour,0.5
162,23,0,1,14,24,674,880.1148059000261,880.9512632996775,"[41, 0, 213]",213,a,0.3136542998254299,colour,0.5
162,23,0,1,14,25,675,881.4464781000279,882.0953283999115,"[81, 0, 173]",173,l,0.12352399993687868,colour,0.5
162,23,0,1,14,26,676,882.6124574998394,883.2153149000369,"[93, 0, 161]",161,l,0.07906239992007613,colour,0.5
162,23,0,1,14,27,677,883.7380192000419,884.3752755001187,"[91, 0, 163]",163,l,0.11889700032770634,colour,0.5
162,23,0,1,14,28,678,884.8855626997538,885.5113490996882,"[40, 0, 214]",214,a,0.10329280002042651,colour,0.5
162,23,0,1,14,29,679,886.0257910997607,886.6553070996888,"[37, 0, 217]",217,a,0.10539649985730648,colour,0.5
162,23,0,1,14,30,680,887.1708001000807,887.7593526998535,"[63, 0, 191]",191,l,0.06242410000413656,colour,0.5
162,23,0,1,14,31,681,888.2704106001183,888.8313170997426,"[13, 0, 241]",241,a,0.041617400012910366,colour,0.5
162,23,0,1,14,32,682,889.3424649997614,889.9752858998254,"[47, 0, 207]",207,a,0.11656789993867278,colour,0.5
162,23,0,1,14,33,683,890.4920518998988,891.0792795997113,"[51, 0, 203]",203,a,0.06444189976900816,colour,0.5
162,23,0,1,14,34,684,891.575608599931,892.1352876001038,"[74, 0, 180]",180,l,0.04019150044769049,colour,0.5
162,23,0,1,14,35,685,892.656837800052,893.3273032996804,"[6, 0, 248]",248,l,0.1455593998543918,colour,0.5
162,23,0,1,14,36,686,893.8384903999977,894.8073132000864,"[84, 0, 170]",170,l,0.4531776001676917,colour,0.5
162,23,0,1,14,37,687,895.3299531000666,895.8632918000221,"[56, 0, 198]",198,a,0.016797200310975313,colour,0.5
162,23,0,1,14,38,688,896.3799172998406,897.0472685000859,"[32, 0, 222]",222,a,0.14716940000653267,colour,0.5
162,23,0,1,14,39,689,897.561843500007,898.1433186000213,"[22, 0, 232]",232,a,0.057672600261867046,colour,0.5
162,23,0,1,14,40,690,898.6517705000006,899.1832954999991,"[12, 0, 242]",242,a,0.012559900060296059,colour,0.5
162,23,0,1,14,41,691,899.6994578996673,900.3832791000605,"[79, 0, 175]",175,l,0.1607846999540925,colour,0.5
162,23,0,1,14,42,692,900.902614899911,901.4393537999131,"[14, 0, 240]",240,a,0.026377900037914515,colour,0.5
162,23,0,1,14,43,693,901.9524725000374,902.5273743998259,"[33, 0, 221]",221,a,0.020223800092935562,colour,0.5
162,23,0,1,14,44,694,903.0433076000772,903.5913191,"[65, 0, 189]",189,l,0.025626500137150288,colour,0.5
162,23,0,1,14,45,695,904.1057464997284,904.6473260996863,"[16, 0, 238]",238,a,0.020171599928289652,colour,0.5
162,23,0,1,14,46,696,905.1590593000874,905.6952924998477,"[54, 0, 200]",200,l,0.01336089987307787,colour,0.5
162,23,0,1,14,47,697,906.2059388998896,907.2473319000565,"[78, 0, 176]",176,l,0.5200839000754058,colour,0.5
162,23,0,1,14,48,698,907.7573148999363,908.3992794998921,"[88, 0, 166]",166,l,0.11915929988026619,colour,0.5
162,23,0,1,14,49,699,908.913464399986,909.5992935998365,"[46, 0, 208]",208,a,0.16293179988861084,colour,0.5
162,23,0,1,14,50,700,910.1164457998239,910.6552522997372,"[52, 0, 202]",202,a,0.015918999910354614,colour,0.5
162,23,0,1,15,1,701,915.4517072997987,916.01527109975,"[11, 0, 243]",243,a,0.04663279978558421,colour,0.5
162,23,0,1,15,2,702,916.5352312996984,917.1433267998509,"[88, 0, 166]",166,l,0.0862015001475811,colour,0.5
162,23,0,1,15,3,703,917.6573792998679,918.287291799672,"[80, 0, 174]",174,l,0.10541339963674545,colour,0.5
162,23,0,1,15,4,704,918.7976218997501,919.4152462999336,"[57, 0, 197]",197,l,0.09964489983394742,colour,0.5
162,23,0,1,15,5,705,919.9322830000892,920.6472815996967,"[28, 0, 226]",226,a,0.19209239957854152,colour,0.5
162,23,0,1,15,6,706,921.1665356000885,921.711313100066,"[77, 0, 177]",177,l,0.021800300106406212,colour,0.5
162,23,0,1,15,7,707,922.2164658997208,922.8313531000167,"[17, 0, 237]",237,a,0.09595709992572665,colour,0.5
162,23,0,1,15,8,708,923.3472850997932,923.935236999765,"[23, 0, 231]",231,a,0.06434569973498583,colour,0.5
162,23,0,1,15,9,709,924.4418493998237,924.9832591000013,"[46, 0, 208]",208,a,0.018576300237327814,colour,0.5
162,23,0,1,15,10,710,925.5042627998628,926.2232609996572,"[68, 0, 186]",186,a,0.19621669966727495,colour,0.5
162,23,0,1,15,11,711,926.7275939998217,927.4472372001037,"[75, 0, 179]",179,l,0.19774550013244152,colour,0.5
162,23,0,1,15,12,712,927.9627257999964,928.8872646000236,"[59, 0, 195]",195,l,0.4016462001018226,colour,0.5
162,23,0,1,15,13,713,929.4001691997983,930.031254099682,"[31, 0, 223]",223,a,0.1082740998826921,colour,0.5
162,23,0,1,15,14,714,930.5407527997158,931.167263600044,"[16, 0, 238]",238,a,0.10386800020933151,colour,0.5
162,23,0,1,15,15,715,931.6812360999174,932.239285199903,"[6, 0, 248]",248,a,0.03282770002260804,colour,0.5
162,23,0,1,15,16,716,932.7592759998515,933.70323069999,"[14, 0, 240]",240,a,0.4145488999783993,colour,0.5
162,23,0,1,15,17,717,934.2191371996887,934.8232466001064,"[45, 0, 209]",209,a,0.08127210009843111,colour,0.5
162,23,0,1,15,18,718,935.3441771999933,935.9352321997285,"[85, 0, 169]",169,l,0.06868189992383122,colour,0.5
162,23,0,1,15,19,719,936.4532643998973,937.0952574997209,"[38, 0, 216]",216,a,0.11919889971613884,colour,0.5
162,23,0,1,15,20,720,937.6145834997296,938.3592534000054,"[60, 0, 194]",194,l,0.22190620005130768,colour,0.5
162,23,0,1,15,21,721,938.8809801996686,939.4952364997007,"[70, 0, 184]",184,l,0.09133549965918064,colour,0.5
162,23,0,1,15,22,722,940.0058345999569,940.7752769999206,"[48, 0, 206]",206,a,0.24658619984984398,colour,0.5
162,23,0,1,15,23,723,941.2869877000339,941.9032584000379,"[8, 0, 246]",246,a,0.09074940020218492,colour,0.5
162,23,0,1,15,24,724,942.4121135999449,943.0152559000999,"[19, 0, 235]",235,a,0.08415970019996166,colour,0.5
162,23,0,1,15,25,725,943.5272021000274,944.3753019999713,"[29, 0, 225]",225,a,0.32547600008547306,colour,0.5
162,23,0,1,15,26,726,944.8741009999067,945.4632254000753,"[32, 0, 222]",222,a,0.06631390005350113,colour,0.5
162,23,0,1,15,27,727,945.9833935997449,946.6472344999202,"[96, 0, 158]",158,l,0.14111460000276566,colour,0.5
162,23,0,1,15,28,728,947.1569171999581,947.8072521998547,"[37, 0, 217]",217,a,0.1276452001184225,colour,0.5
162,23,0,1,15,29,729,948.3129587001167,948.9512517000549,"[53, 0, 201]",201,a,0.11582359997555614,colour,0.5
162,23,0,1,15,30,730,949.4691943996586,950.0872460999526,"[52, 0, 202]",202,a,0.09552199998870492,colour,0.5
162,23,0,1,15,31,731,950.5941554000601,951.20728519978,"[76, 0, 178]",178,l,0.10043109999969602,colour,0.5
162,23,0,1,15,32,732,951.7280806000344,952.3112814999186,"[25, 0, 229]",229,a,0.06355419987812638,colour,0.5
162,23,0,1,15,33,733,952.8294963999651,953.3673252998851,"[26, 0, 228]",228,a,0.01139840018004179,colour,0.5
162,23,0,1,15,34,734,953.8907491997816,954.5432796999812,"[50, 0, 204]",204,a,0.13112749997526407,colour,0.5
162,23,0,1,15,35,735,955.0569225000218,955.7272107000463,"[94, 0, 160]",160,l,0.14843290019780397,colour,0.5
162,23,0,1,15,36,736,956.2401680997573,956.8712283996865,"[47, 0, 207]",207,a,0.10937389964237809,colour,0.5
162,23,0,1,15,37,737,957.3808233998716,958.0232139998116,"[56, 0, 198]",198,a,0.11575220013037324,colour,0.5
162,23,0,1,15,38,738,958.5442456998862,959.2072661998682,"[84, 0, 170]",170,l,0.13550829980522394,colour,0.5
162,23,0,1,15,39,739,959.7157044997439,960.3112409999594,"[5, 0, 249]",249,a,0.07365459995344281,colour,0.5
162,23,0,1,15,40,740,960.8240358000621,961.4392317999154,"[65, 0, 189]",189,l,0.09226529998704791,colour,0.5
162,23,0,1,15,41,741,961.9489119998179,962.6392469001003,"[63, 0, 191]",191,l,0.1763134002685547,colour,0.5
162,23,0,1,15,42,742,963.1513820998371,963.7752509997226,"[97, 0, 157]",157,l,0.09335169987753034,colour,0.5
162,23,0,1,15,43,743,964.298439799808,964.8952085999772,"[95, 0, 159]",159,l,0.07309429999440908,colour,0.5
162,23,0,1,15,44,744,965.4059373000637,966.0232830001041,"[78, 0, 176]",176,l,0.09689600020647049,colour,0.5
162,23,0,1,15,45,745,966.5433644996956,967.2072576000355,"[12, 0, 242]",242,a,0.14259900012984872,colour,0.5
162,23,0,1,15,46,746,967.7154943998903,968.4792888998054,"[20, 0, 234]",234,a,0.23992760013788939,colour,0.5
162,23,0,1,15,47,747,968.9976375997066,969.5592458997853,"[7, 0, 247]",247,a,0.04359119990840554,colour,0.5
162,23,0,1,15,48,748,970.0818447996862,970.9272821000777,"[61, 0, 193]",193,a,0.31829180009663105,colour,0.5
162,23,0,1,15,49,749,971.4453320996836,972.0312104998156,"[42, 0, 212]",212,a,0.0630728998221457,colour,0.5
162,23,0,1,15,50,750,972.5287361000665,973.1352315996774,"[58, 0, 196]",196,a,0.08800549991428852,colour,0.5
162,23,0,1,16,1,751,977.8644127999432,978.6392733999528,"[60, 0, 194]",194,l,0.2512155999429524,colour,0.5
162,23,0,1,16,2,752,979.1354509997182,979.711267999839,"[78, 0, 176]",176,l,0.052796800155192614,colour,0.5
162,23,0,1,16,3,753,980.2294060997665,980.8072184999473,"[41, 0, 213]",213,a,0.05502369999885559,colour,0.5
162,23,0,1,16,4,754,981.3230526996776,981.9512573000975,"[15, 0, 239]",239,a,0.10544920014217496,colour,0.5
162,23,0,1,16,5,755,982.4656962999143,983.0952371000312,"[70, 0, 184]",184,l,0.11115940008312464,colour,0.5
162,23,0,1,16,6,756,983.6070721000433,984.2313147997484,"[77, 0, 177]",177,l,0.10328250005841255,colour,0.5
162,23,0,1,16,7,757,984.7450775001198,985.4392327996902,"[57, 0, 197]",197,l,0.17115349974483252,colour,0.5
162,23,0,1,16,8,758,985.9607363999821,986.5672026998363,"[37, 0, 217]",217,a,0.08334119990468025,colour,0.5
162,23,0,1,16,9,759,987.0833846000023,987.687233499717,"[8, 0, 246]",246,a,0.08116950001567602,colour,0.5
162,23,0,1,16,10,760,988.1971791996621,988.7672655000351,"[7, 0, 247]",247,a,0.04169460013508797,colour,0.5
162,23,0,1,16,11,761,989.2788164000958,989.8632614999078,"[35, 0, 219]",219,a,0.05519519979134202,colour,0.5
162,23,0,1,16,12,762,990.3729828000069,990.9511417998001,"[43, 0, 211]",211,a,0.06469339970499277,colour,0.5
162,23,0,1,16,13,763,991.4573511998169,992.0711790998466,"[85, 0, 169]",169,l,0.0909315999597311,colour,0.5
162,23,0,1,16,14,764,992.5716184000485,993.1271982998587,"[34, 0, 220]",220,a,0.03752420004457235,colour,0.5
162,23,0,1,16,15,765,993.6504925996996,994.5831895996816,"[51, 0, 203]",203,a,0.4046226995997131,colour,0.5
162,23,0,1,16,16,766,995.0966924997047,995.7112497999333,"[80, 0, 174]",174,l,0.09512569988146424,colour,0.5
162,23,0,1,16,17,767,996.2261846000329,996.8952552000992,"[17, 0, 237]",237,a,0.1526220003142953,colour,0.5
162,23,0,1,16,18,768,997.4150979998522,998.1272037997842,"[69, 0, 185]",185,l,0.18903389992192388,colour,0.5
162,23,0,1,16,19,769,998.646603200119,999.4952028999105,"[21, 0, 233]",233,a,0.3259503999724984,colour,0.5
162,23,0,1,16,20,770,1000.0140247996897,1000.6551987999119,"[10, 0, 244]",244,a,0.11731779994443059,colour,0.5
162,23,0,1,16,21,771,1001.1712462999858,1001.9592193998396,"[62, 0, 192]",192,a,0.26591379987075925,colour,0.5
162,23,0,1,16,22,772,1002.4680417999625,1003.1111639998853,"[68, 0, 186]",186,l,0.11943880002945662,colour,0.5
162,23,0,1,16,23,773,1003.6306976000778,1004.2631740998477,"[18, 0, 236]",236,a,0.10962689993903041,colour,0.5
162,23,0,1,16,24,774,1004.7814774997532,1005.4551757997833,"[32, 0, 222]",222,a,0.15626630000770092,colour,0.5
162,23,0,1,16,25,775,1005.9729871996678,1006.5672079999931,"[79, 0, 175]",175,l,0.07765639992430806,colour,0.5
162,23,0,1,16,26,776,1007.0860297996551,1007.6872052000836,"[55, 0, 199]",199,a,0.06974499998614192,colour,0.5
162,23,0,1,16,27,777,1008.2017528000288,1008.8392169000581,"[50, 0, 204]",204,a,0.11549800029024482,colour,0.5
162,23,0,1,16,28,778,1009.3530733999796,1010.007197599858,"[13, 0, 241]",241,a,0.13300260016694665,colour,0.5
162,23,0,1,16,29,779,1010.5261153997853,1011.2232265998609,"[67, 0, 187]",187,l,0.17148829996585846,colour,0.5
162,23,0,1,16,30,780,1011.7318496997468,1012.3991983998567,"[29, 0, 225]",225,a,0.14440419990569353,colour,0.5
162,23,0,1,16,31,781,1012.9073010999709,1013.4951511998661,"[61, 0, 193]",193,l,0.06977330008521676,colour,0.5
162,23,0,1,16,32,782,1014.003041099757,1014.6232008999214,"[20, 0, 234]",234,a,0.09515349986031651,colour,0.5
162,23,0,1,16,33,783,1015.1306453999132,1015.7672270997427,"[74, 0, 180]",180,l,0.11405819980427623,colour,0.5
162,23,0,1,16,34,784,1016.2868045996875,1016.8951771999709,"[93, 0, 161]",161,l,0.0952003002166748,colour,0.5
162,23,0,1,16,35,785,1017.402415999677,1018.0231441999786,"[81, 0, 173]",173,l,0.10074320016428828,colour,0.5
162,23,0,1,16,36,786,1018.5276087997481,1019.1431773998775,"[23, 0, 231]",231,a,0.10409810021519661,colour,0.5
162,23,0,1,16,37,787,1019.6573414998129,1020.2871729000472,"[91, 0, 163]",163,l,0.10707250004634261,colour,0.5
162,23,0,1,16,38,788,1020.7860477999784,1021.3751751999371,"[2, 0, 252]",252,a,0.06692579993978143,colour,0.5
162,23,0,1,16,39,789,1021.8946189996786,1022.6152405999601,"[65, 0, 189]",189,l,0.1977814002893865,colour,0.5
162,23,0,1,16,40,790,1023.1216363999993,1023.6552091999911,"[86, 0, 168]",168,l,0.01449269987642765,colour,0.5
162,23,0,1,16,41,791,1024.1700682998635,1024.775225199759,"[5, 0, 249]",249,a,0.0823216000571847,colour,0.5
162,23,0,1,16,42,792,1025.2971557998098,1026.0152326999232,"[71, 0, 183]",183,l,0.1951354998163879,colour,0.5
162,23,0,1,16,43,793,1026.5302015999332,1027.1111775999889,"[42, 0, 212]",212,a,0.05818659998476505,colour,0.5
162,23,0,1,16,44,794,1027.623836599756,1028.5511660999618,"[84, 0, 170]",170,l,0.3998819999396801,colour,0.5
162,23,0,1,16,45,795,1029.0657778996974,1029.7272065998986,"[40, 0, 214]",214,a,0.13856530003249645,colour,0.5
162,23,0,1,16,46,796,1030.2375946999528,1030.8711842997,"[46, 0, 208]",208,a,0.11014099977910519,colour,0.5
162,23,0,1,16,47,797,1031.3675314998254,1032.0792296999134,"[99, 0, 155]",155,l,0.19250879995524883,colour,0.5
162,23,0,1,16,48,798,1032.5997750996612,1033.2071877997369,"[12, 0, 242]",242,a,0.08307599974796176,colour,0.5
162,23,0,1,16,49,799,1033.7215632000007,1034.2391951996833,"[44, 0, 210]",210,a,0.0038493997417390347,colour,0.5
162,23,0,1,16,50,800,1034.7593837999739,1035.3671392998658,"[22, 0, 232]",232,a,0.08499519992619753,colour,0.5
