id,age,condition,counterbalance,block,trialinblock,trial,tstart,tend,trialstim,trialintensity,response,RT,trialtype,colourfreq
048,68,1,2,Practice,1,NA,5.9076701290905476e-06,0.6961086069059093,"[18, 0, 236]",236,a,0.17182033543940634,colour,0.5
048,68,1,2,Practice,2,NA,1.2061053970537614,5.128130630764645,"[61, 0, 193]",193,a,3.398792468884494,colour,0.5
048,68,1,2,Practice,3,NA,5.643840153759811,6.240067505161278,"[72, 0, 182]",182,a,0.07281814370071515,colour,0.5
048,68,1,2,Practice,4,NA,6.753323369019199,7.704081620584475,"[29, 0, 225]",225,a,0.4273974868701771,colour,0.5
048,68,1,2,Practice,5,NA,8.223633109038929,10.416046851896681,"[0, 0, 254]",254,a,1.6693109471525531,colour,0.5
048,68,1,2,Practice,6,NA,10.926622989150928,12.4161015964346,"[33, 0, 221]",221,a,0.9660823964513838,colour,0.5
048,68,1,2,Practice,7,NA,12.92686520429561,13.816047639586031,"[70, 0, 184]",184,a,0.3658760213002097,colour,0.5
048,68,1,2,Practice,8,NA,14.33629623503657,15.29606646540924,"[98, 0, 156]",156,l,0.4364858717599418,colour,0.5
048,68,1,2,Practice,9,NA,15.805103453429183,17.336109158291947,"[91, 0, 163]",163,l,1.0076539986184798,colour,0.5
048,68,1,2,Practice,10,NA,17.85230074849096,18.54404869506834,"[34, 0, 220]",220,a,0.1685183325316757,colour,0.5
048,68,1,2,1,1,1,4.168711316975532,5.719998897257028,"[3, 0, 251]",251,a,1.0272123793838546,colour,0.5
048,68,1,2,1,2,2,6.232190196024021,7.3120341543108225,"[4, 0, 250]",250,a,0.5564847689820454,colour,0.5
048,68,1,2,1,3,3,7.8260749528126325,8.376107346615754,"[94, 0, 160]",160,l,0.02661845993134193,colour,0.5
048,68,1,2,1,4,4,8.888653106580023,10.03999621910043,"[57, 0, 197]",197,a,0.6286148641374893,colour,0.5
048,68,1,2,1,5,5,10.560559103469132,11.560027017840184,"[68, 0, 186]",186,a,0.47471017876523547,colour,0.5
048,68,1,2,1,6,6,12.079336291120853,13.047988531237934,"[27, 0, 227]",227,a,0.44538560454384424,colour,0.5
048,68,1,2,1,7,7,13.563753980328329,14.528022323182086,"[84, 0, 170]",170,l,0.4409241196990479,colour,0.5
048,68,1,2,1,8,8,15.048234290996334,16.008024213660974,"[34, 0, 220]",220,a,0.4363905611098744,colour,0.5
048,68,1,2,1,9,9,16.517080106277717,17.544027033582097,"[62, 0, 192]",192,a,0.503597977978643,colour,0.5
048,68,1,2,1,10,10,18.064123604563065,19.287988688767655,"[20, 0, 234]",234,a,0.7005759994499385,colour,0.5
048,68,1,2,1,11,11,19.79876962583512,20.335955164599,"[42, 0, 212]",212,a,0.01404178308439441,colour,0.5
048,68,1,2,1,12,12,20.845607339724666,21.551988625753438,"[81, 0, 173]",173,l,0.18309653358301148,colour,0.5
048,68,1,2,1,13,13,22.06741142901592,23.007995856751222,"[90, 0, 164]",164,l,0.4174501243396662,colour,0.5
048,68,1,2,1,14,14,23.52055264438968,24.431981851608725,"[71, 0, 183]",183,l,0.38822283007903025,colour,0.5
048,68,1,2,1,15,15,24.9425816196308,25.56802326842444,"[97, 0, 157]",157,l,0.10202732108882628,colour,0.5
048,68,1,2,1,16,16,26.085095497779548,26.93603157068719,"[86, 0, 168]",168,l,0.3277151234797202,colour,0.5
048,68,1,2,1,17,17,27.444445888570044,28.152028404176235,"[17, 0, 237]",237,a,0.18422884013853036,colour,0.5
048,68,1,2,1,18,18,28.665217314264737,29.567974825389683,"[14, 0, 240]",240,a,0.37947039559367113,colour,0.5
048,68,1,2,1,19,19,30.08725416639936,30.815988168877084,"[41, 0, 213]",213,a,0.20558552065631375,colour,0.5
048,68,1,2,1,20,20,31.337323778658174,32.07196625531651,"[35, 0, 219]",219,a,0.21158851782092825,colour,0.5
048,68,1,2,1,21,21,32.5874024493387,33.231945617793826,"[18, 0, 236]",236,a,0.12149905576370656,colour,0.5
048,68,1,2,1,22,22,33.74394747673068,34.60795765373041,"[12, 0, 242]",242,a,0.34128941167728044,colour,0.5
048,68,1,2,1,23,23,35.11915291653713,36.03998322217376,"[67, 0, 187]",187,l,0.397868506697705,colour,0.5
048,68,1,2,1,24,24,36.556434356753016,37.4799664443417,"[22, 0, 232]",232,a,0.40019455979927443,colour,0.5
048,68,1,2,1,25,25,37.993998972087866,38.767973643844016,"[50, 0, 204]",204,a,0.2505461655964609,colour,0.5
048,68,1,2,1,26,26,39.275338362756884,40.18396456964547,"[8, 0, 246]",246,a,0.3852004576474428,colour,0.5
048,68,1,2,1,27,27,40.697405934886774,41.29597391167772,"[63, 0, 191]",191,l,0.07529740280006081,colour,0.5
048,68,1,2,1,28,28,41.80680919945007,42.67196192301344,"[65, 0, 189]",189,l,0.3418443403497804,colour,0.5
048,68,1,2,1,29,29,43.18192326705321,44.01597871657577,"[23, 0, 231]",231,a,0.310698623303324,colour,0.5
048,68,1,2,1,30,30,44.525753377733054,45.12796757862088,"[88, 0, 166]",166,l,0.07881365777575411,colour,0.5
048,68,1,2,1,31,31,45.63523974377313,46.47198515990749,"[47, 0, 207]",207,a,0.31333069456741214,colour,0.5
048,68,1,2,1,32,32,46.979123811324826,47.504059565253556,"[19, 0, 235]",235,a,0.0016163430409505963,colour,0.5
048,68,1,2,1,33,33,48.026054866670165,48.8479329989641,"[39, 0, 215]",215,a,0.2984834968810901,colour,0.5
048,68,1,2,1,34,34,49.3543205865426,51.20797813369427,"[29, 0, 225]",225,a,1.33056262836908,colour,0.5
048,68,1,2,1,35,35,51.72953862938448,52.672011153714266,"[37, 0, 217]",217,a,0.41907473813625984,colour,0.5
048,68,1,2,1,36,36,53.182749161613174,53.743933692137944,"[75, 0, 179]",179,l,0.03776823356747627,colour,0.5
048,68,1,2,1,37,37,54.260927546187304,55.167981520760804,"[82, 0, 172]",172,l,0.3835518192499876,colour,0.5
048,68,1,2,1,38,38,55.68298802906065,56.41596296275384,"[21, 0, 233]",233,a,0.20964016282232478,colour,0.5
048,68,1,2,1,39,39,56.93398514809087,57.59990665857913,"[74, 0, 180]",180,l,0.14284825322101824,colour,0.5
048,68,1,2,1,40,40,58.09353482484585,58.983938181976555,"[95, 0, 159]",159,l,0.3671359338914044,colour,0.5
048,68,1,2,1,41,41,59.49984896017122,60.34392542138812,"[89, 0, 165]",165,l,0.3205672166950535,colour,0.5
048,68,1,2,1,42,42,60.85953215061454,61.72799317861791,"[91, 0, 163]",163,l,0.345199512434192,colour,0.5
048,68,1,2,1,43,43,62.234523338323925,62.79995746468194,"[28, 0, 226]",226,a,0.04195875255391002,colour,0.5
048,68,1,2,1,44,44,63.303410901280586,64.43993950530421,"[73, 0, 181]",181,l,0.6132741777109914,colour,0.5
048,68,1,2,1,45,45,64.95982891341555,65.83197082392871,"[96, 0, 158]",158,l,0.34873191511724144,colour,0.5
048,68,1,2,1,46,46,66.35055660255603,66.93591105387895,"[55, 0, 199]",199,a,0.06515114815556444,colour,0.5
048,68,1,2,1,47,47,67.45697963621933,68.37592893448891,"[49, 0, 205]",205,a,0.39563185660517775,colour,0.5
048,68,1,2,1,48,48,68.89461474993732,69.51192899749731,"[16, 0, 238]",238,a,0.09394206135766581,colour,0.5
048,68,1,2,1,49,49,70.00726094056154,70.98392045893706,"[77, 0, 177]",177,l,0.4534180889604613,colour,0.5
048,68,1,2,1,50,50,71.49167114667944,72.20792890296434,"[7, 0, 247]",247,a,0.19287690546480007,colour,0.5
048,68,1,2,2,1,51,77.19446607315331,78.41593303048285,"[63, 0, 191]",191,l,0.6973823041189462,colour,0.5
048,68,1,2,2,2,52,78.9297942353005,79.63993359761662,"[51, 0, 203]",203,a,0.18675063457340002,colour,0.5
048,68,1,2,2,3,53,80.14861336752074,80.99990902162972,"[89, 0, 165]",165,l,0.327620994328754,colour,0.5
048,68,1,2,2,4,54,81.50842180094332,82.37592814679374,"[87, 0, 167]",167,l,0.344129039614927,colour,0.5
048,68,1,2,2,5,55,82.88350357318996,83.5919041064335,"[60, 0, 194]",194,a,0.18497872247826308,colour,0.5
048,68,1,2,2,6,56,84.10249914831365,85.26391762323328,"[65, 0, 189]",189,a,0.638103396340739,colour,0.5
048,68,1,2,2,7,57,85.77440199445118,86.69586245331448,"[73, 0, 181]",181,l,0.3979748450801708,colour,0.5
048,68,1,2,2,8,58,87.21204656045302,88.08800365490606,"[77, 0, 177]",177,l,0.35265107432496734,colour,0.5
048,68,1,2,2,9,59,88.60278015726362,89.18389131434378,"[34, 0, 220]",220,a,0.05777874926570803,colour,0.5
048,68,1,2,2,10,60,89.68214519912726,90.3759076668066,"[82, 0, 172]",172,l,0.1702760661719367,colour,0.5
048,68,1,2,2,11,61,90.88551848812494,91.55193112426787,"[13, 0, 241]",241,a,0.14317672056495212,colour,0.5
048,68,1,2,2,12,62,92.07299891891307,93.6079741952417,"[6, 0, 248]",248,a,1.011583397834329,colour,0.5
048,68,1,2,2,13,63,94.12008357408922,95.25588710806915,"[74, 0, 180]",180,l,0.6126609598577488,colour,0.5
048,68,1,2,2,14,64,95.77645786936046,96.77602660824778,"[24, 0, 230]",230,a,0.4762457834149245,colour,0.5
048,68,1,2,2,15,65,97.2930334591947,98.21591648895992,"[22, 0, 232]",232,a,0.39910478857927956,colour,0.5
048,68,1,2,2,16,66,98.73112976629636,99.75194805962383,"[66, 0, 188]",188,l,0.4974035717896186,colour,0.5
048,68,1,2,2,17,67,100.26242494778126,101.15988168874173,"[27, 0, 227]",227,a,0.37402626557741314,colour,0.5
048,68,1,2,2,18,68,101.6687831938325,102.53592759539606,"[94, 0, 160]",160,l,0.3437257415498607,colour,0.5
048,68,1,2,2,19,69,103.04383739686455,103.91986302044825,"[42, 0, 212]",212,a,0.3493738836841658,colour,0.5
048,68,1,2,2,20,70,104.43872252188157,105.35193663809332,"[68, 0, 186]",186,l,0.39934464063844644,colour,0.5
048,68,1,2,2,21,71,105.86669856819208,106.79193206949276,"[31, 0, 223]",223,a,0.40108268201583996,colour,0.5
048,68,1,2,2,22,72,107.30503945352393,108.51190969906747,"[62, 0, 192]",192,l,0.6821188114699908,colour,0.5
048,68,1,2,2,23,73,109.02838288899511,109.94391439369065,"[56, 0, 198]",198,a,0.39296000692411326,colour,0.5
048,68,1,2,2,24,74,110.44139043311588,111.35988956564688,"[33, 0, 221]",221,a,0.393706344650127,colour,0.5
048,68,1,2,2,25,75,111.8803370532114,112.9759096360358,"[26, 0, 228]",228,a,0.5721968519792426,colour,0.5
048,68,1,2,2,26,76,113.4898114069656,114.46391486632638,"[46, 0, 208]",208,a,0.4507450577511918,colour,0.5
048,68,1,2,2,27,77,114.9743661544926,115.92787423718255,"[2, 0, 252]",252,a,0.4301315641787369,colour,0.5
048,68,1,2,2,28,78,116.44323796359822,117.43195113164256,"[29, 0, 225]",225,a,0.465399664855795,colour,0.5
048,68,1,2,2,29,79,117.94140992846224,118.92786281564622,"[41, 0, 213]",213,a,0.4629826333548408,colour,0.5
048,68,1,2,2,30,80,119.44352547099697,120.47186779387994,"[69, 0, 185]",185,l,0.5048771890578791,colour,0.5
048,68,1,2,2,31,81,120.99058078468079,121.94389115678496,"[0, 0, 254]",254,a,0.4299984443059657,colour,0.5
048,68,1,2,2,32,82,122.46018160230597,123.65595563722309,"[43, 0, 211]",211,a,0.6726736022974364,colour,0.5
048,68,1,2,2,33,83,124.16322977159871,125.15188031815342,"[39, 0, 215]",215,a,0.4652886003314052,colour,0.5
048,68,1,2,2,34,84,125.66332803611294,126.55988208259805,"[16, 0, 238]",238,a,0.3731314479955472,colour,0.5
048,68,1,2,2,35,85,127.0697331498086,127.95188346892246,"[70, 0, 184]",184,l,0.35938189845182933,colour,0.5
048,68,1,2,2,36,86,128.46247024004697,129.3279494617309,"[12, 0, 242]",242,a,0.34215705387759954,colour,0.5
048,68,1,2,2,37,87,129.83760006146622,130.76791929313913,"[19, 0, 235]",235,a,0.4072199805814307,colour,0.5
048,68,1,2,2,38,88,131.27521430133493,131.9758974268334,"[54, 0, 200]",200,l,0.17735820077359676,colour,0.5
048,68,1,2,2,39,89,132.49398065824062,133.42385838882183,"[85, 0, 169]",169,a,0.40637911987141706,colour,0.5
048,68,1,2,2,40,90,133.9316145904304,134.81587749821483,"[38, 0, 216]",216,a,0.3608351893199142,colour,0.5
048,68,1,2,2,41,91,135.32238796565798,135.9838976158644,"[92, 0, 162]",162,l,0.13818118086783215,colour,0.5
048,68,1,2,2,42,92,136.49431542714592,137.27986404445255,"[53, 0, 201]",201,a,0.2620685173314996,colour,0.5
048,68,1,2,2,43,93,137.7923739644466,138.54384665223188,"[78, 0, 176]",176,l,0.22801267396425828,colour,0.5
048,68,1,2,2,44,94,139.05821828116314,139.7118494406459,"[61, 0, 193]",193,a,0.1303704316378571,colour,0.5
048,68,1,2,2,45,95,140.23105434482568,141.1758793099143,"[28, 0, 226]",226,a,0.4215232772694435,colour,0.5
048,68,1,2,2,46,96,141.68427236011485,142.62387808112544,"[23, 0, 231]",231,a,0.41627488858648576,colour,0.5
048,68,1,2,2,47,97,143.13757741532754,145.1278309141635,"[40, 0, 214]",214,a,1.4671853615436703,colour,0.5
048,68,1,2,2,48,98,145.63773948285962,146.23189166092197,"[86, 0, 168]",168,l,0.07101314855390228,colour,0.5
048,68,1,2,2,49,99,146.74789814362884,147.41585819979082,"[7, 0, 247]",247,a,0.14492500192136504,colour,0.5
048,68,1,2,2,50,100,147.93540141746053,148.7518787427689,"[72, 0, 182]",182,l,0.2930657545221038,colour,0.5
048,68,1,2,3,1,101,153.76326443001744,154.54389076295774,"[41, 0, 213]",213,a,0.25641525522223674,colour,0.5
048,68,1,2,3,2,102,155.0620066835836,156.40783319846378,"[30, 0, 224]",224,a,0.8225701193150599,colour,0.5
048,68,1,2,3,3,103,156.90910079106106,158.13582480166224,"[45, 0, 209]",209,a,0.7033018059737515,colour,0.5
048,68,1,2,3,4,104,158.64353374176426,159.37583795611863,"[73, 0, 181]",181,l,0.20897141270688735,colour,0.5
048,68,1,2,3,5,105,159.88486588568776,160.87208047058084,"[31, 0, 223]",223,a,0.46374196800752543,colour,0.5
048,68,1,2,3,6,106,161.38498699324555,162.23986034229165,"[74, 0, 180]",180,l,0.33146138439769857,colour,0.5
048,68,1,2,3,7,107,162.76023496838752,163.65585087426007,"[43, 0, 211]",211,a,0.3723039780452382,colour,0.5
048,68,1,2,3,8,108,164.1664277992095,165.0398268654244,"[18, 0, 236]",236,a,0.34997174158343114,colour,0.5
048,68,1,2,3,9,109,165.55924247705843,166.43184951943113,"[42, 0, 212]",212,a,0.3492742407252081,colour,0.5
048,68,1,2,3,10,110,166.94995047390694,167.63185188249918,"[34, 0, 220]",220,a,0.15856939463992603,colour,0.5
048,68,1,2,3,11,111,168.1531544092286,168.99184345419053,"[46, 0, 208]",208,a,0.31619434713502415,colour,0.5
048,68,1,2,3,12,112,169.51256978456513,170.35993840254378,"[48, 0, 206]",206,a,0.3224639778782148,colour,0.5
048,68,1,2,3,13,113,170.87362867829506,171.46381994948024,"[8, 0, 246]",246,a,0.06680805727955885,colour,0.5
048,68,1,2,3,14,114,171.98311858894886,172.85583827117807,"[88, 0, 166]",166,l,0.34941169287776574,colour,0.5
048,68,1,2,3,15,115,173.37375766277546,174.23985955462558,"[87, 0, 167]",167,l,0.34272694870014675,colour,0.5
048,68,1,2,3,16,116,174.74895758874482,175.63183731021127,"[78, 0, 176]",176,l,0.3598489995347336,colour,0.5
048,68,1,2,3,17,117,176.13965377019485,176.81583575057448,"[51, 0, 203]",203,a,0.15288344331202097,colour,0.5
048,68,1,2,3,18,118,177.32725589931943,178.21583456904045,"[70, 0, 184]",184,l,0.3651643419871107,colour,0.5
048,68,1,2,3,19,119,178.73360193616827,179.63188614707906,"[33, 0, 221]",221,a,0.37487618473824114,colour,0.5
048,68,1,2,3,20,120,180.1400279236841,180.74383326148381,"[94, 0, 160]",160,l,0.08052688688621856,colour,0.5
048,68,1,2,3,21,121,181.26506568363402,181.9679118100612,"[0, 0, 254]",254,a,0.17951844478375278,colour,0.5
048,68,1,2,3,22,122,182.48394113581162,183.31982245433028,"[72, 0, 182]",182,l,0.31251385842915624,colour,0.5
048,68,1,2,3,23,123,183.82774800961488,185.26379159258795,"[9, 0, 245]",245,a,0.9129541780275758,colour,0.5
048,68,1,2,3,24,124,185.78107925556833,186.88784414736438,"[50, 0, 204]",204,a,0.5834293332300149,colour,0.5
048,68,1,2,3,25,125,187.40617038164055,187.99185605725506,"[69, 0, 185]",185,l,0.06242809852119535,colour,0.5
048,68,1,2,3,26,126,188.4914738299558,189.29582228104118,"[35, 0, 219]",219,a,0.2809112803370226,colour,0.5
048,68,1,2,3,27,127,189.79354880636674,190.45580203738064,"[47, 0, 207]",207,a,0.13891334013896994,colour,0.5
048,68,1,2,3,28,128,190.9654742986313,191.68792094729724,"[97, 0, 157]",157,l,0.1989949056005571,colour,0.5
048,68,1,2,3,29,129,192.1999606154277,193.07182565238327,"[53, 0, 201]",201,a,0.3484562230587471,colour,0.5
048,68,1,2,3,30,130,193.59068791073514,194.44784871596494,"[59, 0, 195]",195,l,0.33382445899769664,colour,0.5
048,68,1,2,3,31,131,194.9656901260896,196.52782303723507,"[25, 0, 229]",229,a,1.0386575373122469,colour,0.5
048,68,1,2,3,32,132,197.04152315913234,198.2638034079573,"[85, 0, 169]",169,l,0.6989639887178782,colour,0.5
048,68,1,2,3,33,133,198.77791982481722,199.3518306936021,"[77, 0, 177]",177,l,0.05063281170441769,colour,0.5
048,68,1,2,3,34,134,199.87176696935785,200.44781642063754,"[4, 0, 250]",250,a,0.05280802186462097,colour,0.5
048,68,1,2,3,35,135,200.96555267393705,201.67177642165916,"[76, 0, 178]",178,l,0.18286140766576864,colour,0.5
048,68,1,2,3,36,136,202.18446554147522,203.05577761895256,"[16, 0, 238]",238,a,0.34861061061383225,colour,0.5
048,68,1,2,3,37,137,203.57504041842185,204.2957958933839,"[22, 0, 232]",232,a,0.19727419345872477,colour,0.5
048,68,1,2,3,38,138,204.8096275597636,205.66380616487004,"[57, 0, 197]",197,a,0.330836351175094,colour,0.5
048,68,1,2,3,39,139,206.18466719050775,206.9597737750155,"[86, 0, 168]",168,l,0.25247994833625853,colour,0.5
048,68,1,2,3,40,140,207.4661314302939,208.36781846862868,"[38, 0, 216]",216,a,0.37845506123267114,colour,0.5
048,68,1,2,3,41,141,208.88800365489442,209.71180887453374,"[7, 0, 247]",247,a,0.3127564674359746,colour,0.5
048,68,1,2,3,42,142,210.20810219511623,210.82382018578937,"[95, 0, 159]",159,l,0.09229736143606715,colour,0.5
048,68,1,2,3,43,143,211.33309781359276,212.12784509258927,"[12, 0, 242]",242,a,0.2712478806206491,colour,0.5
048,68,1,2,3,44,144,212.64584876719164,213.53578620476765,"[83, 0, 171]",171,l,0.3665183837292716,colour,0.5
048,68,1,2,3,45,145,214.03979417620576,214.92777932036552,"[28, 0, 226]",226,a,0.36468069939292036,colour,0.5
048,68,1,2,3,46,146,215.44614218227798,216.11980118666543,"[92, 0, 162]",162,l,0.1503632242383901,colour,0.5
048,68,1,2,3,47,147,216.63370098837186,217.7198319066374,"[90, 0, 164]",164,l,0.5626642090792302,colour,0.5
048,68,1,2,3,48,148,218.22753296981682,220.14380293534487,"[2, 0, 252]",252,a,1.3931309359904844,colour,0.5
048,68,1,2,3,49,149,220.66529765879386,221.23177232564194,"[82, 0, 172]",172,l,0.043094603723147884,colour,0.5
048,68,1,2,3,50,150,221.74355756942532,222.67977897377568,"[63, 0, 191]",191,l,0.41337460838258266,colour,0.5
048,68,1,2,4,1,151,227.71186440679594,229.5277966495778,"[6, 0, 248]",248,a,1.291786937334109,colour,0.5
048,68,1,2,4,2,152,230.04110292569385,230.93578738631913,"[7, 0, 247]",247,a,0.3713882866431959,colour,0.5
048,68,1,2,4,3,153,231.44731387341744,232.04776876527467,"[70, 0, 184]",184,l,0.07707797948387451,colour,0.5
048,68,1,2,4,4,154,232.55686167941894,233.43975006550318,"[9, 0, 245]",245,a,0.35956346135935746,colour,0.5
048,68,1,2,4,5,155,233.94753186704475,234.77578478693613,"[43, 0, 211]",211,a,0.3048236260365229,colour,0.5
048,68,1,2,4,6,156,235.29142184229568,236.39978377867374,"[66, 0, 188]",188,l,0.5849889624514617,colour,0.5
048,68,1,2,4,7,157,236.91652950987918,237.63176405488048,"[25, 0, 229]",229,a,0.19133184853126295,colour,0.5
048,68,1,2,4,8,158,238.15194333347608,239.04777939911583,"[53, 0, 201]",201,a,0.37260448234155774,colour,0.5
048,68,1,2,4,9,159,239.55817161043524,240.18378497599042,"[16, 0, 238]",238,a,0.10223724087700248,colour,0.5
048,68,1,2,4,10,160,240.70031251662294,241.6237697735196,"[38, 0, 216]",216,a,0.4001532059919555,colour,0.5
048,68,1,2,4,11,161,242.13800552565954,243.02386587188812,"[15, 0, 239]",239,a,0.3625570830190554,colour,0.5
048,68,1,2,4,12,162,243.54425034412998,244.23973667473183,"[31, 0, 223]",223,a,0.17195660606375895,colour,0.5
048,68,1,2,4,13,163,244.74757440239773,245.48778822127497,"[85, 0, 169]",169,l,0.21721263535437174,colour,0.5
048,68,1,2,4,14,164,245.99763180542504,246.95973517812672,"[89, 0, 165]",165,l,0.4387414264783729,colour,0.5
048,68,1,2,4,15,165,247.4665095222299,248.31175767458626,"[95, 0, 159]",159,l,0.3219417383952532,colour,0.5
048,68,1,2,4,16,166,248.82614111888688,249.66377544490388,"[79, 0, 175]",175,l,0.3143531181558501,colour,0.5
048,68,1,2,4,17,167,250.1854529127886,251.13577360170893,"[68, 0, 186]",186,l,0.4269374750147108,colour,0.5
048,68,1,2,4,18,168,251.6543656818685,252.43175657180836,"[46, 0, 208]",208,a,0.2543341741838958,colour,0.5
048,68,1,2,4,19,169,252.95129821411683,253.67976085687405,"[65, 0, 189]",189,a,0.20505737350322306,colour,0.5
048,68,1,2,4,20,170,254.18576956479228,255.16773654869758,"[2, 0, 252]",252,a,0.4585644715698436,colour,0.5
048,68,1,2,4,21,171,255.68592611848726,256.59975542180473,"[22, 0, 232]",232,a,0.3904937447514385,colour,0.5
048,68,1,2,4,22,172,257.109157504834,258.02375598892104,"[21, 0, 233]",233,a,0.39119282097090036,colour,0.5
048,68,1,2,4,23,173,258.53111243707826,259.39178516503307,"[14, 0, 240]",240,a,0.3373277171049267,colour,0.5
048,68,1,2,4,24,174,259.90622492926195,260.80775758007076,"[59, 0, 195]",195,a,0.3782282060419675,colour,0.5
048,68,1,2,4,25,175,261.31556301238015,262.02379182889126,"[62, 0, 192]",192,l,0.18482827339903452,colour,0.5
048,68,1,2,4,26,176,262.5344723353046,263.2561033293896,"[5, 0, 249]",249,a,0.19824187250924297,colour,0.5
048,68,1,2,4,27,177,263.76896613519057,264.63176602413296,"[42, 0, 212]",212,a,0.3394714196037967,colour,0.5
048,68,1,2,4,28,178,265.1440648427815,265.8797541614913,"[64, 0, 190]",190,l,0.21232737248647027,colour,0.5
048,68,1,2,4,29,179,266.3940261474345,267.2237248751044,"[87, 0, 167]",167,l,0.30615324931568466,colour,0.5
048,68,1,2,4,30,180,267.7380027687468,268.39173829738866,"[44, 0, 210]",210,a,0.13059964988497086,colour,0.5
048,68,1,2,4,31,181,268.9081323243154,269.7597308458062,"[94, 0, 160]",160,l,0.3266084168571979,colour,0.5
048,68,1,2,4,32,182,270.26920972877997,271.1597521134827,"[86, 0, 168]",168,l,0.36722021689638495,colour,0.5
048,68,1,2,4,33,183,271.67558491020463,272.5757316177478,"[19, 0, 235]",235,a,0.3767528597963974,colour,0.5
048,68,1,2,4,34,184,273.08197427005507,273.92777971419855,"[12, 0, 242]",242,a,0.3224281379079912,colour,0.5
048,68,1,2,4,35,185,274.44136443929165,275.00777806004044,"[26, 0, 228]",228,a,0.042991022288333625,colour,0.5
048,68,1,2,4,36,186,275.5195617284335,276.2717496401456,"[96, 0, 158]",158,l,0.22765230509685352,colour,0.5
048,68,1,2,4,37,187,276.78674866535584,277.60772567856475,"[72, 0, 182]",182,l,0.2978076575382147,colour,0.5
048,68,1,2,4,38,188,278.11490056381444,278.7597678673046,"[92, 0, 162]",162,l,0.12150378187652677,colour,0.5
048,68,1,2,4,39,189,279.2712541821529,279.9597580211703,"[51, 0, 203]",203,a,0.165303763380507,colour,0.5
048,68,1,2,4,40,190,280.4757050331682,281.2317140364903,"[84, 0, 170]",170,l,0.23268289706902578,colour,0.5
048,68,1,2,4,41,191,281.74140953461756,282.7197369898204,"[13, 0, 241]",241,a,0.4553199701476842,colour,0.5
048,68,1,2,4,42,192,283.2259000852937,283.92773875425337,"[67, 0, 187]",187,l,0.17908048830577172,colour,0.5
048,68,1,2,4,43,193,284.44465738374856,285.6237351151067,"[75, 0, 179]",179,l,0.6557248435856309,colour,0.5
048,68,1,2,4,44,194,286.13224316827836,286.6798860998242,"[93, 0, 161]",161,l,0.024132505466695875,colour,0.5
048,68,1,2,4,45,195,287.19491269424907,287.7997680248518,"[20, 0, 234]",234,a,0.08153473818674684,colour,0.5
048,68,1,2,4,46,196,288.3200670325605,289.30374842710444,"[71, 0, 183]",183,l,0.46050258658942766,colour,0.5
048,68,1,2,4,47,197,289.8200928294682,290.58374007756356,"[49, 0, 205]",205,a,0.24036722179153003,colour,0.5
048,68,1,2,4,48,198,291.1014278878283,291.8237327520328,"[32, 0, 222]",222,a,0.19897088102879934,colour,0.5
048,68,1,2,4,49,199,292.3359984876588,293.1837404714024,"[29, 0, 225]",225,a,0.32437491754535586,colour,0.5
048,68,1,2,4,50,200,293.6954457644897,294.6157164153119,"[63, 0, 191]",191,l,0.3969575414666906,colour,0.5
048,68,1,2,5,1,201,300.84209541702876,301.4717059232644,"[86, 0, 168]",168,l,0.10169452140689828,colour,0.4
048,68,1,2,5,2,202,301.9885111251788,302.60772016472765,"[51, 0, 203]",203,a,0.09596682243864052,colour,0.4
048,68,1,2,5,3,203,303.1135843312659,304.26373369726934,"[27, 0, 227]",227,a,0.6267409459978808,colour,0.4
048,68,1,2,5,4,204,304.77001573416055,305.5837129022111,"[61, 0, 193]",193,l,0.2905648339074105,colour,0.4
048,68,1,2,5,5,205,306.09815227260697,306.99975502793677,"[92, 0, 162]",162,l,0.3782632583170198,colour,0.4
048,68,1,2,5,6,206,307.52017534014885,308.4076957462821,"[69, 0, 185]",185,l,0.36427385671413504,colour,0.4
048,68,1,2,5,7,207,308.9269384596555,310.75167591220816,"[55, 0, 199]",199,a,1.3014357647334691,colour,0.4
048,68,1,2,5,8,208,311.2709501332429,312.1357031033258,"[9, 0, 245]",245,a,0.3416529312962666,colour,0.4
048,68,1,2,5,9,209,312.64741784869693,313.2157439845032,"[7, 0, 247]",247,a,0.04592359784874134,colour,0.4
048,68,1,2,5,10,210,313.72563404246466,314.4636769834615,"[60, 0, 194]",194,a,0.21453566566924565,colour,0.4
048,68,1,2,5,11,211,314.97582574689295,315.70369565175497,"[39, 0, 215]",215,a,0.2045193801750429,colour,0.4
048,68,1,2,5,12,212,316.21108715218725,316.7597406919522,"[85, 0, 169]",169,l,0.025120664475252852,colour,0.4
048,68,1,2,5,13,213,317.2737141428224,318.08773465824197,"[84, 0, 170]",170,l,0.2894982995640021,colour,0.4
048,68,1,2,5,14,214,318.60358793495107,319.7996758649533,"[89, 0, 165]",165,l,0.6729492943268269,colour,0.4
048,68,1,2,5,15,215,320.3068759563321,320.8557240559021,"[42, 0, 212]",212,a,0.025610608601709828,colour,0.4
048,68,1,2,5,16,216,321.36932138405973,322.09570018886006,"[40, 0, 214]",214,a,0.20293296940508299,colour,0.4
048,68,1,2,5,17,217,322.60382227317314,323.2716996217205,"[96, 0, 158]",158,l,0.14475919285905547,colour,0.4
048,68,1,2,5,18,218,323.7915764267673,324.56773891177727,"[28, 0, 226]",226,a,0.25335704284952953,colour,0.4
048,68,1,2,5,19,219,325.08885554329026,325.93566962642944,"[74, 0, 180]",180,l,0.3234202353924047,colour,0.4
048,68,1,2,5,20,220,326.4483922231302,327.1117206530762,"[68, 0, 186]",186,l,0.13994836682104506,colour,0.4
048,68,1,2,5,21,221,327.62028975234716,328.15169954294106,"[29, 0, 225]",225,a,0.008110071998089552,colour,0.4
048,68,1,2,5,22,222,328.6684086465102,329.3596973689273,"[76, 0, 178]",178,l,0.1678562778106425,colour,0.4
048,68,1,2,5,23,223,329.8716673263698,330.51167693620664,"[83, 0, 171]",171,l,0.11678866037982516,colour,0.4
048,68,1,2,5,24,224,331.03059078834485,331.95973202734604,"[77, 0, 177]",177,l,0.4057379389705602,colour,0.4
048,68,1,2,5,25,225,332.4682341728185,333.14368714467855,"[98, 0, 156]",156,l,0.15208314871415496,colour,0.4
048,68,1,2,5,26,226,333.6558465419512,334.23971225629793,"[54, 0, 200]",200,a,0.06054157731705345,colour,0.4
048,68,1,2,5,27,227,334.75362978104386,335.60766463246546,"[17, 0, 237]",237,a,0.3310309109801892,colour,0.4
048,68,1,2,5,28,228,336.1293220142252,337.07164763408946,"[71, 0, 183]",183,l,0.4189034152368549,colour,0.4
048,68,1,2,5,29,229,337.5825569648878,338.4957695057092,"[53, 0, 201]",201,a,0.38982932691578753,colour,0.4
048,68,1,2,5,30,230,339.00452883247635,339.92768164660083,"[19, 0, 235]",235,a,0.3998952370311599,colour,0.4
048,68,1,2,5,31,231,340.4440993042954,341.64771362688043,"[94, 0, 160]",160,l,0.6801503703172784,colour,0.4
048,68,1,2,5,32,232,342.1670264447748,342.7997002833872,"[35, 0, 219]",219,a,0.10924336320022121,colour,0.4
048,68,1,2,5,33,233,343.3077357216389,344.15165700760554,"[15, 0, 239]",239,a,0.3205770628119353,colour,0.4
048,68,1,2,5,34,234,344.66717118310044,345.5356688387401,"[62, 0, 192]",192,a,0.3450699371751398,colour,0.4
048,68,1,2,5,35,235,346.0425436134974,346.95971548583475,"[64, 0, 190]",190,l,0.39373076308402233,colour,0.4
048,68,1,2,5,36,236,347.4801897548896,348.6236484690453,"[66, 0, 188]",188,l,0.6201030694355723,colour,0.4
048,68,1,2,5,37,237,349.1365616871044,349.99167252512416,"[0, 0, 254]",254,a,0.33185995632084087,colour,0.4
048,68,1,2,5,38,238,350.51162691781064,351.28768818444223,"[70, 0, 184]",184,l,0.2512141280458309,colour,0.4
048,68,1,2,5,39,239,351.79439045477193,352.4556649790611,"[11, 0, 243]",243,a,0.1377755197463557,colour,0.4
048,68,1,2,5,40,240,352.95399487609393,353.8157672214147,"[48, 0, 206]",206,a,0.33853406668640673,colour,0.4
048,68,1,2,5,41,241,354.3291085498058,355.31969090984785,"[88, 0, 166]",166,l,0.47994517665938474,colour,0.4
048,68,1,2,5,42,242,355.83247730956646,356.4636572911695,"[13, 0, 241]",241,a,0.1078192169079557,colour,0.4
048,68,1,2,5,43,243,356.97319564488134,358.27165354177123,"[16, 0, 238]",238,a,0.7751195814344101,colour,0.4
048,68,1,2,5,44,244,358.78580776782474,359.3676640810736,"[50, 0, 204]",204,a,0.05851051467470825,colour,0.4
048,68,1,2,5,45,245,359.8796919338638,360.63167268267716,"[33, 0, 221]",221,a,0.22865424869814888,colour,0.4
048,68,1,2,5,46,246,361.1454011614551,361.8317049780162,"[43, 0, 211]",211,a,0.16305844867019914,colour,0.4
048,68,1,2,5,47,247,362.34860627830494,362.9996274219302,"[31, 0, 223]",223,a,0.12775805269484408,colour,0.4
048,68,1,2,5,48,248,363.52061132740346,364.14365800010273,"[67, 0, 187]",187,l,0.0999466338835191,colour,0.4
048,68,1,2,5,49,249,364.6612599520013,365.4396260040812,"[52, 0, 202]",202,a,0.2549529059033375,colour,0.4
048,68,1,2,5,50,250,365.9459241886507,366.85567206828273,"[97, 0, 157]",157,l,0.3864261056878604,colour,0.4
048,68,1,2,6,1,251,380.0882734392653,381.1756181901728,"[15, 0, 239]",239,a,0.5632427684904542,colour,0.28
048,68,1,2,6,2,252,381.68483752879547,382.2156640338071,"[76, 0, 178]",178,l,0.007485038775485009,colour,0.28
048,68,1,2,6,3,253,382.73175440565683,383.42364610594814,"[74, 0, 180]",180,l,0.16846673871623352,colour,0.28
048,68,1,2,6,4,254,383.93499339325354,384.8636817096267,"[61, 0, 193]",193,a,0.4057568435673602,colour,0.28
048,68,1,2,6,5,255,385.3756784485886,386.2956348104635,"[30, 0, 224]",224,a,0.3966050494927913,colour,0.28
048,68,1,2,6,6,256,386.813295839238,387.6556212621799,"[20, 0, 234]",234,a,0.3188732860435266,colour,0.28
048,68,1,2,6,7,257,388.1728785990272,389.03163487347774,"[63, 0, 191]",191,l,0.33549357735319063,colour,0.28
048,68,1,2,6,8,258,389.5363864257233,390.30376851322944,"[96, 0, 158]",158,l,0.24472985134343617,colour,0.28
048,68,1,2,6,9,259,390.81706415553344,391.65559605605085,"[80, 0, 174]",174,l,0.31523848345386796,colour,0.28
048,68,1,2,6,10,260,392.1765378200507,392.72760996667785,"[6, 0, 248]",248,a,0.027637732797302306,colour,0.28
048,68,1,2,6,11,261,393.2391612660722,393.8876129598939,"[89, 0, 165]",165,l,0.12512440601130947,colour,0.28
048,68,1,2,6,12,262,394.3953931860742,395.51967909449013,"[95, 0, 159]",159,l,0.6009121467941441,colour,0.28
048,68,1,2,6,13,263,396.0393333766842,396.623642167513,"[11, 0, 243]",243,a,0.06099883225397207,colour,0.28
048,68,1,2,6,14,264,397.13310253972304,397.6876046891557,"[66, 0, 188]",188,l,0.03105119406245649,colour,0.28
048,68,1,2,6,15,265,398.1957437088131,398.89562811507494,"[50, 0, 204]",204,a,0.17649213390541263,colour,0.28
048,68,1,2,6,16,266,399.4068324363616,400.14365366779384,"[45, 0, 209]",209,a,0.2258654268225655,colour,0.28
048,68,1,2,6,17,267,400.65995947329793,401.3436229478393,"[9, 0, 245]",245,a,0.1601928269083146,colour,0.28
048,68,1,2,6,18,268,401.8631878270244,402.4396137948497,"[54, 0, 200]",200,a,0.052971073979279026,colour,0.28
048,68,1,2,6,19,269,402.9571452483651,404.3836097146268,"[47, 0, 207]",207,a,0.9031033077335451,colour,0.28
048,68,1,2,6,20,270,404.8954351306602,405.8236201121472,"[90, 0, 164]",164,l,0.40564538520993665,colour,0.28
048,68,1,2,6,21,271,406.3353833005531,407.11160446857684,"[79, 0, 175]",175,l,0.25290451405453496,colour,0.28
048,68,1,2,6,22,272,407.6323603373894,408.29560054588364,"[88, 0, 166]",166,l,0.13986565920640714,colour,0.28
048,68,1,2,6,23,273,408.80716602373286,409.84762461774517,"[97, 0, 157]",157,l,0.5170761678018607,colour,0.28
048,68,1,2,6,24,274,410.3541618666786,410.87957929397817,"[0, 0, 254]",254,a,0.0022185332200024277,colour,0.28
048,68,1,2,6,25,275,411.4011535742611,412.1036015226273,"[23, 0, 231]",231,a,0.17912105441791937,colour,0.28
048,68,1,2,6,26,276,412.6199707372871,413.35168772758334,"[69, 0, 185]",185,l,0.20842239170451649,colour,0.28
048,68,1,2,6,27,277,413.87012108790805,414.6396287609823,"[52, 0, 202]",202,a,0.24461996837635525,colour,0.28
048,68,1,2,6,28,278,415.15309966466157,416.0235945121676,"[67, 0, 187]",187,l,0.34711714746663347,colour,0.28
048,68,1,2,6,29,279,416.54384743992705,417.3436580001144,"[68, 0, 186]",186,l,0.27643640476162545,colour,0.28
048,68,1,2,6,30,280,417.8564991443709,418.47958992779604,"[70, 0, 184]",184,l,0.09984974784310907,colour,0.28
048,68,1,2,6,31,281,418.997124532063,420.5115694163251,"[56, 0, 198]",198,a,0.9910522180434782,colour,0.28
048,68,1,2,6,32,282,421.0286128949083,421.7756240978488,"[65, 0, 189]",189,a,0.22371502895839512,colour,0.28
048,68,1,2,6,33,283,422.294258713373,422.8476092577621,"[71, 0, 183]",183,a,0.03000159509247169,colour,0.28
048,68,1,2,6,34,284,423.35691012244206,424.1996605049644,"[53, 0, 201]",201,a,0.3192809163883794,colour,0.28
048,68,1,2,6,35,285,424.7163956023287,425.35962568898685,"[78, 0, 176]",176,l,0.1198823188606184,colour,0.28
048,68,1,2,6,36,286,425.87562902094214,426.4235937244666,"[55, 0, 199]",199,a,0.02442001286544837,colour,0.28
048,68,1,2,6,37,287,426.9382745223411,427.6715712280129,"[81, 0, 173]",173,l,0.2101868207391817,colour,0.28
048,68,1,2,6,38,288,428.19058236005367,428.7196038699476,"[51, 0, 203]",203,a,0.01818031442235224,colour,0.28
048,68,1,2,6,39,289,429.2406582738331,429.85555982223013,"[86, 0, 168]",168,l,0.09155574985197745,colour,0.28
048,68,1,2,6,40,290,430.35997030403814,432.1276060282253,"[32, 0, 222]",222,a,1.2442458149162121,colour,0.28
048,68,1,2,6,41,291,432.64138964540325,433.23159115659655,"[18, 0, 236]",236,a,0.06678600193117745,colour,0.28
048,68,1,2,6,42,292,433.7509354821814,434.6796336446714,"[57, 0, 197]",197,a,0.4057269112672657,colour,0.28
048,68,1,2,6,43,293,435.18850600518635,435.81556399699184,"[85, 0, 169]",169,l,0.10384255621465854,colour,0.28
048,68,1,2,6,44,294,436.32918456205516,437.5596225382178,"[28, 0, 226]",226,a,0.7070244361530058,colour,0.28
048,68,1,2,6,45,295,438.0793701618677,439.18361640998046,"[73, 0, 181]",181,l,0.5807822958449833,colour,0.28
048,68,1,2,6,46,296,439.69069243993727,441.11161431472283,"[14, 0, 240]",240,a,0.8975110916653648,colour,0.28
048,68,1,2,6,47,297,441.62838761514286,442.8075665648794,"[62, 0, 192]",192,l,0.655814246594673,colour,0.28
048,68,1,2,6,48,298,443.3035865564889,444.0395799241087,"[83, 0, 171]",171,l,0.21277675047167577,colour,0.28
048,68,1,2,6,49,299,444.5537164271227,445.87957929397817,"[58, 0, 196]",196,a,0.8030932646652218,colour,0.28
048,68,1,2,6,50,300,446.3975916331401,447.2955666751368,"[99, 0, 155]",155,l,0.37460797576932237,colour,0.28
048,68,1,2,7,1,301,452.0410442426801,453.09556431206875,"[92, 0, 162]",162,l,0.5303334101336077,colour,0.14
048,68,1,2,7,2,302,453.60717390064383,454.1440849289065,"[59, 0, 195]",195,a,0.01354356820229441,colour,0.14
048,68,1,2,7,3,303,454.6541608820844,455.2875613661017,"[99, 0, 155]",155,l,0.11028508524759673,colour,0.14
048,68,1,2,7,4,304,455.782485678792,456.359576458286,"[7, 0, 247]",247,a,0.05372568249003962,colour,0.14
048,68,1,2,7,5,305,456.8763080110366,457.5435280310048,"[62, 0, 192]",192,a,0.14379545225529,colour,0.14
048,68,1,2,7,6,306,458.063849487924,458.7995490466128,"[71, 0, 183]",183,a,0.2122765663661994,colour,0.14
048,68,1,2,7,7,307,459.31400259546353,459.9115544501692,"[64, 0, 190]",190,a,0.072655485389987,colour,0.14
048,68,1,2,7,8,308,460.4250257476815,460.99154216219904,"[46, 0, 208]",208,a,0.04311272062477656,colour,0.14
048,68,1,2,7,9,309,461.50315529535874,462.23154113820055,"[65, 0, 189]",189,a,0.20502113967086188,colour,0.14
048,68,1,2,7,10,310,462.73772077518515,463.47156453263597,"[82, 0, 172]",172,l,0.21065392182208598,colour,0.14
048,68,1,2,7,11,311,463.9877884181915,464.9116399147024,"[50, 0, 204]",204,a,0.40067662703222595,colour,0.14
048,68,1,2,7,12,312,465.42534633813193,466.6475730239472,"[68, 0, 186]",186,l,0.6988422903814353,colour,0.14
048,68,1,2,7,13,313,467.15986947953934,468.07152869267156,"[58, 0, 196]",196,a,0.38820983315235935,colour,0.14
048,68,1,2,7,14,314,468.58192720549414,469.5435213356104,"[69, 0, 185]",185,l,0.4386027927394025,colour,0.14
048,68,1,2,7,15,315,470.0508226453676,470.7995608619822,"[75, 0, 179]",179,l,0.22543180265347473,colour,0.14
048,68,1,2,7,16,316,471.3164468022878,471.92757845899905,"[89, 0, 165]",165,l,0.08765825213049538,colour,0.14
048,68,1,2,7,17,317,472.44159129445325,473.2635442574392,"[73, 0, 181]",181,l,0.29868672127486207,colour,0.14
048,68,1,2,7,18,318,473.7599864517106,475.2395440841501,"[60, 0, 194]",194,a,0.9560042771627195,colour,0.14
048,68,1,2,7,19,319,475.76004277166794,476.6155037386052,"[96, 0, 158]",158,l,0.33196944545488805,colour,0.14
048,68,1,2,7,20,320,477.1352553006727,477.7915988759778,"[83, 0, 171]",171,l,0.1333408163918648,colour,0.14
048,68,1,2,7,21,321,478.30725050365436,478.89552374594496,"[88, 0, 166]",166,l,0.0649577698786743,colour,0.14
048,68,1,2,7,22,322,479.41669906050083,480.0475442731986,"[76, 0, 178]",178,a,0.10752934642368928,colour,0.14
048,68,1,2,7,23,323,480.5574394511641,481.75958236595034,"[91, 0, 163]",163,l,0.6788550115888938,colour,0.14
048,68,1,2,7,24,324,482.2781094615639,482.8395547179971,"[53, 0, 201]",201,a,0.0381179686228279,colour,0.14
048,68,1,2,7,25,325,483.35633747070096,484.02351377377636,"[44, 0, 210]",210,a,0.14421765491715632,colour,0.14
048,68,1,2,7,26,326,484.54393841829733,485.2876011445187,"[77, 0, 177]",177,l,0.22028108770609833,colour,0.14
048,68,1,2,7,27,327,485.79390917523415,486.328059738531,"[56, 0, 198]",198,a,0.011004838394001126,colour,0.14
048,68,1,2,7,28,328,486.84416940883966,487.7675077243184,"[79, 0, 175]",175,l,0.399812529416522,colour,0.14
048,68,1,2,7,29,329,488.2818187009834,489.2395302995574,"[98, 0, 156]",156,l,0.4342673385690432,colour,0.14
048,68,1,2,7,30,330,489.74143158999505,490.3596142674796,"[52, 0, 202]",202,a,0.09518306938116439,colour,0.14
048,68,1,2,7,31,331,490.86654142371845,491.4954969644605,"[66, 0, 188]",188,a,0.10566960673895665,colour,0.14
048,68,1,2,7,32,332,492.0092620709038,492.6635363805399,"[85, 0, 169]",169,l,0.13086273884982802,colour,0.14
048,68,1,2,7,33,333,493.18240533425706,493.91954715613974,"[61, 0, 193]",193,a,0.2262604541319888,colour,0.14
048,68,1,2,7,34,334,494.4356580079766,495.1115461794252,"[25, 0, 229]",229,a,0.1525179544405546,colour,0.14
048,68,1,2,7,35,335,495.623314093973,496.575513821037,"[16, 0, 238]",238,a,0.42894372533191927,colour,0.14
048,68,1,2,7,36,336,497.09425792566617,498.06348754366627,"[93, 0, 161]",161,l,0.44575069958227687,colour,0.14
048,68,1,2,7,37,337,498.5807889912394,499.63952045340557,"[72, 0, 182]",182,l,0.5353773928654846,colour,0.14
048,68,1,2,7,38,338,500.1590049880615,501.0715322372853,"[87, 0, 167]",167,l,0.38914600454154424,colour,0.14
048,68,1,2,7,39,339,501.5815999196784,502.3115036440722,"[80, 0, 174]",174,l,0.2064972736116033,colour,0.14
048,68,1,2,7,40,340,502.8330196352035,503.75152900774265,"[94, 0, 160]",160,l,0.3951517586247064,colour,0.14
048,68,1,2,7,41,341,504.2706677458191,505.93563851260114,"[32, 0, 222]",222,a,1.1418569433735684,colour,0.14
048,68,1,2,7,42,342,506.44255661041825,506.99954235123005,"[27, 0, 227]",227,a,0.0334587731922511,colour,0.14
048,68,1,2,7,43,343,507.52088898868533,508.4794914663653,"[63, 0, 191]",191,a,0.4355233127134852,colour,0.14
048,68,1,2,7,44,344,508.98972968396265,509.7194805962208,"[81, 0, 173]",173,l,0.20642283675260842,colour,0.14
048,68,1,2,7,45,345,510.23986900690943,511.4394787057536,"[67, 0, 187]",187,a,0.6762335741659626,colour,0.14
048,68,1,2,7,46,346,511.95877261908026,513.7995269912353,"[70, 0, 184]",184,a,1.317247490689624,colour,0.14
048,68,1,2,7,47,347,514.3183675880719,515.2395952841034,"[78, 0, 176]",176,l,0.39795712201157585,colour,0.14
048,68,1,2,7,48,348,515.7559889171971,518.0235326783732,"[55, 0, 199]",199,a,1.7445918083831202,colour,0.14
048,68,1,2,7,49,349,518.5374671385216,519.1035073934763,"[97, 0, 157]",157,l,0.043385261902585626,colour,0.14
048,68,1,2,7,50,350,519.6082813949324,520.167469521286,"[51, 0, 203]",203,a,0.03611644444754347,colour,0.14
048,68,1,2,8,1,351,525.5297839952982,526.1674655828101,"[54, 0, 200]",200,a,0.11348232519230805,colour,0.06
048,68,1,2,8,2,352,526.6869327882596,527.5915008083684,"[69, 0, 185]",185,a,0.3813447075954173,colour,0.06
048,68,1,2,8,3,353,528.1093359169608,529.6235413429968,"[65, 0, 189]",189,a,0.990106988203479,colour,0.06
048,68,1,2,8,4,354,530.1414091407787,531.6875519138121,"[98, 0, 156]",156,l,1.0227650729648303,colour,0.06
048,68,1,2,8,5,355,532.2040321929671,532.9594988706522,"[78, 0, 176]",176,l,0.23226463282480836,colour,0.06
048,68,1,2,8,6,356,533.458291142626,534.0075200910796,"[62, 0, 192]",192,a,0.025806349993217736,colour,0.06
048,68,1,2,8,7,357,534.5210847300186,535.2554857792275,"[92, 0, 162]",162,l,0.21175314535503276,colour,0.06
048,68,1,2,8,8,358,535.7710610008216,536.4314942705387,"[57, 0, 197]",197,a,0.1357999893662054,colour,0.06
048,68,1,2,8,9,359,536.9443098148331,537.7274524283712,"[97, 0, 157]",157,l,0.2596573935588822,colour,0.06
048,68,1,2,8,10,360,538.2426834287471,539.0234834476723,"[66, 0, 188]",188,a,0.25745382651803084,colour,0.06
048,68,1,2,8,11,361,539.5412236394186,540.0794701986888,"[51, 0, 203]",203,a,0.014884613046888262,colour,0.06
048,68,1,2,8,12,362,540.5881334270816,541.3354573435499,"[67, 0, 187]",187,a,0.2231793987157289,colour,0.06
048,68,1,2,8,13,363,541.8547012384515,542.4394889457617,"[89, 0, 165]",165,l,0.061543914809590206,colour,0.06
048,68,1,2,8,14,364,542.9485794967914,544.2794717740617,"[58, 0, 196]",196,a,0.8133143499435391,colour,0.06
048,68,1,2,8,15,365,544.7865080256015,545.7595154121809,"[76, 0, 178]",178,l,0.44970924337394536,colour,0.06
048,68,1,2,8,16,366,546.2710438685317,547.7754736487695,"[43, 0, 211]",211,a,0.9813596737221815,colour,0.06
048,68,1,2,8,17,367,548.2868508683459,548.8714475604356,"[68, 0, 186]",186,a,0.06142497336259112,colour,0.06
048,68,1,2,8,18,368,549.3824703188147,550.0955650997639,"[55, 0, 199]",199,a,0.18970447781612165,colour,0.06
048,68,1,2,8,19,369,550.6169397002668,551.4474414794531,"[70, 0, 184]",184,a,0.30706815305165946,colour,0.06
048,68,1,2,8,20,370,551.9607430294272,552.5274524283595,"[50, 0, 204]",204,a,0.04324111432651989,colour,0.06
048,68,1,2,8,21,371,553.0390104231483,553.7274725144962,"[56, 0, 198]",198,a,0.16507887744228356,colour,0.06
048,68,1,2,8,22,372,554.2421399216109,554.8555251638172,"[93, 0, 161]",161,l,0.08959597334614955,colour,0.06
048,68,1,2,8,23,373,555.3677310348721,556.2714570127428,"[77, 0, 177]",177,l,0.3803813608537894,colour,0.06
048,68,1,2,8,24,374,556.790669793816,557.6635084174923,"[94, 0, 160]",160,l,0.34942468980443664,colour,0.06
048,68,1,2,8,25,375,558.1814014214033,559.7434335080034,"[24, 0, 230]",230,a,1.0386343004065566,colour,0.06
048,68,1,2,8,26,376,560.2597956334357,561.1594512153242,"[85, 0, 169]",169,l,0.3763322325248737,colour,0.06
048,68,1,2,8,27,377,561.6661404887273,562.5835262192995,"[84, 0, 170]",170,l,0.3940655319893267,colour,0.06
048,68,1,2,8,28,378,563.1037125871226,563.7114595333405,"[61, 0, 193]",193,a,0.08458467977470718,colour,0.06
048,68,1,2,8,29,379,564.2294923525187,564.9674234413251,"[72, 0, 182]",182,a,0.21464397327508777,colour,0.06
048,68,1,2,8,30,380,565.4794831956096,566.151470324723,"[83, 0, 171]",171,l,0.14850466608186252,colour,0.06
048,68,1,2,8,31,381,566.6671471585287,567.5994600374543,"[80, 0, 174]",174,l,0.4074972480011638,colour,0.06
048,68,1,2,8,32,382,568.106281643064,568.7833974317473,"[81, 0, 173]",173,l,0.15387632849160582,colour,0.06
048,68,1,2,8,33,383,569.2938089414965,570.7674100505537,"[59, 0, 195]",195,a,0.9502403443621006,colour,0.06
048,68,1,2,8,34,384,571.278393424378,572.1034238981665,"[96, 0, 158]",158,l,0.30180401052348316,colour,0.06
048,68,1,2,8,35,385,572.6221577628166,573.199479335919,"[73, 0, 181]",181,a,0.05389818694675341,colour,0.06
048,68,1,2,8,36,386,573.7160084519419,574.5914216453966,"[26, 0, 228]",228,a,0.35201186264748685,colour,0.06
048,68,1,2,8,37,387,575.1068302702042,575.7834281517135,"[90, 0, 164]",164,l,0.15336747976834886,colour,0.06
048,68,1,2,8,38,388,576.2943118825497,577.1834364224633,"[75, 0, 179]",179,l,0.3656204153667204,colour,0.06
048,68,1,2,8,39,389,577.7014302509197,578.2474592025101,"[64, 0, 190]",190,a,0.02266542997676879,colour,0.06
048,68,1,2,8,40,390,578.7658677505387,579.6474091841083,"[87, 0, 167]",167,l,0.35823226266074926,colour,0.06
048,68,1,2,8,41,391,580.1565788981388,581.039441684261,"[88, 0, 166]",166,l,0.35942955379141495,colour,0.06
048,68,1,2,8,42,392,581.547374722606,582.4714664650382,"[74, 0, 180]",180,a,0.40070813469355926,colour,0.06
048,68,1,2,8,43,393,582.9849692702119,583.8954363121884,"[71, 0, 183]",183,a,0.3870735880918801,colour,0.06
048,68,1,2,8,44,394,584.4093447785126,586.623438155395,"[52, 0, 202]",202,a,1.6906688091985416,colour,0.06
048,68,1,2,8,45,395,587.143908486003,588.5273968961264,"[99, 0, 155]",155,l,0.8600425747281406,colour,0.06
048,68,1,2,8,46,396,589.034705295082,589.8794434171868,"[63, 0, 191]",191,a,0.32138011435745284,colour,0.06
048,68,1,2,8,47,397,590.3942140118743,591.2074125711806,"[86, 0, 168]",168,l,0.28983149307896383,colour,0.06
048,68,1,2,8,48,398,591.7100751654652,592.5354159897543,"[60, 0, 194]",194,a,0.30203125954722054,colour,0.06
048,68,1,2,8,49,399,593.0539214238524,593.8553963762242,"[82, 0, 172]",172,l,0.27831504904315807,colour,0.06
048,68,1,2,8,50,400,594.3540622237197,595.1594008030661,"[53, 0, 201]",201,a,0.28208612225716934,colour,0.06
048,68,1,2,9,1,401,599.8099611471407,601.1594039538177,"[80, 0, 174]",174,l,0.8255523194384295,colour,0.06
048,68,1,2,9,2,402,601.6703892968653,602.463445402158,"[71, 0, 183]",183,a,0.2698934450163506,colour,0.06
048,68,1,2,9,3,403,602.9828669214912,603.7033687597723,"[26, 0, 228]",228,a,0.19702961522853002,colour,0.06
048,68,1,2,9,4,404,604.2049088936474,604.9994092313573,"[57, 0, 197]",197,a,0.2698241281614173,colour,0.06
048,68,1,2,9,5,405,605.5092469078372,606.0954843613727,"[58, 0, 196]",196,a,0.06274002438294701,colour,0.06
048,68,1,2,9,6,406,606.6030928708205,607.4554054346809,"[87, 0, 167]",167,l,0.32896479609189555,colour,0.06
048,68,1,2,9,7,407,607.9625559014967,608.7754677410994,"[73, 0, 181]",181,l,0.28949121036566794,colour,0.06
048,68,1,2,9,8,408,609.2907656952739,610.1354065374471,"[93, 0, 161]",161,l,0.32122887755394913,colour,0.06
048,68,1,2,9,9,409,610.6502956797194,611.9514313339896,"[55, 0, 199]",199,a,0.7778725633397698,colour,0.06
048,68,1,2,9,10,410,612.463032651809,613.3994045052095,"[77, 0, 177]",177,l,0.41304023331031203,colour,0.06
048,68,1,2,9,11,411,613.9161372395174,615.2874077662709,"[64, 0, 190]",190,a,0.8464871911564842,colour,0.06
048,68,1,2,9,12,412,615.8084472040064,617.7913739900396,"[60, 0, 194]",194,a,1.459579018264776,colour,0.06
048,68,1,2,9,13,413,618.3093642738822,619.3114299949084,"[99, 0, 155]",155,l,0.4786691163899377,colour,0.06
048,68,1,2,9,14,414,619.8249962092377,620.8473965810263,"[69, 0, 185]",185,a,0.49897383485222235,colour,0.06
048,68,1,2,9,15,415,621.3564048183325,622.2633882945229,"[53, 0, 201]",201,a,0.38365067457198165,colour,0.06
048,68,1,2,9,16,416,622.7783802305348,623.7194136424514,"[92, 0, 162]",162,l,0.41768131183926016,colour,0.06
048,68,1,2,9,17,417,624.2335017024016,625.1113650103507,"[83, 0, 171]",171,l,0.35305594775127247,colour,0.06
048,68,1,2,9,18,418,625.6259481344605,626.4474202117708,"[51, 0, 203]",203,a,0.2983614046825096,colour,0.06
048,68,1,2,9,19,419,626.9538735715905,627.9193805593823,"[76, 0, 178]",178,l,0.4423199090815615,colour,0.06
048,68,1,2,9,20,420,628.4386264235072,629.3673730290611,"[97, 0, 157]",157,l,0.40557094835094176,colour,0.06
048,68,1,2,9,21,421,629.8763013156422,630.471385332814,"[36, 0, 218]",218,a,0.07174727704841644,colour,0.06
048,68,1,2,9,22,422,630.9856348695466,631.8475076455506,"[94, 0, 160]",160,l,0.33847577750566415,colour,0.06
048,68,1,2,9,23,423,632.3607402725029,632.9994151390565,"[72, 0, 182]",182,a,0.11528810803429224,colour,0.06
048,68,1,2,9,24,424,633.5171017677931,634.2234440630709,"[98, 0, 156]",156,l,0.18084137269761413,colour,0.06
048,68,1,2,9,25,425,634.738172910118,635.4633445776417,"[63, 0, 191]",191,a,0.2020763548789546,colour,0.06
048,68,1,2,9,26,426,635.9726411100419,636.8873900432081,"[79, 0, 175]",175,l,0.391435036144685,colour,0.06
048,68,1,2,9,27,427,637.3945030946634,638.2793815833866,"[82, 0, 172]",172,l,0.3612719642696902,colour,0.06
048,68,1,2,9,28,428,638.8009771313518,639.6633938083542,"[62, 0, 192]",192,a,0.33912247224361636,colour,0.06
048,68,1,2,9,29,429,640.1761179804453,641.0153729818121,"[90, 0, 164]",164,l,0.315927713556448,colour,0.06
048,68,1,2,9,30,430,641.5355097250431,642.0634095621936,"[61, 0, 193]",193,a,0.00454931243439205,colour,0.06
048,68,1,2,9,31,431,642.5843083969958,643.3833990071143,"[25, 0, 229]",229,a,0.2757719869259745,colour,0.06
048,68,1,2,9,32,432,643.8969388337864,645.871404631238,"[75, 0, 179]",179,l,1.451100306614535,colour,0.06
048,68,1,2,9,33,433,646.3815380858723,647.3353888143902,"[65, 0, 189]",189,a,0.430539982218761,colour,0.06
048,68,1,2,9,34,434,647.8504441595869,648.6793721310969,"[95, 0, 159]",159,l,0.305571932985913,colour,0.06
048,68,1,2,9,35,435,649.1948819742829,650.1033770305221,"[84, 0, 170]",170,l,0.38516067920136265,colour,0.06
048,68,1,2,9,36,436,650.6172579276317,651.6633796299284,"[89, 0, 165]",165,l,0.5228712144016754,colour,0.06
048,68,1,2,9,37,437,652.1797775953019,653.0553782593342,"[88, 0, 166]",166,l,0.3519472719344776,colour,0.06
048,68,1,2,9,38,438,653.5707983056782,654.3913861992769,"[59, 0, 195]",195,a,0.2974256271554623,colour,0.06
048,68,1,2,9,39,439,654.8866515823756,655.6713888774102,"[74, 0, 180]",180,a,0.2584258378483355,colour,0.06
048,68,1,2,9,40,440,656.1905339170189,657.0314214090758,"[91, 0, 163]",163,l,0.3174916750867851,colour,0.06
048,68,1,2,9,41,441,657.5500658707169,658.2153473818325,"[81, 0, 173]",173,l,0.14195343561004847,colour,0.06
048,68,1,2,9,42,442,658.7219248030451,659.5513722571195,"[67, 0, 187]",187,a,0.30666012881556526,colour,0.06
048,68,1,2,9,43,443,660.0658466797904,661.5033723043744,"[52, 0, 202]",202,a,0.9141707675880753,colour,0.06
048,68,1,2,9,44,444,662.0193334948272,662.9353285559919,"[54, 0, 200]",200,a,0.3926646226027515,colour,0.06
048,68,1,2,9,45,445,663.4569162270636,664.1753720365814,"[56, 0, 198]",198,a,0.19511985711869784,colour,0.06
048,68,1,2,9,46,446,664.6913777315931,665.5353533682937,"[70, 0, 184]",184,a,0.3206373212451581,colour,0.06
048,68,1,2,9,47,447,666.0508663622313,666.7353636082844,"[68, 0, 186]",186,a,0.16109709677402861,colour,0.06
048,68,1,2,9,48,448,667.2540565129311,668.1193435378955,"[50, 0, 204]",204,a,0.341975884832209,colour,0.06
048,68,1,2,9,49,449,668.6291264698084,669.5193210886791,"[96, 0, 158]",158,l,0.3668527588015422,colour,0.06
048,68,1,2,9,50,450,670.0355603342177,670.9913212147076,"[78, 0, 176]",176,l,0.4324517095810734,colour,0.06
048,68,1,2,10,1,451,676.95952250142,678.0713388590084,"[81, 0, 173]",173,l,0.587763605901273,colour,0.06
048,68,1,2,10,2,452,678.5853619344125,679.4233404816478,"[90, 0, 164]",164,l,0.3146099056175444,colour,0.06
048,68,1,2,10,3,453,679.9456213212397,680.6073503435473,"[68, 0, 186]",186,a,0.13878022026619874,colour,0.06
048,68,1,2,10,4,454,681.1168264696025,681.9753543135012,"[77, 0, 177]",177,a,0.3356105495477095,colour,0.06
048,68,1,2,10,5,455,682.4918688572361,683.4073700358276,"[47, 0, 207]",207,a,0.39202383553492837,colour,0.06
048,68,1,2,10,6,456,683.913906890928,684.695382749167,"[69, 0, 185]",185,a,0.25813124122214504,colour,0.06
048,68,1,2,10,7,457,685.2108878662111,686.7752956305048,"[59, 0, 195]",195,a,1.041063934972044,colour,0.06
048,68,1,2,10,8,458,687.2891489583999,688.2313201907091,"[76, 0, 178]",178,l,0.4188380368286744,colour,0.06
048,68,1,2,10,9,459,688.7424406228529,689.8233747462218,"[71, 0, 183]",183,a,0.5579293952614535,colour,0.06
048,68,1,2,10,10,460,690.3363269550027,691.1833580471575,"[94, 0, 160]",160,l,0.32374003814766183,colour,0.06
048,68,1,2,10,11,461,691.6957277580805,692.6153851910203,"[87, 0, 167]",167,l,0.39629588057869114,colour,0.06
048,68,1,2,10,12,462,693.1333845332847,693.6792973004049,"[55, 0, 199]",199,a,0.022120347450254485,colour,0.06
048,68,1,2,10,13,463,694.1964242742979,694.9433259881334,"[86, 0, 168]",168,l,0.22353543530334719,colour,0.06
048,68,1,2,10,14,464,695.4622122710571,696.0393042320793,"[67, 0, 187]",187,a,0.05386313464259729,colour,0.06
048,68,1,2,10,15,465,696.5559400803177,697.2873096986732,"[82, 0, 172]",172,l,0.20793126604985446,colour,0.06
048,68,1,2,10,16,466,697.8079804967856,698.399342277582,"[58, 0, 196]",196,a,0.06800022843526676,colour,0.06
048,68,1,2,10,17,467,698.9174471705337,699.4472902426787,"[98, 0, 156]",156,l,0.004773016844410449,colour,0.06
048,68,1,2,10,18,468,699.9659709381231,700.6073223804997,"[75, 0, 179]",179,a,0.11796350232907571,colour,0.06
048,68,1,2,10,19,469,701.122296593443,701.8072932359064,"[51, 0, 203]",203,a,0.1616236685658805,colour,0.06
048,68,1,2,10,20,470,702.3254895010614,703.1592956462409,"[93, 0, 161]",161,l,0.3103425867448095,colour,0.06
048,68,1,2,10,21,471,703.6695385900093,704.2153532895027,"[63, 0, 191]",191,a,0.02230899955611676,colour,0.06
048,68,1,2,10,22,472,704.7322766451689,705.4793071465392,"[61, 0, 193]",193,a,0.22356221679365262,colour,0.06
048,68,1,2,10,23,473,705.9980863034434,706.7833159056609,"[7, 0, 247]",247,a,0.26234184630448,colour,0.06
048,68,1,2,10,24,474,707.2917314050719,708.1673289183236,"[52, 0, 202]",202,a,0.35219775783480145,colour,0.06
048,68,1,2,10,25,475,708.6824626388261,709.4392802075017,"[66, 0, 188]",188,a,0.23351233624271117,colour,0.06
048,68,1,2,10,26,476,709.948174623336,710.8714010866242,"[84, 0, 170]",170,l,0.3998192247818224,colour,0.06
048,68,1,2,10,27,477,711.3857345125289,712.3033561567136,"[54, 0, 200]",200,a,0.40658076890395023,colour,0.06
048,68,1,2,10,28,478,712.8109343400283,713.935358882125,"[83, 0, 171]",171,l,0.6009385344514158,colour,0.06
048,68,1,2,10,29,479,714.4517229767807,715.6313694214332,"[85, 0, 169]",169,l,0.6562604738282971,colour,0.06
048,68,1,2,10,30,480,716.139391075063,717.2953110692324,"[42, 0, 212]",212,a,0.6325537156371865,colour,0.06
048,68,1,2,10,31,481,717.8133198638097,718.7273039485153,"[79, 0, 175]",175,l,0.3906363169080578,colour,0.06
048,68,1,2,10,32,482,719.2353066975484,720.1192608302808,"[74, 0, 180]",180,a,0.3605220819590613,colour,0.06
048,68,1,2,10,33,483,720.6260272974614,721.5512871864485,"[91, 0, 163]",163,l,0.4018530443427153,colour,0.06
048,68,1,2,10,34,484,722.0636844665278,723.0713144405745,"[78, 0, 176]",176,l,0.4842829939443618,colour,0.06
048,68,1,2,10,35,485,723.579384143377,724.4473154488078,"[70, 0, 184]",184,a,0.3446319806680549,colour,0.06
048,68,1,2,10,36,486,724.954493090976,726.0233140939672,"[50, 0, 204]",204,a,0.5436036493629217,colour,0.06
048,68,1,2,10,37,487,726.5345711905975,727.73530768216,"[92, 0, 162]",162,l,0.6773324038367718,colour,0.06
048,68,1,2,10,38,488,728.2535370303667,729.4392723305791,"[80, 0, 174]",174,l,0.662617144495016,colour,0.06
048,68,1,2,10,39,489,729.9567667625961,730.8392790259677,"[62, 0, 192]",192,a,0.35952525833272375,colour,0.06
048,68,1,2,10,40,490,731.3474330117751,732.2953146138461,"[65, 0, 189]",189,a,0.4245287142985035,colour,0.06
048,68,1,2,10,41,491,732.8163193931687,734.7593074616161,"[64, 0, 190]",190,a,1.4196276975853834,colour,0.06
048,68,1,2,10,42,492,735.2696681652742,736.4633150392037,"[56, 0, 198]",198,a,0.670399536844343,colour,0.06
048,68,1,2,10,43,493,736.9728766297922,737.8712518191023,"[89, 0, 165]",165,l,0.37499473232310265,colour,0.06
048,68,1,2,10,44,494,738.3792884388822,739.1592956462409,"[57, 0, 197]",197,a,0.2566204488684889,colour,0.06
048,68,1,2,10,45,495,739.6785714426369,740.5113138104207,"[60, 0, 194]",194,a,0.3094359537935816,colour,0.06
048,68,1,2,10,46,496,741.0245606158278,742.1112696997006,"[72, 0, 182]",182,a,0.5634030637447722,colour,0.06
048,68,1,2,10,47,497,742.6100450362719,743.5192872179323,"[95, 0, 159]",159,l,0.38593813075567596,colour,0.06
048,68,1,2,10,48,498,744.0319865777565,744.8792697312019,"[73, 0, 181]",181,a,0.323853071895428,colour,0.06
048,68,1,2,10,49,499,745.3915275899053,746.2954398568254,"[96, 0, 158]",158,l,0.3805483514734078,colour,0.06
048,68,1,2,10,50,500,746.8135156051721,747.5672466045653,"[53, 0, 201]",201,a,0.23037062856019475,colour,0.06
048,68,1,2,11,1,501,754.0476372207922,754.7432405235886,"[88, 0, 166]",166,a,0.1838259359356016,colour,0.06
048,68,1,2,11,2,502,755.2548276629532,755.9992729607329,"[64, 0, 190]",190,a,0.22134762204950675,colour,0.06
048,68,1,2,11,3,503,756.5205601274502,757.1912491409457,"[73, 0, 181]",181,a,0.14746963942889124,colour,0.06
048,68,1,2,11,4,504,757.7081205089344,758.4473426241602,"[11, 0, 243]",243,a,0.21396065087174065,colour,0.06
048,68,1,2,11,5,505,758.9601810115273,759.8232341432886,"[83, 0, 171]",171,l,0.33962265637819655,colour,0.06
048,68,1,2,11,6,506,760.3352588452981,761.255254591757,"[72, 0, 182]",182,l,0.3965113142039627,colour,0.06
048,68,1,2,11,7,507,761.7728719036386,762.9592609878164,"[82, 0, 172]",172,l,0.6630082333576865,colour,0.06
048,68,1,2,11,8,508,763.4772532408824,764.3352651468304,"[63, 0, 191]",191,a,0.3346345997415483,colour,0.06
048,68,1,2,11,9,509,764.8524890067929,765.7192840671923,"[89, 0, 165]",165,l,0.34343350800918415,colour,0.06
048,68,1,2,11,10,510,766.2275262744515,767.1992288499896,"[85, 0, 169]",169,l,0.4482980939792469,colour,0.06
048,68,1,2,11,11,511,767.7120325789438,768.6233223647287,"[84, 0, 170]",170,l,0.38803299638675526,colour,0.06
048,68,1,2,11,12,512,769.1339859357686,770.3032675413997,"[90, 0, 164]",164,l,0.6458566440560389,colour,0.06
048,68,1,2,11,13,513,770.8228375406179,771.6232455648133,"[76, 0, 178]",178,a,0.2770374133833684,colour,0.06
048,68,1,2,11,14,514,772.1354561620392,773.6632571438968,"[87, 0, 167]",167,a,1.0044929925061297,colour,0.06
048,68,1,2,11,15,515,774.1824963126273,775.0792283773771,"[71, 0, 183]",183,a,0.3732937124441378,colour,0.06
048,68,1,2,11,16,516,775.5888277771592,776.4152083542722,"[74, 0, 180]",180,a,0.30302690164535306,colour,0.06
048,68,1,2,11,17,517,776.9327197216335,777.7752385228523,"[67, 0, 187]",187,a,0.3288970546273049,colour,0.06
048,68,1,2,11,18,518,778.282393321977,779.335233639169,"[96, 0, 158]",158,l,0.529479552526027,colour,0.06
048,68,1,2,11,19,519,779.845001998794,780.6792338912201,"[79, 0, 175]",175,a,0.31083292470430024,colour,0.06
048,68,1,2,11,20,520,781.1906603415264,782.0712431544962,"[68, 0, 186]",186,a,0.35722992519731633,colour,0.06
048,68,1,2,11,21,521,782.5814475013467,783.5032348522218,"[62, 0, 192]",192,a,0.39844549077679403,colour,0.06
048,68,1,2,11,22,522,784.0189691874839,785.3752196182613,"[58, 0, 196]",196,a,0.8314162890601438,colour,0.06
048,68,1,2,11,23,523,785.8957691118703,787.1192663441179,"[55, 0, 199]",199,a,0.700136467552511,colour,0.06
048,68,1,2,11,24,524,787.630338333227,788.5512080234475,"[52, 0, 202]",202,a,0.39749317170935683,colour,0.06
048,68,1,2,11,25,525,789.0678927085537,789.7592109694087,"[57, 0, 197]",197,a,0.16800357610918581,colour,0.06
048,68,1,2,11,26,526,790.2711580838077,791.087232111051,"[59, 0, 195]",195,a,0.2929412992671132,colour,0.06
048,68,1,2,11,27,527,791.5900644528738,792.4952358446899,"[66, 0, 188]",188,a,0.3818429224775173,colour,0.06
048,68,1,2,11,28,528,793.0084286932542,793.8633493038069,"[94, 0, 160]",160,l,0.3425079704611562,colour,0.06
048,68,1,2,11,29,529,794.3726934915176,795.2552029979706,"[56, 0, 198]",198,a,0.35919403404113837,colour,0.06
048,68,1,2,11,30,530,795.7633951868338,796.6632413900516,"[61, 0, 193]",193,a,0.3765043431194499,colour,0.06
048,68,1,2,11,31,531,797.1697372852068,798.7672489676333,"[45, 0, 209]",209,a,1.0742009361565579,colour,0.06
048,68,1,2,11,32,532,799.2792898173211,800.5752219813294,"[53, 0, 201]",201,a,0.7725580085534602,colour,0.06
048,68,1,2,11,33,533,801.0919224202808,801.9912003040663,"[92, 0, 162]",162,l,0.37589427604689263,colour,0.06
048,68,1,2,11,34,534,802.5011588911875,803.8152182004123,"[93, 0, 161]",161,l,0.7907903105951846,colour,0.06
048,68,1,2,11,35,535,804.3293263465166,805.2714625265799,"[65, 0, 189]",189,a,0.418759267689893,colour,0.06
048,68,1,2,11,36,536,805.7826377032616,806.7271826440119,"[51, 0, 203]",203,a,0.42128657596185803,colour,0.06
048,68,1,2,11,37,537,807.2358175155241,808.423207361775,"[77, 0, 177]",177,l,0.6639451924129389,colour,0.06
048,68,1,2,11,38,538,808.9390771799954,809.9432830589358,"[69, 0, 185]",185,a,0.480794701987179,colour,0.06
048,68,1,2,11,39,539,810.459376187704,811.4553132747824,"[43, 0, 211]",211,a,0.47259404545184225,colour,0.06
048,68,1,2,11,40,540,811.9740420194285,813.0951917339698,"[81, 0, 173]",173,l,0.5978200636745896,colour,0.06
048,68,1,2,11,41,541,813.6163788638951,814.6472567658057,"[54, 0, 200]",200,a,0.5074746018799488,colour,0.06
048,68,1,2,11,42,542,815.1633963683562,815.9431940497889,"[86, 0, 168]",168,l,0.25642116289236583,colour,0.06
048,68,1,2,11,43,543,816.4604935281386,817.2792173497146,"[91, 0, 163]",163,l,0.29552807824802585,colour,0.06
048,68,1,2,11,44,544,817.7886190389108,819.5991961607942,"[98, 0, 156]",156,l,1.2872884309617803,colour,0.06
048,68,1,2,11,45,545,820.1169548633334,820.8792256204761,"[50, 0, 204]",204,a,0.23886706327903084,colour,0.06
048,68,1,2,11,46,546,821.398322610883,822.1992544499808,"[60, 0, 194]",194,a,0.2776423604809679,colour,0.06
048,68,1,2,11,47,547,822.7078322138404,823.5911778548616,"[97, 0, 157]",157,l,0.35998330093570985,colour,0.06
048,68,1,2,11,48,548,824.0985453306639,825.023228235601,"[75, 0, 179]",179,l,0.4014276909001637,colour,0.06
048,68,1,2,11,49,549,825.5361528751964,826.4391636291402,"[99, 0, 155]",155,l,0.37958027856075205,colour,0.06
048,68,1,2,11,50,550,826.95814482891,827.6632382393,"[78, 0, 176]",176,a,0.1816593903931789,colour,0.06
048,68,1,2,12,1,551,833.2585747115663,834.3112110166694,"[65, 0, 189]",189,a,0.5278533633390907,colour,0.06
048,68,1,2,12,2,552,834.8256570824306,836.0231912141026,"[61, 0, 193]",193,a,0.6742450468882453,colour,0.06
048,68,1,2,12,3,553,836.5444047316851,837.4951921278262,"[79, 0, 175]",175,l,0.4272958746587392,colour,0.06
048,68,1,2,12,4,554,838.0133596422384,838.7112007766846,"[67, 0, 187]",187,a,0.17443665285827592,colour,0.06
048,68,1,2,12,5,555,839.2321677468135,839.7591841878893,"[56, 0, 198]",198,a,0.0036174733540974557,colour,0.06
048,68,1,2,12,6,556,840.2792031712597,840.9911711594614,"[70, 0, 184]",184,a,0.18897980160545558,colour,0.06
048,68,1,2,12,7,557,841.4980463280808,842.1432200436248,"[60, 0, 194]",194,a,0.1270077764929738,colour,0.06
048,68,1,2,12,8,558,842.6490617609234,843.239140786085,"[55, 0, 199]",199,a,0.06664815591648221,colour,0.06
048,68,1,2,12,9,559,843.7586123238434,844.3751503014064,"[98, 0, 156]",156,l,0.09317012364044785,colour,0.06
048,68,1,2,12,10,560,844.8837406683306,846.023173491034,"[54, 0, 200]",200,a,0.6161169564293232,colour,0.06
048,68,1,2,12,11,561,846.5401311112801,847.2791330667096,"[64, 0, 190]",190,a,0.21561716616270132,colour,0.06
048,68,1,2,12,12,562,847.7901570066169,849.1111460321117,"[44, 0, 210]",210,a,0.795134823245462,colour,0.06
048,68,1,2,12,13,563,849.6209636224376,850.6631846762612,"[92, 0, 162]",162,l,0.5191225903981831,colour,0.06
048,68,1,2,12,14,564,851.1836806068604,852.0711352407525,"[74, 0, 180]",180,l,0.3641139553510584,colour,0.06
048,68,1,2,12,15,565,852.5900187667576,854.1112051089876,"[78, 0, 176]",176,l,0.997820851393044,colour,0.06
048,68,1,2,12,16,566,854.6214342681342,855.4791476390092,"[86, 0, 168]",168,l,0.3346389320504386,colour,0.06
048,68,1,2,12,17,567,855.9965904772107,857.7591696156014,"[51, 0, 203]",203,a,1.239328650495736,colour,0.06
048,68,1,2,12,18,568,858.277930655604,859.0151689696941,"[96, 0, 158]",158,l,0.2137759372126311,colour,0.06
048,68,1,2,12,19,569,859.5287217932637,860.5511694265588,"[91, 0, 163]",163,l,0.49915224697906524,colour,0.06
048,68,1,2,12,20,570,861.0601705746085,861.9351658977102,"[93, 0, 161]",161,l,0.3517007244809065,colour,0.06
048,68,1,2,12,21,571,862.4508447007101,863.1432779389434,"[58, 0, 196]",196,a,0.1690567196928896,colour,0.06
048,68,1,2,12,22,572,863.6542353189143,864.4151736958302,"[88, 0, 166]",166,l,0.23775247973389924,colour,0.06
048,68,1,2,12,23,573,864.9355538357631,865.6711387853429,"[62, 0, 192]",192,a,0.21292916880338453,colour,0.06
048,68,1,2,12,24,574,866.1856707094994,867.5432070466923,"[76, 0, 178]",178,l,0.8342803354607895,colour,0.06
048,68,1,2,12,25,575,868.0608023032255,868.9591258987202,"[80, 0, 174]",174,l,0.37500063999323174,colour,0.06
048,68,1,2,12,26,576,869.4671837861824,870.239170718356,"[85, 0, 169]",169,l,0.2469846183375921,colour,0.06
048,68,1,2,12,27,577,870.7501836305892,871.5751085537486,"[83, 0, 171]",171,l,0.30194225040031597,colour,0.06
048,68,1,2,12,28,578,872.0917030481796,872.6391557522293,"[59, 0, 195]",195,a,0.024077760899672285,colour,0.06
048,68,1,2,12,29,579,873.1437867876666,874.1351245438855,"[81, 0, 173]",173,l,0.4679057054454461,colour,0.06
048,68,1,2,12,30,580,874.6439516121172,875.6071128545445,"[69, 0, 185]",185,a,0.43979102541925386,colour,0.06
048,68,1,2,12,31,581,876.1284303473949,876.7511670634849,"[52, 0, 202]",202,a,0.09937358830939047,colour,0.06
048,68,1,2,12,32,582,877.2691384427017,878.3271542871371,"[77, 0, 177]",177,l,0.5346030920918565,colour,0.06
048,68,1,2,12,33,583,878.8474288763828,880.583155216591,"[35, 0, 219]",219,a,1.2123494278348517,colour,0.06
048,68,1,2,12,34,584,881.0976197931159,881.7031541138422,"[17, 0, 237]",237,a,0.0821503191255033,colour,0.06
048,68,1,2,12,35,585,882.2226406177215,882.9511324050545,"[66, 0, 188]",188,a,0.2041940635535866,colour,0.06
048,68,1,2,12,36,586,883.4579965459998,884.3271475917427,"[99, 0, 155]",155,l,0.34577413339866325,colour,0.06
048,68,1,2,12,37,587,884.8330428720801,885.7351552638575,"[73, 0, 181]",181,a,0.3787504455249291,colour,0.06
048,68,1,2,12,38,588,886.255145102652,887.1671445985266,"[71, 0, 183]",183,a,0.3887041095877066,colour,0.06
048,68,1,2,12,39,589,887.6771027917857,888.4231620695209,"[95, 0, 159]",159,l,0.22273947301437147,colour,0.06
048,68,1,2,12,40,590,888.942782087106,889.9031151231029,"[82, 0, 172]",172,l,0.4368895636871457,colour,0.06
048,68,1,2,12,41,591,890.411655471602,891.9111483951856,"[63, 0, 191]",191,a,0.9761786326707806,colour,0.06
048,68,1,2,12,42,592,892.4276660897012,893.3271235671418,"[84, 0, 170]",170,l,0.3760789897060022,colour,0.06
048,68,1,2,12,43,593,893.8340247295855,894.8071632668143,"[89, 0, 165]",165,l,0.44978958790306933,colour,0.06
048,68,1,2,12,44,594,895.3184983448882,895.8631173286412,"[94, 0, 160]",160,l,0.021336988225812092,colour,0.06
048,68,1,2,12,45,595,896.3809658279934,897.5431779021164,"[97, 0, 157]",157,l,0.6386693526874296,colour,0.06
048,68,1,2,12,46,596,898.0530908031214,898.8391305461118,"[90, 0, 164]",164,l,0.2627230890211649,colour,0.06
048,68,1,2,12,47,597,899.3500087630819,901.7431834159652,"[68, 0, 186]",186,a,1.8697158205904998,colour,0.06
048,68,1,2,12,48,598,902.2594317199546,903.039113610721,"[72, 0, 182]",182,a,0.25626244305749424,colour,0.06
048,68,1,2,12,49,599,903.5567758210236,904.4390710753796,"[87, 0, 167]",167,l,0.35888250201242045,colour,0.06
048,68,1,2,12,50,600,904.9475921254489,905.6070738638227,"[50, 0, 204]",204,a,0.13609497985453345,colour,0.06
048,68,1,2,13,1,601,922.0906920460984,922.7671319954388,"[73, 0, 181]",181,a,0.15227928390959278,colour,0.06
048,68,1,2,13,2,602,923.2791314913193,924.0230773926887,"[77, 0, 177]",177,a,0.22065878583816811,colour,0.06
048,68,1,2,13,3,603,924.5292432450806,925.4230943280563,"[84, 0, 170]",170,l,0.3706494319776539,colour,0.06
048,68,1,2,13,4,604,925.9355798295874,926.895150774013,"[85, 0, 169]",169,l,0.4363535395823419,colour,0.06
048,68,1,2,13,5,605,927.4042444758234,928.3830799920543,"[78, 0, 176]",176,a,0.4556196867779363,colour,0.06
048,68,1,2,13,6,606,928.9045640816621,929.8070793776715,"[67, 0, 187]",187,a,0.3794700017606374,colour,0.06
048,68,1,2,13,7,607,930.3243965790607,931.1750774399261,"[31, 0, 223]",223,a,0.32735790536389686,colour,0.06
048,68,1,2,13,8,608,931.6839553142781,932.3110688383458,"[57, 0, 197]",197,a,0.10389533155830577,colour,0.06
048,68,1,2,13,9,609,932.826455013972,933.5350906731619,"[71, 0, 183]",183,a,0.18531546060694382,colour,0.06
048,68,1,2,13,10,610,934.0453214076988,934.8791421251663,"[89, 0, 165]",165,l,0.3104705866135191,colour,0.06
048,68,1,2,13,11,611,935.3891385214811,936.2790806852281,"[74, 0, 180]",180,a,0.36644630995579064,colour,0.06
048,68,1,2,13,12,612,936.7955172474904,937.6631196917151,"[82, 0, 172]",172,l,0.3443428978789598,colour,0.06
048,68,1,2,13,13,613,938.1581349827757,939.0390612292395,"[70, 0, 184]",184,a,0.3578801645489875,colour,0.06
048,68,1,2,13,14,614,939.5488394350104,940.3670796139631,"[75, 0, 179]",179,a,0.29479434358654544,colour,0.06
048,68,1,2,13,15,615,940.8770894010377,941.6951066633046,"[94, 0, 160]",160,l,0.29472187598003075,colour,0.06
048,68,1,2,13,16,616,942.2053413362883,943.7990996685985,"[50, 0, 204]",204,a,1.070420804520836,colour,0.06
048,68,1,2,13,17,617,944.3055002530455,945.0550580627169,"[99, 0, 155]",155,l,0.2267007736954838,colour,0.06
048,68,1,2,13,18,618,945.5713193636329,946.4391136107442,"[86, 0, 168]",168,l,0.34467254680930637,colour,0.06
048,68,1,2,13,19,619,946.9463719912746,947.703118273872,"[79, 0, 175]",175,l,0.23338433637400158,colour,0.06
048,68,1,2,13,20,620,948.2120969727112,948.751068208192,"[69, 0, 185]",185,a,0.0156931784003973,colour,0.06
048,68,1,2,13,21,621,949.2590945879929,949.9990768255375,"[14, 0, 240]",240,a,0.216524192946963,colour,0.06
048,68,1,2,13,22,622,950.5091338740895,951.0311244493641,"[52, 0, 202]",202,a,0.010340420587453991,colour,0.06
048,68,1,2,13,23,623,951.5443208425422,952.5990512255521,"[97, 0, 157]",157,l,0.531212473870255,colour,0.06
048,68,1,2,13,24,624,953.109465886082,953.7670981247211,"[63, 0, 191]",191,a,0.13419821864226833,colour,0.06
048,68,1,2,13,25,625,954.2814248552313,954.9270420410903,"[72, 0, 182]",182,a,0.12220325198723003,colour,0.06
048,68,1,2,13,26,626,955.4411655471777,956.1270770933479,"[65, 0, 189]",189,a,0.1624956430750899,colour,0.06
048,68,1,2,13,27,627,956.6442670825927,957.3190379135776,"[93, 0, 161]",161,l,0.14971259105368517,colour,0.06
048,68,1,2,13,28,628,957.8335190316138,958.4870828434941,"[43, 0, 211]",211,a,0.13014318261411972,colour,0.06
048,68,1,2,13,29,629,959.0054752438446,959.9110566291201,"[81, 0, 173]",173,l,0.3822028975118883,colour,0.06
048,68,1,2,13,30,630,960.4274636529735,961.0870919019508,"[64, 0, 190]",190,a,0.13629269041121006,colour,0.06
048,68,1,2,13,31,631,961.5995092681842,962.2470633875346,"[51, 0, 203]",203,a,0.124289059167495,colour,0.06
048,68,1,2,13,32,632,962.7557912066113,963.5990925793594,"[92, 0, 162]",162,l,0.3202493831340689,colour,0.06
048,68,1,2,13,33,633,964.1152991357085,964.815037031367,"[66, 0, 188]",188,a,0.17636334634153172,colour,0.06
048,68,1,2,13,34,634,965.3340922741336,966.2230856634269,"[91, 0, 163]",163,l,0.365567640052177,colour,0.06
048,68,1,2,13,35,635,966.7404540647985,967.3990858839825,"[61, 0, 193]",193,a,0.13521237147506326,colour,0.06
048,68,1,2,13,36,636,967.9124287877639,968.7830713274598,"[55, 0, 199]",199,a,0.3472821688337717,colour,0.06
048,68,1,2,13,37,637,969.3031911353464,970.0070266023395,"[95, 0, 159]",159,l,0.1805030592076946,colour,0.06
048,68,1,2,13,38,638,970.5220555598498,971.2470436952426,"[68, 0, 186]",186,a,0.20174828136805445,colour,0.06
048,68,1,2,13,39,639,971.7564922520833,972.8630058702838,"[53, 0, 201]",201,a,0.5834462686034385,colour,0.06
048,68,1,2,13,40,640,973.381680658058,973.9270723671943,"[96, 0, 158]",158,l,0.022082538256654516,colour,0.06
048,68,1,2,13,41,641,974.4441099381074,975.4870292804844,"[80, 0, 174]",174,l,0.5194250639469828,colour,0.06
048,68,1,2,13,42,642,976.0099457871402,977.7431660867296,"[59, 0, 195]",195,a,1.2098012457136065,colour,0.06
048,68,1,2,13,43,643,978.2602265007154,979.7191001411993,"[87, 0, 167]",167,l,0.9350508947100025,colour,0.06
048,68,1,2,13,44,644,980.2309728187392,981.0870997788734,"[56, 0, 198]",198,a,0.3326787616824731,colour,0.06
048,68,1,2,13,45,645,981.6060920063173,982.1590498864825,"[98, 0, 156]",156,l,0.027200170123251155,colour,0.06
048,68,1,2,13,46,646,982.6600583285617,983.679029485269,"[83, 0, 171]",171,l,0.49564150581136346,colour,0.06
048,68,1,2,13,47,647,984.1913877746556,985.022999805049,"[54, 0, 200]",200,a,0.308271745685488,colour,0.06
048,68,1,2,13,48,648,985.5352277314814,986.3591010864475,"[90, 0, 164]",164,l,0.3035215719137341,colour,0.06
048,68,1,2,13,49,649,986.8760488605185,987.7350193870661,"[88, 0, 166]",166,l,0.33572397712850943,colour,0.06
048,68,1,2,13,50,650,988.2511326019885,989.0470551167673,"[58, 0, 196]",196,a,0.2725007040135097,colour,0.06
048,68,1,2,14,1,651,993.5789119223191,994.2310019633442,"[87, 0, 167]",167,l,0.12798884630319662,colour,0.06
048,68,1,2,14,2,652,994.753346605954,995.6870816619776,"[80, 0, 174]",174,a,0.4107283586927224,colour,0.06
048,68,1,2,14,3,653,996.2065677719947,997.0870446404733,"[96, 0, 158]",158,l,0.3572484359610826,colour,0.06
048,68,1,2,14,4,654,997.5847888888384,998.3751006768434,"[73, 0, 181]",181,a,0.2669360571890138,colour,0.06
048,68,1,2,14,5,655,998.8818198825174,999.703033990867,"[65, 0, 189]",189,a,0.29789075898588635,colour,0.06
048,68,1,2,14,6,656,1000.2100816639431,1001.1190150705224,"[56, 0, 198]",198,a,0.3855895772576332,colour,0.06
048,68,1,2,14,7,657,1001.6321059130132,1002.4390364169667,"[88, 0, 166]",166,l,0.28361424381728284,colour,0.06
048,68,1,2,14,8,658,1002.9602452083782,1003.8070655930496,"[63, 0, 191]",191,a,0.32353957067243755,colour,0.06
048,68,1,2,14,9,659,1004.319621986855,1005.1909880212042,"[81, 0, 173]",173,l,0.3479111405322328,colour,0.06
048,68,1,2,14,10,660,1005.7104768881691,1006.5110294537735,"[59, 0, 195]",195,a,0.2771933762996923,colour,0.06
048,68,1,2,14,11,661,1007.0240706717013,1007.7431582098361,"[77, 0, 177]",177,a,0.19581460105837323,colour,0.06
048,68,1,2,14,12,662,1008.2611209244351,1009.239010816993,"[52, 0, 202]",202,a,0.4543952202948276,colour,0.06
048,68,1,2,14,13,663,1009.745660705812,1010.8709926685842,"[71, 0, 183]",183,a,0.6023997022712138,colour,0.06
048,68,1,2,14,14,664,1011.3878506458132,1012.2230683342204,"[93, 0, 161]",161,l,0.31212158806738444,colour,0.06
048,68,1,2,14,15,665,1012.7336523484264,1013.5270239241654,"[64, 0, 190]",190,a,0.27011360481265,colour,0.06
048,68,1,2,14,16,666,1014.0462516713887,1014.9190572120133,"[74, 0, 180]",180,a,0.3495109420036897,colour,0.06
048,68,1,2,14,17,667,1015.4369246159622,1016.3430349361151,"[85, 0, 169]",169,l,0.3828428969136439,colour,0.06
048,68,1,2,14,18,668,1016.8589019973879,1017.9750195445959,"[86, 0, 168]",168,l,0.5927654471015558,colour,0.06
048,68,1,2,14,19,669,1018.4841010372038,1019.3350158424582,"[91, 0, 163]",163,l,0.3275162313657347,colour,0.06
048,68,1,2,14,20,670,1019.8435723386356,1020.710973921523,"[78, 0, 176]",176,a,0.34413061500526965,colour,0.06
048,68,1,2,14,21,671,1021.2186123632127,1022.0230108327523,"[12, 0, 242]",242,a,0.28108181557036005,colour,0.06
048,68,1,2,14,22,672,1022.531240436947,1023.3989685179549,"[61, 0, 193]",193,a,0.34435313785797916,colour,0.06
048,68,1,2,14,23,673,1023.9063903444912,1024.8230179219681,"[95, 0, 159]",159,l,0.39331171120284125,colour,0.06
048,68,1,2,14,24,674,1025.3439332982816,1025.9669945432688,"[60, 0, 194]",194,a,0.09970441873883829,colour,0.06
048,68,1,2,14,25,675,1026.4846079167037,1027.2310031448724,"[72, 0, 182]",182,a,0.2230403711728286,colour,0.06
048,68,1,2,14,26,676,1027.7503695258056,1029.0630054764333,"[43, 0, 211]",211,a,0.7896087733097374,colour,0.06
048,68,1,2,14,27,677,1029.578612993384,1030.4469901322154,"[97, 0, 157]",157,l,0.34490373425069265,colour,0.06
048,68,1,2,14,28,678,1030.9537479347782,1031.8789924637822,"[69, 0, 185]",185,a,0.4020164903195109,colour,0.06
048,68,1,2,14,29,679,1032.3913365746848,1033.2069994269696,"[57, 0, 197]",197,a,0.2923304444702808,colour,0.06
048,68,1,2,14,30,680,1033.7072004852234,1034.566981152515,"[89, 0, 165]",165,l,0.33647267791093327,colour,0.06
048,68,1,2,14,31,681,1035.082346848154,1036.5509906205698,"[83, 0, 171]",171,l,0.9462235113896895,colour,0.06
048,68,1,2,14,32,682,1037.0667883650167,1037.598990573315,"[58, 0, 196]",196,a,0.008780003670835868,colour,0.06
048,68,1,2,14,33,683,1038.1137619556976,1039.31902491668,"[75, 0, 179]",179,a,0.6819077101245057,colour,0.06
048,68,1,2,14,34,684,1039.8326651740063,1040.7110511153005,"[55, 0, 199]",199,a,0.35505038272822276,colour,0.06
048,68,1,2,14,35,685,1041.223409404658,1041.9030351724068,"[76, 0, 178]",178,l,0.1562153784907423,colour,0.06
048,68,1,2,14,36,686,1042.4109154354082,1043.5669783955964,"[90, 0, 164]",164,l,0.6326675370510202,colour,0.06
048,68,1,2,14,37,687,1044.08298881675,1045.215056723653,"[84, 0, 170]",170,l,0.6092805816442706,colour,0.06
048,68,1,2,14,38,688,1045.7237534289306,1046.839027752343,"[82, 0, 172]",172,l,0.5919316756189801,colour,0.06
048,68,1,2,14,39,689,1047.3489063887682,1048.2629842087626,"[79, 0, 175]",175,l,0.3911491041071713,colour,0.06
048,68,1,2,14,40,690,1048.7708747117722,1049.2954465521907,"[53, 0, 201]",201,a,0.0014174509269651026,colour,0.06
048,68,1,2,14,41,691,1049.8178045855602,1050.5910191349976,"[66, 0, 188]",188,a,0.2506556547305081,colour,0.06
048,68,1,2,14,42,692,1051.099088050134,1051.998959853343,"[94, 0, 160]",160,l,0.37459891731850803,colour,0.06
048,68,1,2,14,43,693,1052.507325728191,1053.3829464783485,"[41, 0, 213]",213,a,0.3523340284882579,colour,0.06
048,68,1,2,14,44,694,1053.8980226973363,1054.9029879109294,"[68, 0, 186]",186,a,0.4817923133377917,colour,0.06
048,68,1,2,14,45,695,1055.4139350509213,1056.3029749139969,"[92, 0, 162]",162,l,0.3656727968773339,colour,0.06
048,68,1,2,14,46,696,1056.8202149216377,1057.6789377192035,"[62, 0, 192]",192,a,0.33537896824418567,colour,0.06
048,68,1,2,14,47,697,1058.1953833399457,1059.2229505743308,"[99, 0, 155]",155,l,0.5043029618973378,colour,0.06
048,68,1,2,14,48,698,1059.7429352931213,1060.3829413583444,"[50, 0, 204]",204,a,0.11693595870747231,colour,0.06
048,68,1,2,14,49,699,1060.8992282592226,1061.7509216975595,"[67, 0, 187]",187,a,0.32834448901121505,colour,0.06
048,68,1,2,14,50,700,1062.2605459096376,1063.1189650520973,"[54, 0, 200]",200,a,0.33495676558231935,colour,0.06
048,68,1,2,15,1,701,1068.0027116281271,1069.246986193757,"[79, 0, 175]",175,l,0.7201800663024187,colour,0.06
048,68,1,2,15,2,702,1069.7555769545143,1070.6309539141657,"[69, 0, 185]",185,a,0.3524919606279582,colour,0.06
048,68,1,2,15,3,703,1071.146336545149,1072.0549659028184,"[73, 0, 181]",181,a,0.38534696827991866,colour,0.06
048,68,1,2,15,4,704,1072.5682836004707,1074.062988934922,"[64, 0, 190]",190,a,0.9713040036440361,colour,0.06
048,68,1,2,15,5,705,1074.584095720289,1075.342930173123,"[34, 0, 220]",220,a,0.23543509125011042,colour,0.06
048,68,1,2,15,6,706,1075.8498809601297,1076.6629337964987,"[94, 0, 160]",160,l,0.2897334254812449,colour,0.06
048,68,1,2,15,7,707,1077.1779387294373,1077.734943374846,"[53, 0, 201]",201,a,0.03351785006816499,colour,0.06
048,68,1,2,15,8,708,1078.25621518158,1079.0789365376695,"[59, 0, 195]",195,a,0.29930033299024217,colour,0.06
048,68,1,2,15,9,709,1079.6001528121706,1080.414958656067,"[70, 0, 184]",184,a,0.2914454730635043,colour,0.06
048,68,1,2,15,10,710,1080.9282712337153,1081.742953410023,"[87, 0, 167]",167,l,0.29126903013093397,colour,0.06
048,68,1,2,15,11,711,1082.2565353781974,1083.0069470454764,"[98, 0, 156]",156,l,0.22703869338147342,colour,0.06
048,68,1,2,15,12,712,1083.5223229811236,1084.5509882575134,"[85, 0, 169]",169,l,0.5052860009600408,colour,0.06
048,68,1,2,15,13,713,1085.070102577156,1085.9349079287203,"[78, 0, 176]",176,a,0.3415190237283241,colour,0.06
048,68,1,2,15,14,714,1086.445222158567,1087.4709859731956,"[82, 0, 172]",172,l,0.5024436160456389,colour,0.06
048,68,1,2,15,15,715,1087.9922502968693,1088.878956623812,"[96, 0, 158]",158,l,0.36336249762098305,colour,0.06
048,68,1,2,15,16,716,1089.3985691583366,1089.9749360493151,"[55, 0, 199]",199,a,0.05296831708983518,colour,0.06
048,68,1,2,15,17,717,1090.4924292997748,1091.166898051073,"[90, 0, 164]",164,l,0.151118620444322,colour,0.06
048,68,1,2,15,18,718,1091.680064118118,1092.3109223277133,"[67, 0, 187]",187,a,0.10752068180590868,colour,0.06
048,68,1,2,15,19,719,1092.8206603612052,1093.5989275579923,"[68, 0, 186]",186,a,0.2549859889259096,colour,0.06
048,68,1,2,15,20,720,1094.1176783579867,1095.1909246120194,"[62, 0, 192]",192,a,0.5498212924867403,colour,0.06
048,68,1,2,15,21,721,1095.7115245178866,1096.5989334656915,"[83, 0, 171]",171,l,0.3624089970253408,colour,0.06
048,68,1,2,15,22,722,1097.1194837469957,1097.9989129856986,"[86, 0, 168]",168,l,0.3560657171183266,colour,0.06
048,68,1,2,15,23,723,1098.5102720883733,1099.374934473919,"[92, 0, 162]",162,l,0.34132131314254366,colour,0.06
048,68,1,2,15,24,724,1099.8853503159771,1100.6869260928943,"[99, 0, 155]",155,l,0.2906117015518248,colour,0.06
048,68,1,2,15,25,725,1101.2012725156965,1101.9829196968349,"[65, 0, 189]",189,a,0.25851169624365866,colour,0.06
048,68,1,2,15,26,726,1102.500021858461,1103.1189126706158,"[54, 0, 200]",200,a,0.09560290892841294,colour,0.06
048,68,1,2,15,27,727,1103.6250820676214,1104.454927699786,"[91, 0, 163]",163,l,0.30645572289358824,colour,0.06
048,68,1,2,15,28,728,1104.9689692859538,1105.5669453125738,"[33, 0, 221]",221,a,0.07464007422095165,colour,0.06
048,68,1,2,15,29,729,1106.0783650674566,1106.9988862041791,"[76, 0, 178]",178,l,0.39751483319560066,colour,0.06
048,68,1,2,15,30,730,1107.5160281442222,1108.398913773388,"[57, 0, 197]",197,a,0.35886123435921036,colour,0.06
048,68,1,2,15,31,731,1108.9067436241312,1109.591175491776,"[81, 0, 173]",173,l,0.1610167522158008,colour,0.06
048,68,1,2,15,32,732,1110.100734325446,1110.7429746777052,"[72, 0, 182]",182,a,0.11921317494125105,colour,0.06
048,68,1,2,15,33,733,1111.2570040546416,1112.1189193660102,"[95, 0, 159]",159,l,0.33491147332824767,colour,0.06
048,68,1,2,15,34,734,1112.6362724073697,1113.190923036629,"[77, 0, 177]",177,a,0.031202430807752535,colour,0.06
048,68,1,2,15,35,735,1113.6988529242226,1114.4388981770899,"[51, 0, 203]",203,a,0.21663840822293423,colour,0.06
048,68,1,2,15,36,736,1114.9489583764225,1115.702885117178,"[84, 0, 170]",170,l,0.2305041422659997,colour,0.06
048,68,1,2,15,37,737,1116.202156305575,1118.1189225167618,"[75, 0, 179]",179,a,1.3934137172473129,colour,0.06
048,68,1,2,15,38,738,1118.6412777932128,1119.414908637642,"[66, 0, 188]",188,a,0.25022203056141734,colour,0.06
048,68,1,2,15,39,739,1119.9226116700447,1120.9109199646336,"[97, 0, 157]",157,l,0.4649691914091818,colour,0.06
048,68,1,2,15,40,740,1121.42268039615,1122.7269152227382,"[71, 0, 183]",183,a,0.7808661849994678,colour,0.06
048,68,1,2,15,41,741,1123.2354004328372,1124.174882486288,"[61, 0, 193]",193,a,0.4161346795153804,colour,0.06
048,68,1,2,15,42,742,1124.68858182049,1125.3029115048412,"[45, 0, 209]",209,a,0.09111188567476347,colour,0.06
048,68,1,2,15,43,743,1125.8136770819256,1126.6388820294233,"[58, 0, 196]",196,a,0.3018760842969641,colour,0.06
048,68,1,2,15,44,744,1127.1575430325756,1128.030880264996,"[56, 0, 198]",198,a,0.3500095507770311,colour,0.06
048,68,1,2,15,45,745,1128.54829514015,1129.3909198858892,"[89, 0, 165]",165,l,0.31927067640936,colour,0.06
048,68,1,2,15,46,746,1129.9077069708728,1130.702904415608,"[93, 0, 161]",161,l,0.2718681877013296,colour,0.06
048,68,1,2,15,47,747,1131.2204220845306,1131.9028992956155,"[50, 0, 204]",204,a,0.15955558442510664,colour,0.06
048,68,1,2,15,48,748,1132.4236417736684,1133.2148846130585,"[74, 0, 180]",180,a,0.26808017914299853,colour,0.06
048,68,1,2,15,49,749,1133.7362139212782,1134.8788845500385,"[52, 0, 202]",202,a,0.6193350701942109,colour,0.06
048,68,1,2,15,50,750,1135.3925779765414,1136.1989011703117,"[60, 0, 194]",194,a,0.2828600291686598,colour,0.06
048,68,1,2,16,1,751,1141.0351515223156,1141.606891119387,"[62, 0, 192]",192,a,0.0475308824388776,colour,0.06
048,68,1,2,16,2,752,1142.114202275261,1143.1909053135896,"[53, 0, 201]",201,a,0.5537955901236273,colour,0.06
048,68,1,2,16,3,753,1143.707571487932,1144.7509551744442,"[88, 0, 166]",166,l,0.5200378879380878,colour,0.06
048,68,1,2,16,4,754,1145.2577606323757,1145.8548733490752,"[60, 0, 194]",194,a,0.0737094166688621,colour,0.06
048,68,1,2,16,5,755,1146.3578533830587,1147.150858288398,"[51, 0, 203]",203,a,0.2695992422522977,colour,0.06
048,68,1,2,16,6,756,1147.6705035121413,1148.3268616597052,"[67, 0, 187]",187,a,0.13318918575532734,colour,0.06
048,68,1,2,16,7,757,1148.8425117119914,1149.47884359007,"[69, 0, 185]",185,a,0.11295969184720889,colour,0.06
048,68,1,2,16,8,758,1149.998840911925,1150.6708764840732,"[65, 0, 189]",189,a,0.14864645057241432,colour,0.06
048,68,1,2,16,9,759,1151.1889085155562,1152.6068737901805,"[63, 0, 191]",191,a,0.8945497653912753,colour,0.06
048,68,1,2,16,10,760,1153.126595026144,1154.2308790834504,"[57, 0, 197]",197,a,0.5809760679549072,colour,0.06
048,68,1,2,16,11,761,1154.7517239613808,1155.6388828171184,"[86, 0, 168]",168,l,0.36418484756723046,colour,0.06
048,68,1,2,16,12,762,1156.1580660597538,1157.0469227845897,"[50, 0, 204]",204,a,0.36549635397386737,colour,0.06
048,68,1,2,16,13,763,1157.5644357273413,1158.5428663701168,"[96, 0, 158]",158,l,0.4550667273288127,colour,0.06
048,68,1,2,16,14,764,1159.0645698318258,1160.3588777758996,"[99, 0, 155]",155,l,0.7710216162377037,colour,0.06
048,68,1,2,16,15,765,1160.8771788040176,1162.5588592651475,"[78, 0, 176]",176,l,1.1583673517743591,colour,0.06
048,68,1,2,16,16,766,1163.0804890776926,1163.7028575479635,"[64, 0, 190]",190,a,0.09894272102974355,colour,0.06
048,68,1,2,16,17,767,1164.2212464037002,1165.1748490094033,"[73, 0, 181]",181,a,0.4305675514624454,colour,0.06
048,68,1,2,16,18,768,1165.6901008835994,1166.63881586332,"[79, 0, 175]",175,l,0.4253640611714218,colour,0.06
048,68,1,2,16,19,769,1167.1589459112147,1168.078859737754,"[29, 0, 225]",225,a,0.39658063105889596,colour,0.06
048,68,1,2,16,20,770,1168.596369135892,1169.4629015011596,"[54, 0, 200]",200,a,0.34297349615371786,colour,0.06
048,68,1,2,16,21,771,1169.9716163233388,1170.9188303568517,"[77, 0, 177]",177,l,0.42404782862286083,colour,0.06
048,68,1,2,16,22,772,1171.4249154708523,1172.4468329877418,"[94, 0, 160]",160,l,0.49855753988958895,colour,0.06
048,68,1,2,16,23,773,1172.956243735418,1173.8708508840937,"[61, 0, 193]",193,a,0.391209756344324,colour,0.06
048,68,1,2,16,24,774,1174.3782069383888,1175.4308660865354,"[80, 0, 174]",174,l,0.529171565111028,colour,0.06
048,68,1,2,16,25,775,1175.940821522905,1176.8228465990687,"[97, 0, 157]",157,l,0.3585910561669152,colour,0.06
048,68,1,2,16,26,776,1177.33158702121,1178.1908564767218,"[59, 0, 195]",195,a,0.3358295278158039,colour,0.06
048,68,1,2,16,27,777,1178.706779857952,1179.8308463942667,"[91, 0, 163]",163,l,0.6007829653972294,colour,0.06
048,68,1,2,16,28,778,1180.3474408886977,1181.166892931069,"[56, 0, 198]",198,a,0.29608182539232075,colour,0.06
048,68,1,2,16,29,779,1181.67567667627,1182.574847434007,"[55, 0, 199]",199,a,0.3757717900152784,colour,0.06
048,68,1,2,16,30,780,1183.082048706914,1183.9828121769242,"[92, 0, 162]",162,l,0.3773798622714821,colour,0.06
048,68,1,2,16,31,781,1184.5040237252833,1185.486848505272,"[84, 0, 170]",170,l,0.45965621204231866,colour,0.06
048,68,1,2,16,32,782,1186.00418342973,1186.982821235375,"[75, 0, 179]",179,a,0.45555667142616585,colour,0.06
048,68,1,2,16,33,783,1187.5042592450627,1188.366800771153,"[34, 0, 220]",220,a,0.33776764280628413,colour,0.06
048,68,1,2,16,34,784,1188.8808407819597,1190.0068808794022,"[71, 0, 183]",183,l,0.6026667296828236,colour,0.06
048,68,1,2,16,35,785,1190.5215557695483,1191.4547969429696,"[66, 0, 188]",188,a,0.41005173162557185,colour,0.06
048,68,1,2,16,36,786,1191.9748820924433,1192.8468192031432,"[85, 0, 169]",169,l,0.3486342413525563,colour,0.06
048,68,1,2,16,37,787,1193.3655451908708,1194.2708075610572,"[95, 0, 159]",159,l,0.3819177531695459,colour,0.06
048,68,1,2,16,38,788,1194.7875434461166,1195.6628786580986,"[93, 0, 161]",161,l,0.3521469517145306,colour,0.06
048,68,1,2,16,39,789,1196.1782230860845,1197.6948242758808,"[98, 0, 156]",156,l,0.9932770527666435,colour,0.06
048,68,1,2,16,40,790,1198.2097067227587,1199.2308231573552,"[83, 0, 171]",171,l,0.49775212528766133,colour,0.06
048,68,1,2,16,41,791,1199.7285378673114,1200.5988082227123,"[76, 0, 178]",178,a,0.34682845848146826,colour,0.06
048,68,1,2,16,42,792,1201.1193529901793,1202.0227875222045,"[90, 0, 164]",164,l,0.3800249304622412,colour,0.06
048,68,1,2,16,43,793,1202.5413634546567,1203.4227953991212,"[89, 0, 165]",165,l,0.3580392782459967,colour,0.06
048,68,1,2,16,44,794,1203.9320643622777,1204.4788573746628,"[70, 0, 184]",184,a,0.023423189239110798,colour,0.06
048,68,1,2,16,45,795,1204.994557445374,1205.958800975961,"[82, 0, 172]",172,l,0.44080399675294757,colour,0.06
048,68,1,2,16,46,796,1206.4790546914155,1207.2628109166399,"[52, 0, 202]",202,a,0.26032338675577193,colour,0.06
048,68,1,2,16,47,797,1207.7760896235704,1209.1268017951516,"[58, 0, 196]",196,a,0.8272568839311134,colour,0.06
048,68,1,2,16,48,798,1209.6356359526108,1210.3748131694156,"[72, 0, 182]",182,a,0.21580266751698218,colour,0.06
048,68,1,2,16,49,799,1210.8857949678495,1211.8228213929397,"[46, 0, 208]",208,a,0.4136873219104018,colour,0.06
048,68,1,2,16,50,800,1212.3389767493354,1213.038859974069,"[68, 0, 186]",186,a,0.17651773389661685,colour,0.06
