id,age,condition,counterbalance,block,trialinblock,trial,tstart,tend,trialstim,trialintensity,response,RT,trialtype,colourfreq
049,68,0,2,Practice,1,NA,5.9076701290905476e-06,1.2879918395192362,"[73, 0, 181]",181,a,0.7637433464697096,colour,0.5
049,68,0,2,Practice,2,NA,1.797835817502346,3.1359106600284576,"[5, 0, 249]",249,a,0.8148314438585658,colour,0.5
049,68,0,2,Practice,3,NA,3.6571430821786635,4.383932668133639,"[90, 0, 164]",164,a,0.2033461136452388,colour,0.5
049,68,0,2,Practice,4,NA,4.891780635778559,41.01594445199589,"[32, 0, 222]",222,a,35.600800688465824,colour,0.5
049,68,0,2,Practice,5,NA,41.53531674059923,42.41594445199007,"[74, 0, 180]",180,a,0.35730042358045466,colour,0.5
049,68,0,2,Practice,6,NA,42.926326817134395,44.02394424719387,"[91, 0, 163]",163,a,0.5746705972705968,colour,0.5
049,68,0,2,Practice,7,NA,44.53551917732693,45.119919734221185,"[54, 0, 200]",200,a,0.061085084453225136,colour,0.5
049,68,0,2,Practice,8,NA,45.62928400808596,46.70397803914966,"[30, 0, 224]",224,a,0.5512840356677771,colour,0.5
049,68,0,2,Practice,9,NA,47.22330976166995,48.3278939294396,"[42, 0, 212]",212,a,0.5812556984601542,colour,0.5
049,68,0,2,Practice,10,NA,48.848346143146046,49.96790157005307,"[37, 0, 217]",217,a,0.5961694560828619,colour,0.5
049,68,0,2,1,1,1,4.894047218171181,5.495975093188463,"[63, 0, 191]",191,a,0.07773885267670266,colour,0.5
049,68,0,2,1,2,2,5.994967832637485,6.999992910772562,"[92, 0, 162]",162,a,0.48172496567713097,colour,0.5
049,68,0,2,1,3,3,7.512596959917573,8.567997274600202,"[37, 0, 217]",217,a,0.5320816914900206,colour,0.5
049,68,0,2,1,4,4,9.07517964291037,9.807984041370219,"[1, 0, 253]",253,a,0.20943181839538738,colour,0.5
049,68,0,2,1,5,5,10.325342596595874,11.15998842092813,"[8, 0, 246]",246,a,0.31140203183167614,colour,0.5
049,68,0,2,1,6,6,11.669159316516016,12.407988767517963,"[14, 0, 240]",240,a,0.21542693866649643,colour,0.5
049,68,0,2,1,7,7,12.919219082628842,13.863975518557709,"[56, 0, 198]",198,a,0.4212692467554007,colour,0.5
049,68,0,2,1,8,8,14.372940432804171,15.488002867205068,"[47, 0, 207]",207,a,0.5917418419849128,colour,0.5
049,68,0,2,1,9,9,16.001116552739404,16.87203399676946,"[96, 0, 158]",158,l,0.34756770700914785,colour,0.5
049,68,0,2,1,10,10,17.391827306506457,18.135966192290653,"[15, 0, 239]",239,a,0.22078205953584984,colour,0.5
049,68,0,2,1,11,11,18.64517804782372,19.431990910030436,"[39, 0, 215]",215,a,0.2634910882334225,colour,0.5
049,68,0,2,1,12,12,19.931475562858395,20.544017975131283,"[99, 0, 155]",155,l,0.08939511197968386,colour,0.5
049,68,0,2,1,13,13,21.056565704318928,21.799998818460153,"[24, 0, 230]",230,a,0.22005068795988336,colour,0.5
049,68,0,2,1,14,14,22.309652175114024,23.295991240884177,"[17, 0, 237]",237,a,0.4617857361154165,colour,0.5
049,68,0,2,1,15,15,23.811053281417117,24.47201154756476,"[81, 0, 173]",173,l,0.13772274440270849,colour,0.5
049,68,0,2,1,16,16,24.982971290621208,26.120007561839884,"[58, 0, 196]",196,a,0.6140177585184574,colour,0.5
049,68,0,2,1,17,17,26.639376305858605,27.3839889880619,"[13, 0, 241]",241,a,0.22138109893421642,colour,0.5
049,68,0,2,1,18,18,27.905042998114368,29.072046205983497,"[59, 0, 195]",195,a,0.6435491017473396,colour,0.5
049,68,0,2,1,19,19,29.592694948718417,30.311968775902642,"[94, 0, 160]",160,l,0.1961387360934168,colour,0.5
049,68,0,2,1,20,20,30.827226557797985,31.815977535035927,"[34, 0, 220]",220,a,0.46541935711866245,colour,0.5
049,68,0,2,1,21,21,32.32732876078808,32.943976227456005,"[89, 0, 165]",165,l,0.09330048659467138,colour,0.5
049,68,0,2,1,22,22,33.45426525117364,34.46402829387807,"[51, 0, 203]",203,a,0.48640464106574655,colour,0.5
049,68,0,2,1,23,23,34.9855344388634,35.57597343903035,"[10, 0, 244]",244,a,0.06695062946528196,colour,0.5
049,68,0,2,1,24,24,36.094961728027556,37.0400037021609,"[12, 0, 242]",242,a,0.41963478684192523,colour,0.5
049,68,0,2,1,25,25,37.55309730157023,38.08870115573518,"[22, 0, 232]",232,a,0.011141502880491316,colour,0.5
049,68,0,2,1,26,26,38.60327522139414,39.239965499116806,"[57, 0, 197]",197,l,0.11328422077349387,colour,0.5
049,68,0,2,1,27,27,39.759574095194694,40.51996502649854,"[38, 0, 216]",216,a,0.237112874223385,colour,0.5
049,68,0,2,1,28,28,41.040903639717726,41.97593326677452,"[2, 0, 252]",252,a,0.41155110247200355,colour,0.5
049,68,0,2,1,29,29,42.49423193183611,43.15996124557569,"[95, 0, 159]",159,l,0.14237406288157217,colour,0.5
049,68,0,2,1,30,30,43.666225165565265,44.303965829953086,"[11, 0, 243]",243,a,0.11442361658555456,colour,0.5
049,68,0,2,1,31,31,44.82257287623361,45.54397268284811,"[69, 0, 185]",185,l,0.19806385421543382,colour,0.5
049,68,0,2,1,32,32,46.06353598667192,47.02396078870515,"[30, 0, 224]",224,a,0.4370849111583084,colour,0.5
049,68,0,2,1,33,33,47.532415672700154,48.143971107463585,"[86, 0, 168]",168,l,0.0883392114774324,colour,0.5
049,68,0,2,1,34,34,48.65938012616243,49.415990531939315,"[85, 0, 169]",169,l,0.2334233270958066,colour,0.5
049,68,0,2,1,35,35,49.925114559882786,52.975962017517304,"[41, 0, 213]",213,a,2.5276517143065576,colour,0.5
049,68,0,2,1,36,36,53.4878331196669,54.64795859894366,"[5, 0, 249]",249,a,0.6366520746960305,colour,0.5
049,68,0,2,1,37,37,55.15985451338929,55.863981820089975,"[79, 0, 175]",175,l,0.18062830215785652,colour,0.5
049,68,0,2,1,38,38,56.37872957170475,57.367961828480475,"[9, 0, 245]",245,a,0.4660042180912569,colour,0.5
049,68,0,2,1,39,39,57.878842014673864,59.30394298688043,"[65, 0, 189]",189,l,0.9019666688109282,colour,0.5
049,68,0,2,1,40,40,59.80724754979019,60.55991516562062,"[49, 0, 205]",205,a,0.2293265434273053,colour,0.5
049,68,0,2,1,41,41,61.07288430977496,62.47198043373646,"[18, 0, 236]",236,a,0.8756231132138055,colour,0.5
049,68,0,2,1,42,42,62.97938611259451,63.76798545921338,"[26, 0, 228]",228,a,0.26519289580755867,colour,0.5
049,68,0,2,1,43,43,64.27634739558562,64.90399970067665,"[68, 0, 186]",186,l,0.10433486342662945,colour,0.5
049,68,0,2,1,44,44,65.41702595245442,66.479973139707,"[87, 0, 167]",167,l,0.5396549517172389,colour,0.5
049,68,0,2,1,45,45,66.99536010302836,67.91995675573708,"[88, 0, 166]",166,l,0.40135522329364903,colour,0.5
049,68,0,2,1,46,46,68.43294362296001,69.20794426294742,"[61, 0, 193]",193,l,0.2517017090867739,colour,0.5
049,68,0,2,1,47,47,69.71429837361211,70.83995722833788,"[98, 0, 156]",156,l,0.6024512960284483,colour,0.5
049,68,0,2,1,48,48,71.34706200903747,72.14391596906353,"[66, 0, 188]",188,l,0.273536912194686,colour,0.5
049,68,0,2,1,49,49,72.65963139975793,73.2799814104801,"[71, 0, 183]",183,l,0.09688566459226422,colour,0.5
049,68,0,2,1,50,50,73.8003985719115,74.59994564927183,"[42, 0, 212]",212,a,0.2761678019014653,colour,0.5
049,68,0,2,2,1,51,80.2869572066993,81.44799995273934,"[81, 0, 173]",173,l,0.6368860190559644,colour,0.5
049,68,0,2,2,2,52,81.96269020289765,82.55194412116543,"[27, 0, 227]",227,a,0.06589354743482545,colour,0.5
049,68,0,2,2,3,53,83.07218995969743,84.14393959980225,"[47, 0, 207]",207,a,0.5485066352994181,colour,0.5
049,68,0,2,2,4,54,84.65316248303861,85.34393251058646,"[98, 0, 156]",156,l,0.16730725680827163,colour,0.5
049,68,0,2,2,5,55,85.85639004909899,86.58397323422832,"[23, 0, 231]",231,a,0.20280378800816834,colour,0.5
049,68,0,2,2,6,56,87.09223710303195,87.87191111687571,"[72, 0, 182]",182,l,0.25631443070597015,colour,0.5
049,68,0,2,2,7,57,88.38920626294566,89.01590309818857,"[9, 0, 245]",245,a,0.10346525197383016,colour,0.5
049,68,0,2,2,8,58,89.52988993978943,90.29594713015831,"[90, 0, 164]",164,l,0.24276259174803272,colour,0.5
049,68,0,2,2,9,59,90.81128722580615,91.44792472818517,"[10, 0, 244]",244,a,0.11334014683961868,colour,0.5
049,68,0,2,2,10,60,91.96747424741625,92.72788723406848,"[48, 0, 206]",206,l,0.2369001974875573,colour,0.5
049,68,0,2,2,11,61,93.25210540101398,94.19203210630803,"[46, 0, 208]",208,l,0.426273844903335,colour,0.5
049,68,0,2,2,12,62,94.71129963194835,100.33599730610149,"[93, 0, 161]",161,l,5.102032834925922,colour,0.5
049,68,0,2,2,13,63,100.84697083375067,101.9999744000379,"[63, 0, 191]",191,l,0.6409193935687654,colour,0.5
049,68,0,2,2,14,64,102.494897925033,103.20791984451353,"[22, 0, 232]",232,a,0.1902590126846917,colour,0.5
049,68,0,2,2,15,65,103.72951302939327,104.42395527486224,"[69, 0, 185]",185,l,0.18028723169118166,colour,0.5
049,68,0,2,2,16,66,104.93916933989385,105.70387879002374,"[76, 0, 178]",178,l,0.2413573500525672,colour,0.5
049,68,0,2,2,17,67,106.22247362710186,106.87990933671244,"[40, 0, 214]",214,a,0.1341233879502397,colour,0.5
049,68,0,2,2,18,68,107.39462479299982,108.35189016428194,"[85, 0, 169]",169,l,0.4338207174441777,colour,0.5
049,68,0,2,2,19,69,108.86348675595946,109.67989909672178,"[7, 0, 247]",247,a,0.2933926465047989,colour,0.5
049,68,0,2,2,20,70,110.19175995889236,110.93589018005878,"[61, 0, 193]",193,l,0.22073243497288786,colour,0.5
049,68,0,2,2,21,71,111.45744319265941,112.5199024050089,"[34, 0, 220]",220,l,0.5390594569034874,colour,0.5
049,68,0,2,2,22,72,113.03656936707557,113.77589939604513,"[13, 0, 241]",241,a,0.21600864885840565,colour,0.5
049,68,0,2,2,23,73,114.28853692204575,114.95986317799543,"[71, 0, 183]",183,l,0.14800487583852373,colour,0.5
049,68,0,2,2,24,74,115.47610124200583,116.22386902265134,"[4, 0, 250]",250,a,0.22441449903999455,colour,0.5
049,68,0,2,2,25,75,116.74185182340443,117.49589829327306,"[8, 0, 246]",246,a,0.23989263764815405,colour,0.5
049,68,0,2,2,26,76,118.01402878618683,118.70391108538024,"[78, 0, 176]",176,l,0.16665977437514812,colour,0.5
049,68,0,2,2,27,77,119.21726029069396,120.11989964809618,"[31, 0, 223]",223,l,0.37936090645962395,colour,0.5
049,68,0,2,2,28,78,120.63916520451312,121.51195026515052,"[51, 0, 203]",203,l,0.3494341420882847,colour,0.5
049,68,0,2,2,29,79,122.02990667824633,122.74387619065237,"[64, 0, 190]",190,l,0.19059496311820112,colour,0.5
049,68,0,2,2,30,80,123.26439260120969,124.11990476810024,"[95, 0, 159]",159,l,0.3323105158924591,colour,0.5
049,68,0,2,2,31,81,124.63949839802808,125.42385169342742,"[58, 0, 196]",196,l,0.2610472752712667,colour,0.5
049,68,0,2,2,32,82,125.93649197637569,126.52795221863198,"[59, 0, 195]",195,l,0.06804748991271481,colour,0.5
049,68,0,2,2,33,83,127.04599921623594,127.65588553267298,"[14, 0, 240]",240,a,0.08659880704362877,colour,0.5
049,68,0,2,2,34,84,128.1710708469327,128.85590561880963,"[66, 0, 188]",188,l,0.16145943486480974,colour,0.5
049,68,0,2,2,35,85,129.37426217918983,130.303865793132,"[87, 0, 167]",167,l,0.4061837724002544,colour,0.5
049,68,0,2,2,36,86,130.81264914447092,131.4478459590464,"[0, 0, 254]",254,a,0.11172459152294323,colour,0.5
049,68,0,2,2,37,87,131.97011577096418,132.67989003827097,"[11, 0, 243]",243,a,0.1864276810665615,colour,0.5
049,68,0,2,2,38,88,133.18892111859168,133.7919092264201,"[92, 0, 162]",162,l,0.07966278924141079,colour,0.5
049,68,0,2,2,39,89,134.2983480139228,135.0398536469147,"[15, 0, 239]",239,a,0.21832091733813286,colour,0.5
049,68,0,2,2,40,90,135.54847906611394,136.65586623421405,"[26, 0, 228]",228,a,0.5843115477473475,colour,0.5
049,68,0,2,2,41,91,137.17360091215232,137.7678389485809,"[55, 0, 199]",199,l,0.07086073022219352,colour,0.5
049,68,0,2,2,42,92,138.28308570280205,139.215857412084,"[96, 0, 158]",158,l,0.40947159682400525,colour,0.5
049,68,0,2,2,43,93,139.73631947193644,140.8318605470995,"[39, 0, 215]",215,l,0.5721574674244039,colour,0.5
049,68,0,2,2,44,94,141.34578752415837,142.1358476447058,"[18, 0, 236]",236,a,0.2667525250581093,colour,0.5
049,68,0,2,2,45,95,142.64278307172935,143.18386689588078,"[67, 0, 187]",187,l,0.017653742601396516,colour,0.5
049,68,0,2,2,46,96,143.69036121564568,144.7038795777189,"[32, 0, 222]",222,l,0.49010127744986676,colour,0.5
049,68,0,2,2,47,97,145.22479849867523,145.8718209262006,"[38, 0, 216]",216,l,0.12363842595368624,colour,0.5
049,68,0,2,2,48,98,146.3811044616741,147.16782752706786,"[86, 0, 168]",168,l,0.2635025097988546,colour,0.5
049,68,0,2,2,49,99,147.67815751073067,148.3918568449444,"[62, 0, 192]",192,l,0.19046302477363497,colour,0.5
049,68,0,2,2,50,100,148.9125630891649,150.30386658079806,"[12, 0, 242]",242,l,0.867850567039568,colour,0.5
049,68,0,2,3,1,101,156.5843111539143,157.81581763364375,"[59, 0, 195]",195,l,0.7069901715731248,colour,0.5
049,68,0,2,3,2,102,158.3219811229792,158.99985348936752,"[33, 0, 221]",221,a,0.15452341706259176,colour,0.5
049,68,0,2,3,3,103,159.50950290757464,160.08785084274132,"[9, 0, 245]",245,a,0.054917459783609957,colour,0.5
049,68,0,2,3,4,104,160.59089901205152,161.24788455592352,"[44, 0, 210]",210,l,0.13354522234294564,colour,0.5
049,68,0,2,3,5,105,161.7628957903944,162.41587513513514,"[94, 0, 160]",160,l,0.1295906170271337,colour,0.5
049,68,0,2,3,6,106,162.93485239645815,163.535818106262,"[89, 0, 165]",165,l,0.07759352360153571,colour,0.5
049,68,0,2,3,7,107,164.04434821478208,164.5918229742092,"[92, 0, 162]",162,l,0.02410729933762923,colour,0.5
049,68,0,2,3,8,108,165.10686650400748,165.98382239131024,"[37, 0, 217]",217,l,0.3536152087326627,colour,0.5
049,68,0,2,3,9,109,166.49774858067394,167.26388847862836,"[5, 0, 249]",249,a,0.2552337179076858,colour,0.5
049,68,0,2,3,10,110,167.7821631190891,169.7279864832235,"[67, 0, 187]",187,l,1.4315990335016977,colour,0.5
049,68,0,2,3,11,111,170.24202688786318,171.25587529267068,"[39, 0, 215]",215,l,0.49047070476808585,colour,0.5
049,68,0,2,3,12,112,171.77337523852475,172.6718693692237,"[11, 0, 243]",243,l,0.375153845991008,colour,0.5
049,68,0,2,3,13,113,173.17972875843407,174.00782059537596,"[61, 0, 193]",193,l,0.3047007461427711,colour,0.5
049,68,0,2,3,14,114,174.5258506576356,175.24788810053724,"[46, 0, 208]",208,l,0.19871566895744763,colour,0.5
049,68,0,2,3,15,115,175.76041298668133,176.40785170919844,"[18, 0, 236]",236,a,0.12412364393821917,colour,0.5
049,68,0,2,3,16,116,176.91666735589388,178.03181407329976,"[26, 0, 228]",228,a,0.5916894605034031,colour,0.5
049,68,0,2,3,17,117,178.53547388507286,179.25581936657545,"[64, 0, 190]",190,l,0.19496862034429796,colour,0.5
049,68,0,2,3,18,118,179.77391244415776,180.49581676718662,"[42, 0, 212]",212,l,0.19861838905490004,colour,0.5
049,68,0,2,3,19,119,181.0084338132292,181.97578045460978,"[90, 0, 164]",164,l,0.44406031354446895,colour,0.5
049,68,0,2,3,20,120,182.49281802552287,183.27179808315123,"[12, 0, 242]",242,a,0.25556848681299016,colour,0.5
049,68,0,2,3,21,121,183.7897895485221,184.49580889029312,"[99, 0, 155]",155,l,0.19199941711849533,colour,0.5
049,68,0,2,3,22,122,185.01490548686706,186.27180162776494,"[16, 0, 238]",238,l,0.7337760159862228,colour,0.5
049,68,0,2,3,23,123,186.78074369896785,187.34387500910088,"[93, 0, 161]",161,l,0.04852219222811982,colour,0.5
049,68,0,2,3,24,124,187.8375921845145,188.64784083905397,"[95, 0, 159]",159,l,0.28697689899127,colour,0.5
049,68,0,2,3,25,125,189.16580591673846,190.0078131123155,"[28, 0, 226]",226,l,0.31877758153132163,colour,0.5
049,68,0,2,3,26,126,190.52529415354365,191.19182730652392,"[62, 0, 192]",192,l,0.14851766300853342,colour,0.5
049,68,0,2,3,27,127,191.71029690062278,192.25586190191098,"[68, 0, 186]",186,l,0.02603871896280907,colour,0.5
049,68,0,2,3,28,128,192.76901063974947,193.45582566811936,"[13, 0, 241]",241,a,0.16341448525781743,colour,0.5
049,68,0,2,3,29,129,193.97226065502036,194.57579896537936,"[98, 0, 156]",156,l,0.08030042555765249,colour,0.5
049,68,0,2,3,30,130,195.0816989718587,195.88780712586595,"[53, 0, 201]",201,l,0.28291831837850623,colour,0.5
049,68,0,2,3,31,131,196.38759070759988,197.06381640487234,"[82, 0, 172]",172,l,0.1528858063975349,colour,0.5
049,68,0,2,3,32,132,197.57517629521317,198.2078072046279,"[4, 0, 250]",250,a,0.10658096583210863,colour,0.5
049,68,0,2,3,33,133,198.72051995518268,199.31180729914922,"[71, 0, 183]",183,l,0.06804473299416713,colour,0.5
049,68,0,2,3,34,134,199.82995709049283,200.54380214764387,"[74, 0, 180]",180,l,0.1905071354995016,colour,0.5
049,68,0,2,3,35,135,201.06443356117234,201.85581503427238,"[80, 0, 174]",174,l,0.26818809285759926,colour,0.5
049,68,0,2,3,36,136,202.37710732099367,203.36777672095923,"[47, 0, 207]",207,l,0.4674173367093317,colour,0.5
049,68,0,2,3,37,137,203.87719061938697,204.52777301880997,"[0, 0, 254]",254,a,0.12726180700701661,colour,0.5
049,68,0,2,3,38,138,205.04910429625306,205.65581267120433,"[60, 0, 194]",194,l,0.08623922587139532,colour,0.5
049,68,0,2,3,39,139,206.1712787974975,206.98378458211664,"[43, 0, 211]",211,l,0.28902922925772145,colour,0.5
049,68,0,2,3,40,140,207.49958390195388,208.1758237776521,"[8, 0, 246]",246,a,0.15370106711634435,colour,0.5
049,68,0,2,3,41,141,208.68722699105274,209.23183140251786,"[50, 0, 204]",204,l,0.021016397775383666,colour,0.5
049,68,0,2,3,42,142,209.7500662645616,210.73577163246227,"[81, 0, 173]",173,l,0.46236980936373584,colour,0.5
049,68,0,2,3,43,143,211.25022006130894,212.23978433007142,"[22, 0, 232]",232,a,0.4663405623869039,colour,0.5
049,68,0,2,3,44,144,212.7502907566377,213.46381246639066,"[45, 0, 209]",209,l,0.19025034803780727,colour,0.5
049,68,0,2,3,45,145,213.9847806180769,214.83182746404782,"[78, 0, 176]",176,l,0.3236175521160476,colour,0.5
049,68,0,2,3,46,146,215.3443011502386,215.98375543754082,"[35, 0, 219]",219,a,0.11609509799745865,colour,0.5
049,68,0,2,3,47,147,216.50079773459584,217.20778633080772,"[49, 0, 205]",205,l,0.18434344927663915,colour,0.5
049,68,0,2,3,48,148,217.71957472534268,218.39979520021006,"[55, 0, 199]",199,l,0.15675494720926508,colour,0.5
049,68,0,2,3,49,149,218.9072540482448,220.03180540868198,"[6, 0, 248]",248,a,0.6012725156615488,colour,0.5
049,68,0,2,3,50,150,220.55018402443966,221.1598080395779,"[87, 0, 167]",167,l,0.08686189600848593,colour,0.5
049,68,0,2,4,1,151,226.05242480992456,226.9437537046033,"[98, 0, 156]",156,l,0.36502216366352513,colour,0.5
049,68,0,2,4,2,152,227.4627030028787,228.11980630664038,"[54, 0, 200]",200,l,0.13380200977553613,colour,0.5
049,68,0,2,4,3,153,228.63469702430302,229.32780137570808,"[76, 0, 178]",178,l,0.16889957524836063,colour,0.5
049,68,0,2,4,4,154,229.83871464495314,230.39178595269914,"[48, 0, 206]",206,l,0.029839724447811022,colour,0.5
049,68,0,2,4,5,155,230.90308361541247,231.57578006078256,"[82, 0, 172]",172,l,0.14926793918129988,colour,0.5
049,68,0,2,4,6,156,232.0906609322701,232.71177972992882,"[7, 0, 247]",247,a,0.09776709141442552,colour,0.5
049,68,0,2,4,7,157,233.2221325566643,234.03180737790535,"[43, 0, 211]",211,l,0.28632587191532366,colour,0.5
049,68,0,2,4,8,158,234.5503557412012,236.01576485831174,"[13, 0, 241]",241,a,0.9421164877421688,colour,0.5
049,68,0,2,4,9,159,236.5348905994906,237.11977676823153,"[58, 0, 196]",196,l,0.061500197916757315,colour,0.5
049,68,0,2,4,10,160,237.6287184455723,238.2797399830306,"[74, 0, 180]",180,l,0.12771039732615463,colour,0.5
049,68,0,2,4,11,161,238.80069513779017,239.55178067515953,"[2, 0, 252]",252,a,0.22780354184214957,colour,0.5
049,68,0,2,4,12,162,240.066451626888,240.78374716677354,"[39, 0, 215]",215,l,0.19397770438808948,colour,0.5
049,68,0,2,4,13,163,241.30087177761015,241.8718453446345,"[90, 0, 164]",164,l,0.04763210078817792,colour,0.5
049,68,0,2,4,14,164,242.3791025436658,243.39177413732978,"[64, 0, 190]",190,l,0.48933249051333405,colour,0.5
049,68,0,2,4,15,165,243.910469011229,244.82376307813684,"[62, 0, 192]",192,l,0.4025603913178202,colour,0.5
049,68,0,2,4,16,166,245.33565899258247,246.26376953721046,"[72, 0, 182]",182,l,0.404712364601437,colour,0.5
049,68,0,2,4,17,167,246.77324487557053,247.71177894226275,"[47, 0, 207]",207,l,0.4151079235889483,colour,0.5
049,68,0,2,4,18,168,248.22649124776945,249.0477825498674,"[27, 0, 227]",227,a,0.2979057251359336,colour,0.5
049,68,0,2,4,19,169,249.54707461211365,250.10379017473315,"[69, 0, 185]",185,l,0.03340796710108407,colour,0.5
049,68,0,2,4,20,170,250.62525969205308,251.62371069664368,"[46, 0, 208]",208,l,0.4874050093058031,colour,0.5
049,68,0,2,4,21,171,252.14523810931132,253.4237737119838,"[15, 0, 239]",239,a,0.7552181610080879,colour,0.5
049,68,0,2,4,22,172,253.94225000147708,254.78377394829295,"[9, 0, 245]",245,a,0.31683001419878565,colour,0.5
049,68,0,2,4,23,173,255.30308282774058,255.91173837613314,"[70, 0, 184]",184,l,0.08522586070466787,colour,0.5
049,68,0,2,4,24,174,256.42819541838253,256.9997664494731,"[77, 0, 177]",177,l,0.04824453097535297,colour,0.5
049,68,0,2,4,25,175,257.506395464472,258.17573870695196,"[65, 0, 189]",189,l,0.14601871158811264,colour,0.5
049,68,0,2,4,26,176,258.6939802643901,259.4478030298487,"[52, 0, 202]",202,l,0.23043206849251874,colour,0.5
049,68,0,2,4,27,177,259.9596603474056,260.55974187349784,"[97, 0, 157]",157,l,0.0766849214269314,colour,0.5
049,68,0,2,4,28,178,261.06927668256685,261.7677333979227,"[73, 0, 181]",181,l,0.1751699936867226,colour,0.5
049,68,0,2,4,29,179,262.28797214722726,262.8477293807082,"[96, 0, 158]",158,l,0.03628894890425727,colour,0.5
049,68,0,2,4,30,180,263.36697642636136,264.20774103852455,"[50, 0, 204]",204,l,0.31752790889004245,colour,0.5
049,68,0,2,4,31,181,264.7263417833019,265.5357487894071,"[20, 0, 234]",234,a,0.28604190913029015,colour,0.5
049,68,0,2,4,32,182,266.0548938290158,266.7277151234739,"[66, 0, 188]",188,l,0.14946919435169548,colour,0.5
049,68,0,2,4,33,183,267.2312646584469,267.86381719255587,"[75, 0, 179]",179,l,0.10924257553415373,colour,0.5
049,68,0,2,4,34,184,268.37196487683104,269.0157341383456,"[4, 0, 250]",250,a,0.12041440451866947,colour,0.5
049,68,0,2,4,35,185,269.5283358244051,270.32778444033465,"[19, 0, 235]",235,a,0.2760594943538308,colour,0.5
049,68,0,2,4,36,186,270.84088119052467,271.4397272224305,"[1, 0, 253]",253,a,0.07539586423081346,colour,0.5
049,68,0,2,4,37,187,271.9503482581058,272.5597072150558,"[6, 0, 248]",248,a,0.0860072507057339,colour,0.5
049,68,0,2,4,38,188,273.0755033841124,273.80770953086903,"[24, 0, 230]",230,l,0.2088568035978824,colour,0.5
049,68,0,2,4,39,189,274.32176647702,275.0637671741424,"[17, 0, 237]",237,l,0.218514295615023,colour,0.5
049,68,0,2,4,40,190,275.57188650153694,276.2397752716206,"[23, 0, 231]",231,l,0.14513728479505517,colour,0.5
049,68,0,2,4,41,191,276.7594929629704,277.36773694254225,"[21, 0, 233]",233,l,0.08489030410419218,colour,0.5
049,68,0,2,4,42,192,277.8846205197624,278.55176295212004,"[34, 0, 220]",220,l,0.14390297216596082,colour,0.5
049,68,0,2,4,43,193,279.0721454551094,280.0317069472512,"[18, 0, 236]",236,l,0.4362223889620509,colour,0.5
049,68,0,2,4,44,194,280.5410724026442,281.31969760521315,"[38, 0, 216]",216,l,0.2553333608957473,colour,0.5
049,68,0,2,4,45,195,281.83987452075235,282.3837010868301,"[56, 0, 198]",198,l,0.02046540754963644,colour,0.5
049,68,0,2,4,46,196,282.90247709295363,283.45577761891764,"[37, 0, 217]",217,l,0.030119354953058064,colour,0.5
049,68,0,2,4,47,197,283.96502885906375,284.62371896742843,"[93, 0, 161]",161,l,0.13554556501912884,colour,0.5
049,68,0,2,4,48,198,285.1370457235316,286.6957183057675,"[78, 0, 176]",176,l,1.035399251297349,colour,0.5
049,68,0,2,4,49,199,287.2152524649864,287.8877445043763,"[12, 0, 242]",242,a,0.14932819758541882,colour,0.5
049,68,0,2,4,50,200,288.4039935960609,289.14371392619796,"[84, 0, 170]",170,l,0.2163300270040054,colour,0.5
049,68,0,2,5,1,201,294.37788556024316,296.11976377130486,"[94, 0, 160]",160,l,1.2177549609623384,colour,0.5
049,68,0,2,5,2,202,296.63080070813885,297.34370644312,"[21, 0, 233]",233,a,0.18975685932673514,colour,0.5
049,68,0,2,5,3,203,297.86522794808843,298.5517003306304,"[11, 0, 243]",243,a,0.16340385141666047,colour,0.5
049,68,0,2,5,4,204,299.0684184926213,299.615761707566,"[75, 0, 179]",179,l,0.02396512101404369,colour,0.5
049,68,0,2,5,5,205,300.13107226480497,300.8237303889473,"[1, 0, 253]",253,a,0.16949822081369348,colour,0.5
049,68,0,2,5,6,206,301.33431991699035,302.37570916852565,"[24, 0, 230]",230,l,0.5168355280184187,colour,0.5
049,68,0,2,5,7,207,302.8825099002861,303.5037543347571,"[45, 0, 209]",209,l,0.09835667852894403,colour,0.5
049,68,0,2,5,8,208,304.02321445097914,305.15970721506164,"[4, 0, 250]",250,l,0.6130591379187535,colour,0.5
049,68,0,2,5,9,209,305.67965097387787,306.351695998339,"[31, 0, 223]",223,l,0.1494924312864896,colour,0.5
049,68,0,2,5,10,210,306.86721214305726,307.43171876261476,"[61, 0, 193]",193,l,0.0411249810422305,colour,0.5
049,68,0,2,5,11,211,307.9454405460274,308.5677058287256,"[19, 0, 235]",235,l,0.09732086418080144,colour,0.5
049,68,0,2,5,12,212,309.087754744367,309.719670823717,"[38, 0, 216]",216,l,0.10849111780407839,colour,0.5
049,68,0,2,5,13,213,310.2284734735149,311.17570168545353,"[46, 0, 208]",208,l,0.42389501645811833,colour,0.5
049,68,0,2,5,14,214,311.6836682006833,312.37567017780384,"[93, 0, 161]",161,l,0.1688255322223995,colour,0.5
049,68,0,2,5,15,215,312.88687764984206,313.5437092000502,"[3, 0, 251]",251,a,0.13386541896034032,colour,0.5
049,68,0,2,5,16,216,314.05887797279865,315.9116710285016,"[0, 0, 254]",254,a,1.3282310614304151,colour,0.5
049,68,0,2,5,17,217,316.41969071290805,317.1436922646826,"[81, 0, 173]",173,l,0.20031113817822188,colour,0.5
049,68,0,2,5,18,218,317.65439955258626,318.38371802217443,"[62, 0, 192]",192,l,0.2058537295961287,colour,0.5
049,68,0,2,5,19,219,318.90446207561763,319.9196731867851,"[59, 0, 195]",195,l,0.4908842428121716,colour,0.5
049,68,0,2,5,20,220,320.4368698713952,321.1596678304777,"[53, 0, 201]",201,l,0.19955928658600897,colour,0.5
049,68,0,2,5,21,221,321.671228976018,322.41571838452364,"[15, 0, 239]",239,l,0.22111288999440148,colour,0.5
049,68,0,2,5,22,222,322.93705990197486,323.52764738199767,"[35, 0, 219]",219,l,0.06728500450844876,colour,0.5
049,68,0,2,5,23,223,324.0355879034323,324.5836715483747,"[76, 0, 178]",178,l,0.024657501868205145,colour,0.5
049,68,0,2,5,24,224,325.09818102332065,325.67968405692955,"[55, 0, 199]",199,l,0.06569386762566864,colour,0.5
049,68,0,2,5,25,225,326.2001528121473,327.9037220394239,"[63, 0, 191]",191,l,1.1802734471275471,colour,0.5
049,68,0,2,5,26,226,328.42054378284956,329.4238682349678,"[64, 0, 190]",190,l,0.47999361969414167,colour,0.5
049,68,0,2,5,27,227,329.9362363704713,330.5196775190998,"[85, 0, 169]",169,l,0.06005202702363022,colour,0.5
049,68,0,2,5,28,228,331.0301299887942,332.95170899524237,"[79, 0, 175]",175,l,1.3983249739685562,colour,0.5
049,68,0,2,5,29,229,333.46952716846135,334.1836735176039,"[70, 0, 184]",184,l,0.19073123374255374,colour,0.5
049,68,0,2,5,30,230,334.7040229375707,335.52767258812673,"[56, 0, 198]",198,l,0.300335753505351,colour,0.5
049,68,0,2,5,31,231,336.0478546236409,337.0796525492624,"[16, 0, 238]",238,l,0.5077203616383485,colour,0.5
049,68,0,2,5,32,232,337.5957693087694,338.1516900906572,"[50, 0, 204]",204,l,0.03249582031276077,colour,0.5
049,68,0,2,5,33,233,338.6470960767183,339.2796809061547,"[71, 0, 183]",183,l,0.10791531528229825,colour,0.5
049,68,0,2,5,34,234,339.78937994892476,340.39168040204095,"[51, 0, 203]",203,l,0.07906178061966784,colour,0.5
049,68,0,2,5,35,235,340.89888206878095,341.4957218503696,"[90, 0, 164]",164,l,0.07370469049783424,colour,0.5
049,68,0,2,5,36,236,341.9970741198049,342.8716251848673,"[30, 0, 224]",224,l,0.35122338341898285,colour,0.5
049,68,0,2,5,37,237,343.3878266212123,344.2396705086285,"[37, 0, 217]",217,l,0.32853471650741994,colour,0.5
049,68,0,2,5,38,238,344.7473081626522,345.36765147800907,"[33, 0, 221]",221,l,0.09707943673129193,colour,0.5
049,68,0,2,5,39,239,345.8879689964524,346.7116450346948,"[5, 0, 249]",249,a,0.2999580554314889,colour,0.5
049,68,0,2,5,40,240,347.23257774024387,347.9356511156657,"[86, 0, 168]",168,l,0.1798154044954572,colour,0.5
049,68,0,2,5,41,241,348.4533838243515,349.1117005669512,"[99, 0, 155]",155,l,0.13492092562955804,colour,0.5
049,68,0,2,5,42,242,349.62532703968463,350.472172236623,"[29, 0, 225]",225,l,0.32351869682315737,colour,0.5
049,68,0,2,5,43,243,350.98478888883255,353.1596678304777,"[10, 0, 244]",244,a,1.6515528353920672,colour,0.5
049,68,0,2,5,44,244,353.67246801478905,354.47962458620896,"[52, 0, 202]",202,l,0.2837989574763924,colour,0.5
049,68,0,2,5,45,245,355.0007794207777,356.19168630972854,"[26, 0, 228]",228,a,0.6677111456519924,colour,0.5
049,68,0,2,5,46,246,356.7040083652828,357.31963104527676,"[44, 0, 210]",210,l,0.0931646098033525,colour,0.5
049,68,0,2,5,47,247,357.82911426055944,358.42365831517964,"[14, 0, 240]",240,a,0.07124827447114512,colour,0.5
049,68,0,2,5,48,248,358.93856439279625,359.53563969413517,"[68, 0, 186]",186,l,0.07777666187030263,colour,0.5
049,68,0,2,5,49,249,360.04391655983636,361.3276513204619,"[40, 0, 214]",214,a,0.7603483959683217,colour,0.5
049,68,0,2,5,50,250,361.8410493626725,363.93567435257137,"[65, 0, 189]",189,l,1.57165688945679,colour,0.5
049,68,0,2,6,1,251,386.79280955783906,392.05563425907167,"[29, 0, 225]",225,l,4.749950080062263,colour,0.5
049,68,0,2,6,2,252,392.5642293521378,393.6156018061738,"[66, 0, 188]",188,l,0.528259024489671,colour,0.5
049,68,0,2,6,3,253,394.1267848597781,395.1115749301389,"[0, 0, 254]",254,a,0.4740800255094655,colour,0.5
049,68,0,2,6,4,254,395.63194286086946,396.8476529746258,"[31, 0, 223]",223,a,0.692625434952788,colour,0.5
049,68,0,2,6,5,255,397.3664908145438,398.0076173709531,"[82, 0, 172]",172,l,0.12192086456343532,colour,0.5
049,68,0,2,6,6,256,398.5198196974234,399.19161187286954,"[70, 0, 184]",184,l,0.1492915699200239,colour,0.5
049,68,0,2,6,7,257,399.7066030211863,400.79162959594396,"[38, 0, 216]",216,a,0.561731976136798,colour,0.5
049,68,0,2,6,8,258,401.30040703961276,401.9516483430052,"[13, 0, 241]",241,a,0.12787266180384904,colour,0.5
049,68,0,2,6,9,259,402.4724081502354,403.0795867770212,"[47, 0, 207]",207,l,0.08380250210757367,colour,0.5
049,68,0,2,6,10,260,403.59767827921314,406.01560259386315,"[39, 0, 215]",215,l,1.894798282039119,colour,0.5
049,68,0,2,6,11,261,406.5354431651067,407.9036621748528,"[42, 0, 212]",212,a,0.8430497052904684,colour,0.5
049,68,0,2,6,12,262,408.4124530092813,409.503644057957,"[44, 0, 210]",210,a,0.5679074777581263,colour,0.5
049,68,0,2,6,13,263,410.0228725928755,411.2155793569691,"[59, 0, 195]",195,a,0.6693893224583007,colour,0.5
049,68,0,2,6,14,264,411.72611098966445,413.3036704456317,"[77, 0, 177]",177,l,1.0541581251600292,colour,0.5
049,68,0,2,6,15,265,413.8200353279535,415.02359372447245,"[71, 0, 183]",183,l,0.6801263457455207,colour,0.5
049,68,0,2,6,16,266,415.5346483843459,416.20756302025984,"[11, 0, 243]",243,a,0.14958852966083214,colour,0.5
049,68,0,2,6,17,267,416.7221406305034,417.3675920073001,"[27, 0, 227]",227,a,0.1220925813249778,colour,0.5
049,68,0,2,6,18,268,417.8784989750129,418.56757979808026,"[73, 0, 181]",181,l,0.1659473073668778,colour,0.5
049,68,0,2,6,19,269,419.08174505180796,419.7595784275036,"[79, 0, 175]",175,l,0.15478414300014265,colour,0.5
049,68,0,2,6,20,270,420.26929283022764,420.8316592919,"[62, 0, 192]",192,l,0.03830977150937542,colour,0.5
049,68,0,2,6,21,271,421.350139126007,422.11163912698976,"[8, 0, 246]",246,a,0.24733356569777243,colour,0.5
049,68,0,2,6,22,272,422.62215146125527,423.35158887229045,"[26, 0, 228]",228,a,0.2063838460308034,colour,0.5
049,68,0,2,6,23,273,423.85994253790705,424.5116028931807,"[33, 0, 221]",221,a,0.12691482887021266,colour,0.5
049,68,0,2,6,24,274,425.0177293610177,425.70365311639034,"[97, 0, 157]",157,l,0.1625503876421135,colour,0.5
049,68,0,2,6,25,275,426.221001431637,426.8875554584083,"[9, 0, 245]",245,a,0.14324209897313267,colour,0.5
049,68,0,2,6,26,276,427.403307516739,428.54359971091617,"[50, 0, 204]",204,a,0.6169034664344508,colour,0.5
049,68,0,2,6,27,277,429.05965857510455,429.7356014910911,"[95, 0, 159]",159,l,0.15260814511566423,colour,0.5
049,68,0,2,6,28,278,430.23794861492934,430.9355644696043,"[36, 0, 218]",218,a,0.17422082539997064,colour,0.5
049,68,0,2,6,29,279,431.45687959936913,432.0876326521684,"[84, 0, 170]",170,l,0.10739268193719909,colour,0.5
049,68,0,2,6,30,280,432.59759045159444,433.2315915504296,"[53, 0, 201]",201,a,0.1108144139579963,colour,0.5
049,68,0,2,6,31,281,433.73818551318254,435.30362869796227,"[21, 0, 233]",233,a,1.052594557433622,colour,0.5
049,68,0,2,6,32,282,435.821495314216,436.5595866982476,"[93, 0, 161]",161,l,0.21464751788880676,colour,0.5
049,68,0,2,6,33,283,437.0715901325748,437.9995462896768,"[69, 0, 185]",185,l,0.4045272570801899,colour,0.5
049,68,0,2,6,34,284,438.5095292952319,439.7516605522251,"[56, 0, 198]",198,a,0.7190375197387766,colour,0.5
049,68,0,2,6,35,285,440.2625509784266,440.81559747387655,"[22, 0, 232]",232,a,0.027452231443021446,colour,0.5
049,68,0,2,6,36,286,441.3156847107166,442.11164149007527,"[63, 0, 191]",191,l,0.27592086064396426,colour,0.5
049,68,0,2,6,37,287,442.6251017599134,443.3035542611033,"[40, 0, 214]",214,a,0.15509528113761917,colour,0.5
049,68,0,2,6,38,288,443.81269601211534,445.4235480383504,"[7, 0, 247]",247,a,1.0875290707335807,colour,0.5
049,68,0,2,6,39,289,445.9378212058509,446.65562835137825,"[54, 0, 200]",200,a,0.1944743439089507,colour,0.5
049,68,0,2,6,40,290,447.1722252088948,447.8075835002237,"[19, 0, 235]",235,a,0.11193017903133295,colour,0.5
049,68,0,2,6,41,291,448.3286355410237,449.14361822165665,"[74, 0, 180]",180,l,0.29151754680788144,colour,0.5
049,68,0,2,6,42,292,449.6568965347542,450.7595465259801,"[61, 0, 193]",193,a,0.5793128572986461,colour,0.5
049,68,0,2,6,43,293,451.2664020023076,452.3915587037045,"[64, 0, 190]",190,l,0.6013851555762812,colour,0.5
049,68,0,2,6,44,294,452.9075852725364,453.56752426581807,"[78, 0, 176]",176,l,0.1364742533187382,colour,0.5
049,68,0,2,6,45,295,454.0795525124413,454.75159556764993,"[14, 0, 240]",240,a,0.14831601394689642,colour,0.5
049,68,0,2,6,46,296,455.2681680067326,456.03153483665665,"[35, 0, 219]",219,a,0.2399505329958629,colour,0.5
049,68,0,2,6,47,297,456.54957356350496,457.19153507295414,"[5, 0, 249]",249,a,0.1186956616002135,colour,0.5
049,68,0,2,6,48,298,457.70594963105395,458.4555550960649,"[60, 0, 194]",194,l,0.226304958719993,colour,0.5
049,68,0,2,6,49,299,458.97156748647103,459.6715290864813,"[85, 0, 169]",169,l,0.17646614008117467,colour,0.5
049,68,0,2,6,50,300,460.19048665551236,460.87156020032126,"[30, 0, 224]",224,a,0.15780218309373595,colour,0.5
049,68,0,2,7,1,301,466.51832150810515,467.1915256206412,"[21, 0, 233]",233,a,0.14904265938093886,colour,0.5
049,68,0,2,7,2,302,467.7066798211017,468.2875357661105,"[85, 0, 169]",169,l,0.057436891132965684,colour,0.5
049,68,0,2,7,3,303,468.80330594137195,469.56757310268586,"[31, 0, 223]",223,a,0.24089851972530596,colour,0.5
049,68,0,2,7,4,304,470.0846855043201,470.6315742212173,"[77, 0, 177]",177,l,0.023620112129719928,colour,0.5
049,68,0,2,7,5,305,471.13488547949237,471.7995888250298,"[35, 0, 219]",219,a,0.14149106069817208,colour,0.5
049,68,0,2,7,6,306,472.29707628596225,472.9355723465269,"[79, 0, 175]",175,l,0.11602105500060134,colour,0.5
049,68,0,2,7,7,307,473.4545263709151,474.1595764582744,"[29, 0, 225]",225,a,0.18231593127711676,colour,0.5
049,68,0,2,7,8,308,474.66170578540186,475.2635596174223,"[38, 0, 216]",216,a,0.07902200220269151,colour,0.5
049,68,0,2,7,9,309,475.77117206531693,476.5355424142326,"[70, 0, 184]",184,l,0.240829990565544,colour,0.5
049,68,0,2,7,10,310,477.05339012588956,477.84754663627245,"[5, 0, 249]",249,a,0.2707390318973921,colour,0.5
049,68,0,2,7,11,311,478.3660363165254,478.9115800501313,"[87, 0, 167]",167,l,0.034641885897144675,colour,0.5
049,68,0,2,7,12,312,479.4324552541948,480.26357812815695,"[7, 0, 247]",247,a,0.3078322138171643,colour,0.5
049,68,0,2,7,13,313,480.77634798636427,481.4395637764246,"[73, 0, 181]",181,l,0.14918286848114803,colour,0.5
049,68,0,2,7,14,314,481.95459549085354,482.5595433752169,"[8, 0, 246]",246,a,0.08147566131083295,colour,0.5
049,68,0,2,7,15,315,483.07976755223353,483.7195046207926,"[71, 0, 183]",183,l,0.11635149159701541,colour,0.5
049,68,0,2,7,16,316,484.23607390909456,484.8875306461123,"[81, 0, 173]",173,l,0.12813771996297874,colour,0.5
049,68,0,2,7,17,317,485.4080557212874,486.0795469986042,"[13, 0, 241]",241,a,0.1481978602532763,colour,0.5
049,68,0,2,7,18,318,486.58896680470207,487.13553374962066,"[88, 0, 166]",166,l,0.023322364722844213,colour,0.5
049,68,0,2,7,19,319,487.65339288281393,489.0795237616985,"[69, 0, 185]",185,l,0.9014141032239422,colour,0.5
049,68,0,2,7,20,320,489.58315285350545,490.2875255261315,"[80, 0, 174]",174,l,0.18110446169157512,colour,0.5
049,68,0,2,7,21,321,490.80389986076625,491.4795336078387,"[16, 0, 238]",238,a,0.15230882234754972,colour,0.5
049,68,0,2,7,22,322,491.99140667924075,492.62353464760236,"[97, 0, 157]",157,l,0.12122808987624012,colour,0.5
049,68,0,2,7,23,323,493.1356255156861,493.8075248172099,"[98, 0, 156]",156,l,0.14859052447718568,colour,0.5
049,68,0,2,7,24,324,494.32511534757214,494.9995116312639,"[15, 0, 239]",239,a,0.14997371079516597,colour,0.5
049,68,0,2,7,25,325,495.51572251989273,496.45556336682057,"[19, 0, 235]",235,a,0.41658720828127116,colour,0.5
049,68,0,2,7,26,326,496.96965497141355,497.72749772062525,"[59, 0, 195]",195,l,0.2343815538333729,colour,0.5
049,68,0,2,7,27,327,498.2353760144033,498.9995305358607,"[84, 0, 170]",170,l,0.24999832618050277,colour,0.5
049,68,0,2,7,28,328,499.4971188213094,500.23950548726134,"[32, 0, 222]",222,a,0.21907788890530355,colour,0.5
049,68,0,2,7,29,329,500.74718095047865,501.3835274008452,"[4, 0, 250]",250,a,0.11306091022561304,colour,0.5
049,68,0,2,7,30,330,501.9036164887366,502.6315052982245,"[86, 0, 168]",168,l,0.20452607556944713,colour,0.5
049,68,0,2,7,31,331,503.1379314826627,503.7915031714365,"[26, 0, 228]",228,a,0.13015617954079062,colour,0.5
049,68,0,2,7,32,332,504.31080220473814,504.9115308194305,"[90, 0, 164]",164,l,0.07747418835060671,colour,0.5
049,68,0,2,7,33,333,505.4107047279249,506.191569337534,"[83, 0, 171]",171,l,0.25759088483755477,colour,0.5
049,68,0,2,7,34,334,506.7095584398194,507.45548184076324,"[57, 0, 197]",197,a,0.22249883323092945,colour,0.5
049,68,0,2,7,35,335,507.9754515934037,508.5515077400487,"[34, 0, 220]",220,a,0.05268908041762188,colour,0.5
049,68,0,2,7,36,336,509.0691746764933,510.05552280071424,"[6, 0, 248]",248,a,0.4629219811176881,colour,0.5
049,68,0,2,7,37,337,510.5692985409987,511.295493025973,"[66, 0, 188]",188,l,0.202798274171073,colour,0.5
049,68,0,2,7,38,338,511.8038049439492,512.8555527330027,"[93, 0, 161]",161,l,0.5284165627963375,colour,0.5
049,68,0,2,7,39,339,513.3663966853928,514.5354975158116,"[39, 0, 215]",215,a,0.6549686597136315,colour,0.5
049,68,0,2,7,40,340,515.0448393404658,515.6075173341378,"[45, 0, 209]",209,a,0.03927508747437969,colour,0.5
049,68,0,2,7,41,341,516.1255686640507,516.6955186259584,"[46, 0, 208]",208,a,0.04706732596969232,colour,0.5
049,68,0,2,7,42,342,517.2038435408322,517.8394905211171,"[14, 0, 240]",240,a,0.11268163673230447,colour,0.5
049,68,0,2,7,43,343,518.3601766792126,518.9834943177993,"[2, 0, 252]",252,a,0.09999783386592753,colour,0.5
049,68,0,2,7,44,344,519.5016118137864,520.1915173498855,"[28, 0, 226]",226,a,0.16661290670162998,colour,0.5
049,68,0,2,7,45,345,520.7047779399145,521.4075421464222,"[96, 0, 158]",158,l,0.18021082563791424,colour,0.5
049,68,0,2,7,46,346,521.9236415767227,522.6714995480725,"[24, 0, 230]",230,a,0.22450075126835145,colour,0.5
049,68,0,2,7,47,347,523.1893224474334,523.7755378456204,"[94, 0, 160]",160,l,0.0628790519258473,colour,0.5
049,68,0,2,7,48,348,524.2831483242917,525.015502557042,"[75, 0, 179]",179,l,0.208977714239154,colour,0.5
049,68,0,2,7,49,349,525.5332427488174,526.2315068735916,"[9, 0, 245]",245,a,0.18602832144824788,colour,0.5
049,68,0,2,7,50,350,526.7408577566966,527.2954552167794,"[74, 0, 180]",180,l,0.03120006775134243,colour,0.5
049,68,0,2,8,1,351,532.7093355231045,533.3194845346734,"[18, 0, 236]",236,a,0.08610059216152877,colour,0.5
049,68,0,2,8,2,352,533.8352736145025,534.4635119620943,"[49, 0, 205]",205,a,0.10494611205649562,colour,0.5
049,68,0,2,8,3,353,534.9760092789948,535.7595335290825,"[22, 0, 232]",232,a,0.26011267927242443,colour,0.5
049,68,0,2,8,4,354,536.2729020328261,536.9034601319872,"[42, 0, 212]",212,a,0.10715991910547018,colour,0.5
049,68,0,2,8,5,355,537.4136262758111,538.6874857477087,"[61, 0, 193]",193,l,0.7505290333356243,colour,0.5
049,68,0,2,8,6,356,539.1949768910999,539.9434669848997,"[57, 0, 197]",197,l,0.2343275969615206,colour,0.5
049,68,0,2,8,7,357,540.4514138078375,541.3434465049068,"[32, 0, 222]",222,a,0.3685569294029847,colour,0.5
049,68,0,2,8,8,358,541.8577929277089,542.735471521999,"[69, 0, 185]",185,l,0.3542154296883382,colour,0.5
049,68,0,2,8,9,359,543.2486364074866,543.991482297628,"[11, 0, 243]",243,a,0.21981201742892154,colour,0.5
049,68,0,2,8,10,360,544.4986607274623,545.2634272852447,"[12, 0, 242]",242,a,0.2416259528545197,colour,0.5
049,68,0,2,8,11,361,545.769013396668,546.4314820613072,"[77, 0, 177]",177,l,0.1390563061577268,colour,0.5
049,68,0,2,8,12,362,546.9409317997051,547.7994525543763,"[89, 0, 165]",165,l,0.33567592792678624,colour,0.5
049,68,0,2,8,13,363,548.3160738303268,549.26343398061,"[72, 0, 182]",182,l,0.4239296749001369,colour,0.5
049,68,0,2,8,14,364,549.784992900939,550.5194805962092,"[16, 0, 238]",238,a,0.21120806282851845,colour,0.5
049,68,0,2,8,15,365,551.0350447901001,551.9994340436242,"[68, 0, 186]",186,l,0.4409981626959052,colour,0.5
049,68,0,2,8,16,366,552.5194888669648,553.679477287893,"[40, 0, 214]",214,a,0.6365516440127976,colour,0.5
049,68,0,2,8,17,367,554.1814884612977,554.8235165306833,"[10, 0, 244]",244,a,0.11935889784945175,colour,0.5
049,68,0,2,8,18,368,555.3377629166644,555.9914440945722,"[71, 0, 183]",183,l,0.13027709018206224,colour,0.5
049,68,0,2,8,19,369,556.5097939595871,557.1834372101584,"[37, 0, 217]",217,a,0.15025373513344675,colour,0.5
049,68,0,2,8,20,370,557.6991183762439,558.3834383916983,"[8, 0, 246]",246,a,0.16109355216030963,colour,0.5
049,68,0,2,8,21,371,558.9023916284204,559.6554400931054,"[78, 0, 176]",176,l,0.22978182914084755,colour,0.5
049,68,0,2,8,22,372,560.1555757729802,560.7274350991356,"[21, 0, 233]",233,a,0.04844066614168696,colour,0.5
049,68,0,2,8,23,373,561.2248402463156,562.0074346265174,"[65, 0, 189]",189,l,0.2591922616993543,colour,0.5
049,68,0,2,8,24,374,562.5217589939712,563.5194404239301,"[30, 0, 224]",224,a,0.4742864006839227,colour,0.5
049,68,0,2,8,25,375,564.0376855259819,564.7434669848881,"[86, 0, 168]",168,l,0.18253766640555114,colour,0.5
049,68,0,2,8,26,376,565.2564223444497,565.9674195028492,"[36, 0, 218]",218,a,0.1876757782883942,colour,0.5
049,68,0,2,8,27,377,566.4752627443522,567.0794390848605,"[88, 0, 166]",166,l,0.08077776661957614,colour,0.5
049,68,0,2,8,28,378,567.6012488849228,568.5834478439938,"[66, 0, 188]",188,a,0.45874642831040546,colour,0.5
049,68,0,2,8,29,379,569.1013695986476,569.7914815099211,"[90, 0, 164]",164,l,0.16555779389454983,colour,0.5
049,68,0,2,8,30,380,570.3058350219508,571.0394586196053,"[43, 0, 211]",211,a,0.2089288773422595,colour,0.5
049,68,0,2,8,31,381,571.557294909755,572.2634446144511,"[85, 0, 169]",169,l,0.18287204147782177,colour,0.5
049,68,0,2,8,32,382,572.7761199496745,573.5434658033482,"[63, 0, 191]",191,a,0.24401738433516584,colour,0.5
049,68,0,2,8,33,383,574.057427044987,574.7034526489151,"[29, 0, 225]",225,a,0.1226746853790246,colour,0.5
049,68,0,2,8,34,384,575.2138109894877,575.799430499028,"[60, 0, 194]",194,l,0.06290701500256546,colour,0.5
049,68,0,2,8,35,385,576.3075864540588,576.9594397937763,"[62, 0, 192]",192,l,0.12852959652082063,colour,0.5
049,68,0,2,8,36,386,577.4795722047274,578.1514167616842,"[97, 0, 157]",157,l,0.1485432629706338,colour,0.5
049,68,0,2,8,37,387,578.6671223462326,579.4394527119293,"[91, 0, 163]",163,l,0.24891288724029437,colour,0.5
049,68,0,2,8,38,388,579.9486330598011,580.6954252845026,"[6, 0, 248]",248,a,0.22364531824132428,colour,0.5
049,68,0,2,8,39,389,581.2144112104143,581.8154340278707,"[13, 0, 241]",241,a,0.09022376345819794,colour,0.5
049,68,0,2,8,40,390,582.3270668533514,582.959463424515,"[27, 0, 227]",227,a,0.10989832869381644,colour,0.5
049,68,0,2,8,41,391,583.4676831825927,584.1354293804907,"[46, 0, 208]",208,a,0.14431532865273766,colour,0.5
049,68,0,2,8,42,392,584.6553365116706,585.5194427870156,"[59, 0, 195]",195,a,0.34000941293197684,colour,0.5
049,68,0,2,8,43,393,586.0312323631078,586.8234472138283,"[50, 0, 204]",204,a,0.26901438127970323,colour,0.5
049,68,0,2,8,44,394,587.3300754411612,588.1115784747526,"[1, 0, 253]",253,a,0.25820607191417366,colour,0.5
049,68,0,2,8,45,395,588.6149917390721,589.3673986290232,"[94, 0, 160]",160,l,0.22924265428446233,colour,0.5
049,68,0,2,8,46,396,589.8807553173974,591.0234862045618,"[24, 0, 230]",230,a,0.619721039023716,colour,0.5
049,68,0,2,8,47,397,591.5373860062682,592.2554318223556,"[35, 0, 219]",219,a,0.20421493740286678,colour,0.5
049,68,0,2,8,48,398,592.7626646029239,593.439431050414,"[73, 0, 181]",181,l,0.15332494443282485,colour,0.5
049,68,0,2,8,49,399,593.9503120243025,594.6794000941445,"[4, 0, 250]",250,a,0.2057013113226276,colour,0.5
049,68,0,2,8,50,400,595.2004659195372,595.7754385964945,"[87, 0, 167]",167,l,0.05168319834046997,colour,0.5
049,68,0,2,9,1,401,601.3719573937706,602.1433842772967,"[15, 0, 239]",239,a,0.24733080880832858,colour,0.5
049,68,0,2,9,2,402,602.6541656081972,603.3594185261172,"[90, 0, 164]",164,l,0.1819023932039272,colour,0.5
049,68,0,2,9,3,403,603.8729847404466,604.4874057970301,"[99, 0, 155]",155,l,0.0911339410522487,colour,0.5
049,68,0,2,9,4,404,604.9856833125523,605.8634095621819,"[93, 0, 161]",161,l,0.35434658033773303,colour,0.5
049,68,0,2,9,5,405,606.3770612410444,607.3034416212176,"[59, 0, 195]",195,a,0.40369703018222935,colour,0.5
049,68,0,2,9,6,406,607.8146266440745,608.3434449295455,"[37, 0, 217]",217,a,0.0062003139173612,colour,0.5
049,68,0,2,9,7,407,608.860907853872,609.7353927528311,"[41, 0, 213]",213,a,0.35113161732442677,colour,0.5
049,68,0,2,9,8,408,610.2516493276053,610.8953925952956,"[79, 0, 175]",175,l,0.12101659466861747,colour,0.5
049,68,0,2,9,9,409,611.4082585518772,612.7994092313456,"[68, 0, 186]",186,l,0.8681049913866445,colour,0.5
049,68,0,2,9,10,410,613.3144102258084,615.8874278523726,"[48, 0, 206]",206,a,2.0497821048193146,colour,0.5
049,68,0,2,9,11,411,616.4084365701419,618.447371374903,"[29, 0, 225]",225,a,1.5155858554353472,colour,0.5
049,68,0,2,9,12,412,618.955472979229,620.1114374779572,"[54, 0, 200]",200,a,0.6326210632396396,colour,0.5
049,68,0,2,9,13,413,620.618537926377,621.8794154541101,"[52, 0, 202]",202,a,0.7375218830420636,colour,0.5
049,68,0,2,9,14,414,622.3998243447859,623.3035168457718,"[24, 0, 230]",230,a,0.38020925025921315,colour,0.5
049,68,0,2,9,15,415,623.821798181627,624.6234129492659,"[86, 0, 168]",168,l,0.27899443299975246,colour,0.5
049,68,0,2,9,16,416,625.1357157063612,625.9194010393694,"[50, 0, 204]",204,a,0.25899061269592494,colour,0.5
049,68,0,2,9,17,417,626.4339065758395,627.0793804018467,"[98, 0, 156]",156,l,0.1220882490160875,colour,0.5
049,68,0,2,9,18,418,627.5856990664033,628.3434023941809,"[82, 0, 172]",172,l,0.2343216892622877,colour,0.5
049,68,0,2,9,19,419,628.8534558981482,629.591483479162,"[3, 0, 251]",251,a,0.21351009132922627,colour,0.5
049,68,0,2,9,20,420,630.1046456077311,630.9673915398016,"[10, 0, 244]",244,a,0.3393741397012491,colour,0.5
049,68,0,2,9,21,421,631.4798104814254,632.1513734386535,"[87, 0, 167]",167,l,0.14819510333472863,colour,0.5
049,68,0,2,9,22,422,632.6695035377343,633.7193978886062,"[16, 0, 238]",238,a,0.526550915412372,colour,0.5
049,68,0,2,9,23,423,634.2320688914915,635.1913968330773,"[53, 0, 201]",201,a,0.4356280756765045,colour,0.5
049,68,0,2,9,24,424,635.7023140407982,636.7673832690343,"[6, 0, 248]",248,a,0.5416808943264186,colour,0.5
049,68,0,2,9,25,425,637.280587932968,639.13534588521,"[67, 0, 187]",187,a,1.3320588484348264,colour,0.5
049,68,0,2,9,26,426,639.655810701981,640.4154103971377,"[34, 0, 220]",220,a,0.2363023396464996,colour,0.5
049,68,0,2,9,27,427,640.9371764803072,641.6153544710251,"[35, 0, 219]",219,a,0.1548081675719004,colour,0.5
049,68,0,2,9,28,428,642.1247301664262,642.8393723673944,"[38, 0, 216]",216,a,0.1913613869692199,colour,0.5
049,68,0,2,9,29,429,643.3534064705018,644.0473796456645,"[11, 0, 243]",243,a,0.1705749951361213,colour,0.5
049,68,0,2,9,30,430,644.5566174950218,645.7833966440521,"[51, 0, 203]",203,a,0.7033912089827936,colour,0.5
049,68,0,2,9,31,431,646.2787033809582,646.9513758017274,"[21, 0, 233]",233,a,0.14923485612962395,colour,0.5
049,68,0,2,9,32,432,647.4662925131852,648.1753342273587,"[7, 0, 247]",247,a,0.18567701103165746,colour,0.5
049,68,0,2,9,33,433,648.6851419715676,649.3353474605829,"[13, 0, 241]",241,a,0.12688095815246925,colour,0.5
049,68,0,2,9,34,434,649.8434281910886,650.5993351883371,"[72, 0, 182]",182,l,0.23248361109290272,colour,0.5
049,68,0,2,9,35,435,651.1091449017695,651.7593657507678,"[18, 0, 236]",236,a,0.1268683550588321,colour,0.5
049,68,0,2,9,36,436,652.26533940644,653.3113587088301,"[57, 0, 197]",197,a,0.5227412453095894,colour,0.5
049,68,0,2,9,37,437,653.8280961692508,654.5113374411594,"[36, 0, 218]",218,a,0.15984387954813428,colour,0.5
049,68,0,2,9,38,438,655.0315257781767,656.0073314389447,"[56, 0, 198]",198,a,0.4526552096940577,colour,0.5
049,68,0,2,9,39,439,656.5159710365697,657.2233605677611,"[9, 0, 245]",245,a,0.1841201386996545,colour,0.5
049,68,0,2,9,40,440,657.7347905626812,658.8794237248658,"[77, 0, 177]",177,l,0.6212960282573476,colour,0.5
049,68,0,2,9,41,441,659.391207787121,660.0953732968774,"[91, 0, 163]",163,l,0.1814809782372322,colour,0.5
049,68,0,2,9,42,442,660.6100623654784,661.3433464680857,"[12, 0, 242]",242,a,0.20999856246635318,colour,0.5
049,68,0,2,9,43,443,661.860116223892,662.6553136686271,"[20, 0, 234]",234,a,0.2718441631295718,colour,0.5
049,68,0,2,9,44,444,663.1727348453132,664.1034546181327,"[78, 0, 176]",176,l,0.4075059125898406,colour,0.5
049,68,0,2,9,45,445,664.6104176143708,665.3673545182974,"[19, 0, 235]",235,a,0.23163605501758866,colour,0.5
049,68,0,2,9,46,446,665.8779794924485,666.5113543765037,"[94, 0, 160]",160,l,0.11025672836694866,colour,0.5
049,68,0,2,9,47,447,667.018740756932,668.2233129124215,"[70, 0, 184]",184,l,0.6935860247758683,colour,0.5
049,68,0,2,9,48,448,668.7408605136152,669.4713372836122,"[88, 0, 166]",166,l,0.2070963130099699,colour,0.5
049,68,0,2,9,49,449,669.9909419412143,670.7833273271972,"[32, 0, 222]",222,a,0.2674181243928615,colour,0.5
049,68,0,2,9,50,450,671.2896310256037,671.935339189833,"[22, 0, 232]",232,a,0.12249824247555807,colour,0.5
049,68,0,2,10,1,451,677.4024733514234,678.175315716624,"[32, 0, 222]",222,a,0.24851195223163813,colour,0.5
049,68,0,2,10,2,452,678.6868327514385,679.3193407809595,"[13, 0, 241]",241,a,0.10912245255894959,colour,0.5
049,68,0,2,10,3,453,679.8281780891703,680.40732710663,"[8, 0, 246]",246,a,0.06835390193737112,colour,0.5
049,68,0,2,10,4,454,680.9252311382443,681.6873664124287,"[30, 0, 224]",224,a,0.23875599875464104,colour,0.5
049,68,0,2,10,5,455,682.194096251973,682.8313044368697,"[90, 0, 164]",164,l,0.11381433717906475,colour,0.5
049,68,0,2,10,6,456,683.3504691687704,684.3913160946977,"[68, 0, 186]",186,l,0.5175086104427464,colour,0.5
049,68,0,2,10,7,457,684.8974413809774,685.5113398042158,"[99, 0, 155]",155,l,0.09061721537727863,colour,0.5
049,68,0,2,10,8,458,686.0225815408339,686.8633126761124,"[28, 0, 226]",226,a,0.31748458585934713,colour,0.5
049,68,0,2,10,9,459,687.3820532361278,688.3673320690868,"[70, 0, 184]",184,l,0.4621720987779554,colour,0.5
049,68,0,2,10,10,460,688.8822625651665,691.1993115576042,"[57, 0, 197]",197,l,1.7943672178662382,colour,0.5
049,68,0,2,10,11,461,691.7105135158054,692.6872900063754,"[65, 0, 189]",189,l,0.4533582243893761,colour,0.5
049,68,0,2,10,12,462,693.1949831926322,693.8233767154452,"[14, 0, 240]",240,a,0.10503866581711918,colour,0.5
049,68,0,2,10,13,463,694.3356834110164,695.0632835315482,"[37, 0, 217]",217,a,0.2041881558834575,colour,0.5
049,68,0,2,10,14,464,695.5700956848159,696.159321246203,"[43, 0, 211]",211,a,0.0656336092215497,colour,0.5
049,68,0,2,10,15,465,696.6796340385044,697.7993182529754,"[41, 0, 213]",213,a,0.5946476360259112,colour,0.5
049,68,0,2,10,16,466,698.3065337043372,698.8873396309209,"[38, 0, 216]",216,a,0.05746682340395637,colour,0.5
049,68,0,2,10,17,467,699.4002800243325,700.4473095411086,"[33, 0, 221]",221,a,0.5236104629002512,colour,0.5
049,68,0,2,10,18,468,700.9629296611238,701.8875479753478,"[36, 0, 218]",218,a,0.4013256848556921,colour,0.5
049,68,0,2,10,19,469,702.4005395687127,703.1913093993207,"[88, 0, 166]",166,l,0.26741851822589524,colour,0.5
049,68,0,2,10,20,470,703.6850758054643,704.4713136528735,"[11, 0, 243]",243,a,0.2627762581978459,colour,0.5
049,68,0,2,10,21,471,704.9847006673808,707.0873006402107,"[56, 0, 198]",198,l,1.5793061619333457,colour,0.5
049,68,0,2,10,22,472,707.5878447381256,708.1593125816144,"[15, 0, 239]",239,a,0.048185454099439085,colour,0.5
049,68,0,2,10,23,473,708.6659908273432,709.7193199071335,"[29, 0, 225]",225,a,0.530012031988008,colour,0.5
049,68,0,2,10,24,474,710.2191263319401,710.9433122035116,"[76, 0, 178]",178,l,0.20082510687643662,colour,0.5
049,68,0,2,10,25,475,711.4537087471108,712.1914992329839,"[86, 0, 168]",168,l,0.21458844101289287,colour,0.5
049,68,0,2,10,26,476,712.7037247963308,713.5593078554375,"[71, 0, 183]",183,l,0.33108250476652756,colour,0.5
049,68,0,2,10,27,477,714.0801212257356,714.7992898960947,"[0, 0, 254]",254,a,0.19584217024384998,colour,0.5
049,68,0,2,10,28,478,715.313443334453,715.9433208681294,"[5, 0, 249]",249,a,0.1066494949918706,colour,0.5
049,68,0,2,10,29,479,716.4541049559484,717.199285957613,"[84, 0, 170]",170,l,0.22188600921072066,colour,0.5
049,68,0,2,10,30,480,717.7198874388705,718.3912802547275,"[74, 0, 180]",180,l,0.14797888198518194,colour,0.5
049,68,0,2,10,31,481,718.9074848418531,719.9512824602716,"[58, 0, 196]",196,l,0.5198945280862972,colour,0.5
049,68,0,2,10,32,482,720.4707413949654,721.3672836260521,"[22, 0, 232]",232,a,0.37319052484235726,colour,0.5
049,68,0,2,10,33,483,721.8770732533303,722.9033293751709,"[40, 0, 214]",214,a,0.5030595908174291,colour,0.5
049,68,0,2,10,34,484,723.4240915455157,724.5112397673947,"[39, 0, 215]",215,a,0.5638922201760579,colour,0.5
049,68,0,2,10,35,485,725.017959760793,726.359268470871,"[69, 0, 185]",185,l,0.8179798469063826,colour,0.5
049,68,0,2,10,36,486,726.8775336590479,727.7593125815911,"[81, 0, 173]",173,l,0.35849771471112035,colour,0.5
049,68,0,2,10,37,487,728.2681739144027,729.2873148186482,"[95, 0, 159]",159,l,0.49579116722452454,colour,0.5
049,68,0,2,10,38,488,729.7995411696902,730.8793303834391,"[31, 0, 223]",223,a,0.556378824490821,colour,0.5
049,68,0,2,10,39,489,731.3934022957401,732.4872817356081,"[21, 0, 233]",233,a,0.5705899612803478,colour,0.5
049,68,0,2,10,40,490,733.0029278494185,734.2072676359094,"[73, 0, 181]",181,l,0.6803969177417457,colour,0.5
049,68,0,2,10,41,491,734.7254028549942,735.3912668639969,"[52, 0, 202]",202,a,0.14247252434142865,colour,0.5
049,68,0,2,10,42,492,735.897374821041,737.2072889035917,"[80, 0, 174]",174,l,0.7866163331782445,colour,0.5
049,68,0,2,10,43,493,737.7255859932629,738.919270282553,"[83, 0, 171]",171,l,0.6701841031899676,colour,0.5
049,68,0,2,10,44,494,739.4289031592489,740.0632638392563,"[1, 0, 253]",253,a,0.11102315221796744,colour,0.5
049,68,0,2,10,45,495,740.5695667499676,741.4953394261247,"[49, 0, 205]",205,a,0.40239340072730556,colour,0.5
049,68,0,2,10,46,496,742.0071754759992,742.6072763005213,"[66, 0, 188]",188,a,0.07679874284076504,colour,0.5
049,68,0,2,10,47,497,743.116674445133,744.1112480381562,"[18, 0, 236]",236,a,0.47122109911288135,colour,0.5
049,68,0,2,10,48,498,744.6324591926532,745.7913330300653,"[75, 0, 179]",179,l,0.6339727419253904,colour,0.5
049,68,0,2,10,49,499,746.3044226910279,747.0232321740477,"[54, 0, 200]",200,a,0.1954333583416883,colour,0.5
049,68,0,2,10,50,500,747.5389810816268,748.191290494724,"[98, 0, 156]",156,l,0.1290187529521063,colour,0.5
049,68,0,2,11,1,501,753.1167020143184,753.9112413427792,"[32, 0, 222]",222,a,0.2703239184629638,colour,0.5
049,68,0,2,11,2,502,754.430072881165,754.9832966072136,"[0, 0, 254]",254,a,0.02969085075892508,colour,0.5
049,68,0,2,11,3,503,755.492878283927,756.1352434853034,"[87, 0, 167]",167,l,0.11978818973875605,colour,0.5
049,68,0,2,11,4,504,756.6492543515051,757.575269636669,"[8, 0, 246]",246,a,0.4028683787328191,colour,0.5
049,68,0,2,11,5,505,758.0868032129947,758.775281845883,"[71, 0, 183]",183,l,0.16532503106282093,colour,0.5
049,68,0,2,11,6,506,759.291796389618,759.9592570493405,"[7, 0, 247]",247,a,0.14245795202441514,colour,0.5
049,68,0,2,11,7,507,760.4654075417493,761.5913007347262,"[36, 0, 218]",218,a,0.6027844895725138,colour,0.5
049,68,0,2,11,8,508,762.1061461601057,762.7112570966128,"[96, 0, 158]",158,l,0.081797827151604,colour,0.5
049,68,0,2,11,9,509,763.2499809969449,764.3192710702715,"[33, 0, 221]",221,a,0.5547081307740882,colour,0.5
049,68,0,2,11,10,510,764.8350944146805,765.4873183632444,"[10, 0, 244]",244,a,0.12885097466642037,colour,0.5
049,68,0,2,11,11,511,766.0077603369718,766.7352600268205,"[79, 0, 175]",175,l,0.20413301745429635,colour,0.5
049,68,0,2,11,12,512,767.2422096322989,767.9432629727817,"[83, 0, 171]",171,l,0.177588206686778,colour,0.5
049,68,0,2,11,13,513,768.4610646044894,769.2952311185363,"[35, 0, 219]",219,a,0.3107462786429096,colour,0.5
049,68,0,2,11,14,514,769.8052034902503,770.4793445618707,"[28, 0, 226]",226,a,0.15102527898852713,colour,0.5
049,68,0,2,11,15,515,770.98017419799,771.5992430284387,"[34, 0, 220]",220,a,0.09565607813419774,colour,0.5
049,68,0,2,11,16,516,772.1208444841031,772.8153036649455,"[30, 0, 224]",224,a,0.171294157509692,colour,0.5
049,68,0,2,11,17,517,773.32404014864,773.9432042897679,"[16, 0, 238]",238,a,0.09571791189955547,colour,0.5
049,68,0,2,11,18,518,774.4493776252202,775.1112606412207,"[22, 0, 232]",232,a,0.13866088501526974,colour,0.5
049,68,0,2,11,19,519,775.6212704282952,776.2792425558146,"[88, 0, 166]",166,l,0.1345089629467111,colour,0.5
049,68,0,2,11,20,520,776.793346369639,777.5912428393785,"[74, 0, 180]",180,l,0.2738645918725524,colour,0.5
049,68,0,2,11,21,521,778.1092094924825,778.9913074300857,"[95, 0, 159]",159,l,0.35872299448237754,colour,0.5
049,68,0,2,11,22,522,779.4910791964794,780.60725975901,"[65, 0, 189]",189,l,0.5928769054880831,colour,0.5
049,68,0,2,11,23,523,781.1181706651987,782.4392392475274,"[60, 0, 194]",194,a,0.7984254046459682,colour,0.5
049,68,0,2,11,24,524,782.9464326435118,783.7192293225962,"[76, 0, 178]",178,l,0.25232437925296836,colour,0.5
049,68,0,2,11,25,525,784.2405428769998,785.1272180901142,"[37, 0, 217]",217,a,0.36328648537164554,colour,0.5
049,68,0,2,11,26,526,785.6468530738784,786.4712155852758,"[64, 0, 190]",190,l,0.30097732826834545,colour,0.5
049,68,0,2,11,27,527,786.9907139045245,787.6552325363737,"[26, 0, 228]",228,a,0.14013583739870228,colour,0.5
049,68,0,2,11,28,528,788.1668137680681,788.9272436900937,"[99, 0, 155]",155,l,0.23711129883304238,colour,0.5
049,68,0,2,11,29,529,789.4481283464702,790.5752688489738,"[25, 0, 229]",229,a,0.6038423592981417,colour,0.5
049,68,0,2,11,30,530,791.0888878386468,792.1272507793328,"[39, 0, 215]",215,a,0.515050225192681,colour,0.5
049,68,0,2,11,31,531,792.6358821062022,793.2152449819259,"[89, 0, 165]",165,l,0.0557575327984523,colour,0.5
049,68,0,2,11,32,532,793.7191225904098,794.7352304883825,"[42, 0, 212]",212,a,0.49300470840535127,colour,0.5
049,68,0,2,11,33,533,795.2542880942347,795.9112444935308,"[94, 0, 160]",160,l,0.13359130229218863,colour,0.5
049,68,0,2,11,34,534,796.4262368234049,797.4792500388867,"[50, 0, 204]",204,a,0.529656783095561,colour,0.5
049,68,0,2,11,35,535,797.9888533771154,798.6312146400451,"[97, 0, 157]",157,l,0.11936007940676063,colour,0.5
049,68,0,2,11,36,536,799.1451876970532,800.1352237930114,"[51, 0, 203]",203,a,0.4652397634636145,colour,0.5
049,68,0,2,11,37,537,800.647075202869,801.2311835262226,"[13, 0, 241]",241,a,0.0610232506878674,colour,0.5
049,68,0,2,11,38,538,801.7409034428129,802.4392376721371,"[78, 0, 176]",176,l,0.17496992004453205,colour,0.5
049,68,0,2,11,39,539,802.9597651103977,804.4552396256186,"[59, 0, 195]",195,l,0.9721070551604498,colour,0.5
049,68,0,2,11,40,540,804.975672147033,805.575210559793,"[44, 0, 210]",210,a,0.07623751263599843,colour,0.5
049,68,0,2,11,41,541,806.0870655142644,806.7831879057921,"[82, 0, 172]",172,l,0.17279313449398614,colour,0.5
049,68,0,2,11,42,542,807.2902466065134,808.4712195237225,"[58, 0, 196]",196,a,0.657671229360858,colour,0.5
049,68,0,2,11,43,543,808.9913814731117,810.1032253999147,"[63, 0, 191]",191,a,0.588468195986934,colour,0.5
049,68,0,2,11,44,544,810.6165285252791,811.7432338281942,"[12, 0, 242]",242,a,0.6034749011741951,colour,0.5
049,68,0,2,11,45,545,812.2573423681606,812.855201028724,"[2, 0, 252]",252,a,0.07458217887324281,colour,0.5
049,68,0,2,11,46,546,813.3667141250917,814.1512198387936,"[57, 0, 197]",197,l,0.26112722596735694,colour,0.5
049,68,0,2,11,47,547,814.6636675311602,815.7432141359022,"[29, 0, 225]",225,a,0.5562460984510835,colour,0.5
049,68,0,2,11,48,548,816.259334440052,816.919205298007,"[19, 0, 235]",235,a,0.13645416716462933,colour,0.5
049,68,0,2,11,49,549,817.4312418153859,818.5591593756108,"[49, 0, 205]",205,a,0.6045847585774027,colour,0.5
049,68,0,2,11,50,550,819.072163178178,820.2231730971835,"[67, 0, 187]",187,l,0.6276826311950572,colour,0.5
049,68,0,2,12,1,551,824.7206373212102,826.7832016903849,"[15, 0, 239]",239,a,1.5383710145251825,colour,0.5
049,68,0,2,12,2,552,827.2998643201427,828.0792086850852,"[84, 0, 170]",170,l,0.2560025048442185,colour,0.5
049,68,0,2,12,3,553,828.5968988584355,829.3031950737641,"[2, 0, 252]",252,a,0.18379088363144547,colour,0.5
049,68,0,2,12,4,554,829.8157396522001,830.5111928997503,"[1, 0, 253]",253,a,0.1727738360350486,colour,0.5
049,68,0,2,12,5,555,831.0188880552596,831.6953217030677,"[72, 0, 182]",182,l,0.15307052005664445,colour,0.5
049,68,0,2,12,6,556,832.2081073150912,832.9273882315028,"[69, 0, 185]",185,l,0.19649949885206297,colour,0.5
049,68,0,2,12,7,557,833.4425621242553,835.9911758856033,"[52, 0, 202]",202,l,2.0252273966907524,colour,0.5
049,68,0,2,12,8,558,836.5052103825728,837.4711891975894,"[66, 0, 188]",188,l,0.44252234580926597,colour,0.5
049,68,0,2,12,9,559,837.9897336224094,838.6792118358426,"[32, 0, 222]",222,a,0.16612808257923461,colour,0.5
049,68,0,2,12,10,560,839.1929828499851,839.9831556104182,"[75, 0, 179]",179,l,0.2668084511242341,colour,0.5
049,68,0,2,12,11,561,840.4899906067876,841.3191966334125,"[46, 0, 208]",208,a,0.30586062191287056,colour,0.5
049,68,0,2,12,12,562,841.8357737986371,842.3991851331084,"[10, 0, 244]",244,l,0.04003678518347442,colour,0.5
049,68,0,2,12,13,563,842.913981327787,843.5912022732664,"[99, 0, 155]",155,l,0.15388420538511127,colour,0.5
049,68,0,2,12,14,564,844.10156534001,845.2231522233633,"[39, 0, 215]",215,a,0.5982119402324315,colour,0.5
049,68,0,2,12,15,565,845.7423232567962,846.3831938134681,"[29, 0, 225]",225,a,0.11748616123804823,colour,0.5
049,68,0,2,12,16,566,846.8878575381241,847.5192029349273,"[73, 0, 181]",181,l,0.108413923997432,colour,0.5
049,68,0,2,12,17,567,848.02842227355,848.8872360494861,"[48, 0, 206]",206,a,0.3354144143522717,colour,0.5
049,68,0,2,12,18,568,849.4052164871828,850.2391502383689,"[33, 0, 221]",221,a,0.31049854966113344,colour,0.5
049,68,0,2,12,19,569,850.7491198531643,851.5431530898204,"[41, 0, 213]",213,a,0.2707886564603541,colour,0.5
049,68,0,2,12,20,570,852.0617774653365,852.9511556419311,"[50, 0, 204]",204,a,0.36609578723437153,colour,0.5
049,68,0,2,12,21,571,853.4681416190579,854.215176058904,"[7, 0, 247]",247,a,0.2236642228672281,colour,0.5
049,68,0,2,12,22,572,854.7338323359145,855.3352155222383,"[16, 0, 238]",238,a,0.08120745234191418,colour,0.5
049,68,0,2,12,23,573,855.8557595020102,856.4391191245522,"[4, 0, 250]",250,a,0.059930722520221025,colour,0.5
049,68,0,2,12,24,574,856.9496562711138,857.6711490253219,"[21, 0, 233]",233,a,0.1980886664823629,colour,0.5
049,68,0,2,12,25,575,858.1841209263948,858.9831485212198,"[64, 0, 190]",190,l,0.27571803008322604,colour,0.5
049,68,0,2,12,26,576,859.5021175117581,860.207186109852,"[77, 0, 177]",177,l,0.181726737995632,colour,0.5
049,68,0,2,12,27,577,860.7211599545553,861.4071144299232,"[81, 0, 173]",173,l,0.1627721227996517,colour,0.5
049,68,0,2,12,28,578,861.9241874469444,862.7351371469558,"[24, 0, 230]",230,a,0.28760350760421716,colour,0.5
049,68,0,2,12,29,579,863.2524421391427,863.9831374935166,"[38, 0, 216]",216,a,0.2073684604256414,colour,0.5
049,68,0,2,12,30,580,864.5024885144667,865.1911187779624,"[96, 0, 158]",158,l,0.16521278501022607,colour,0.5
049,68,0,2,12,31,581,865.705760585086,866.4711710806878,"[91, 0, 163]",163,l,0.2405885631160345,colour,0.5
049,68,0,2,12,32,582,866.9885414512828,867.751138312713,"[28, 0, 226]",226,a,0.23919356139958836,colour,0.5
049,68,0,2,12,33,583,868.269971032656,869.3831473396858,"[83, 0, 171]",171,l,0.5897328347491566,colour,0.5
049,68,0,2,12,34,584,869.8950156849169,870.7351402977074,"[79, 0, 175]",175,l,0.31674021735670976,colour,0.5
049,68,0,2,12,35,585,871.2564247075352,871.9831536411948,"[31, 0, 223]",223,a,0.20344457504688762,colour,0.5
049,68,0,2,12,36,586,872.4908298921073,873.2151634558395,"[90, 0, 164]",164,l,0.2008995437354315,colour,0.5
049,68,0,2,12,37,587,873.725298092002,874.4071526329499,"[62, 0, 192]",192,a,0.15846857012365945,colour,0.5
049,68,0,2,12,38,588,874.9148592099955,875.5191454334708,"[36, 0, 218]",218,l,0.0810317971627228,colour,0.5
049,68,0,2,12,39,589,876.039934385306,877.8471378243703,"[44, 0, 210]",210,a,1.2838635482185055,colour,0.5
049,68,0,2,12,40,590,878.3682607574156,879.4071207314555,"[57, 0, 197]",197,a,0.5154897570610046,colour,0.5
049,68,0,2,12,41,591,879.9152991356968,880.9911002672161,"[60, 0, 194]",194,a,0.5526668281236198,colour,0.5
049,68,0,2,12,42,592,881.5091074864322,882.6632008239394,"[78, 0, 176]",176,l,0.6307246959186159,colour,0.5
049,68,0,2,12,43,593,883.1810780740052,883.8551427395432,"[49, 0, 205]",205,a,0.15078266998170875,colour,0.5
049,68,0,2,12,44,594,884.3687282523315,885.015133917419,"[11, 0, 243]",243,a,0.12340054311789572,colour,0.5
049,68,0,2,12,45,595,885.5250432738103,886.423132531083,"[82, 0, 172]",172,l,0.3747466094791889,colour,0.5
049,68,0,2,12,46,596,886.9189622951671,887.7991110901057,"[14, 0, 240]",240,a,0.356830171745969,colour,0.5
049,68,0,2,12,47,597,888.3096687166253,888.9671205739141,"[97, 0, 157]",157,l,0.13449163374025375,colour,0.5
049,68,0,2,12,48,598,889.4691514396109,890.1350997315894,"[34, 0, 220]",220,a,0.1425308134930674,colour,0.5
049,68,0,2,12,49,599,890.6582482134108,891.1991280254733,"[61, 0, 193]",193,l,0.017446973593905568,colour,0.5
049,68,0,2,12,50,600,891.7208681148477,892.7591148710344,"[74, 0, 180]",180,l,0.5148702376754954,colour,0.5
049,68,0,2,13,1,601,932.334004840377,935.9190871442843,"[74, 0, 180]",180,a,3.0608696508279536,colour,0.5
049,68,0,2,13,2,602,936.428889374627,937.1511020789039,"[1, 0, 253]",253,a,0.1988669057318475,colour,0.5
049,68,0,2,13,3,603,937.6633619068307,938.3111129490717,"[95, 0, 159]",159,l,0.1244462036411278,colour,0.5
049,68,0,2,13,4,604,938.8196276976087,939.9510839620198,"[66, 0, 188]",188,a,0.6079860106110573,colour,0.5
049,68,0,2,13,5,605,940.4604387835716,941.5190879319853,"[88, 0, 166]",166,l,0.535276568349218,colour,0.5
049,68,0,2,13,6,606,942.0385949158517,942.7830272167048,"[64, 0, 190]",190,a,0.22099788702325895,colour,0.5
049,68,0,2,13,7,607,943.2919539279246,944.0230872388056,"[93, 0, 161]",161,l,0.20781586921657436,colour,0.5
049,68,0,2,13,8,608,944.542036930914,945.6390706815291,"[78, 0, 176]",176,a,0.5736686536110938,colour,0.5
049,68,0,2,13,9,609,946.1534560950531,948.9990496501559,"[33, 0, 221]",221,a,2.3221244828309864,colour,0.5
049,68,0,2,13,10,610,949.5130593348294,950.1990346840175,"[22, 0, 232]",232,a,0.16262994447606616,colour,0.5
049,68,0,2,13,11,611,950.7163605500537,951.4310547386413,"[89, 0, 165]",165,l,0.19139604538213462,colour,0.5
049,68,0,2,13,12,612,951.9507637654024,952.695044829481,"[83, 0, 171]",171,l,0.22088091479963623,colour,0.5
049,68,0,2,13,13,613,953.2008495253103,953.9510879004665,"[81, 0, 173]",173,l,0.22677639208268374,colour,0.5
049,68,0,2,13,14,614,954.4665445744758,955.5110763213888,"[72, 0, 182]",182,l,0.5209705147135537,colour,0.5
049,68,0,2,13,15,615,956.0293312695867,956.7350741316332,"[56, 0, 198]",198,a,0.18102136024390347,colour,0.5
049,68,0,2,13,16,616,957.2496387449792,957.8310535571072,"[70, 0, 184]",184,a,0.057994576724013314,colour,0.5
049,68,0,2,13,17,617,958.3434232680011,958.9190351566358,"[75, 0, 179]",179,a,0.05220386243308894,colour,0.5
049,68,0,2,13,18,618,959.4373625724402,960.0150925636117,"[76, 0, 178]",178,a,0.05445311561925337,colour,0.5
049,68,0,2,13,19,619,960.5311277970322,961.3110704137071,"[55, 0, 199]",199,a,0.2567149718524888,colour,0.5
049,68,0,2,13,20,620,961.8281390984484,962.5030170554819,"[20, 0, 234]",234,a,0.15160620148526505,colour,0.5
049,68,0,2,13,21,621,963.0157475291053,963.7350390793581,"[18, 0, 236]",236,a,0.19618205915321596,colour,0.5
049,68,0,2,13,22,622,964.250210215192,964.9350182055205,"[19, 0, 235]",235,a,0.1614078410784714,colour,0.5
049,68,0,2,13,23,623,965.453481104254,966.1830677828402,"[35, 0, 219]",219,a,0.20629365535569377,colour,0.5
049,68,0,2,13,24,624,966.7034983350313,967.5830287920835,"[61, 0, 193]",193,a,0.3568100855918601,colour,0.5
049,68,0,2,13,25,625,968.0943453594227,968.7110554475803,"[17, 0, 237]",237,a,0.09342454801662825,colour,0.5
049,68,0,2,13,26,626,969.219345310179,969.7991618961969,"[15, 0, 239]",239,a,0.05645148901385255,colour,0.5
049,68,0,2,13,27,627,970.3131845777971,970.9430416314572,"[3, 0, 251]",251,a,0.10645808593835682,colour,0.5
049,68,0,2,13,28,628,971.453913940757,972.9590183788096,"[51, 0, 203]",203,l,0.9818094455986284,colour,0.5
049,68,0,2,13,29,629,973.4696492606599,974.2310933355475,"[82, 0, 172]",172,l,0.2380191133415792,colour,0.5
049,68,0,2,13,30,630,974.7510142513202,975.3990630409098,"[7, 0, 247]",247,a,0.12473016639705747,colour,0.5
049,68,0,2,13,31,631,975.8948349097045,976.4710501700465,"[21, 0, 233]",233,a,0.052867098711431026,colour,0.5
049,68,0,2,13,32,632,976.9886659065378,977.6790440575569,"[87, 0, 167]",167,l,0.166857091098791,colour,0.5
049,68,0,2,13,33,633,978.1920124140161,979.1190902950475,"[28, 0, 226]",226,a,0.4080143674800638,colour,0.5
049,68,0,2,13,34,634,979.6252439382079,980.3030095724098,"[86, 0, 168]",168,l,0.1542961680679582,colour,0.5
049,68,0,2,13,35,635,980.8170649431995,981.5190524858481,"[44, 0, 210]",210,a,0.1786161441123113,colour,0.5
049,68,0,2,13,36,636,982.035945121519,983.3670776447107,"[46, 0, 208]",208,a,0.8078245338110719,colour,0.5
049,68,0,2,13,37,637,983.8798041798873,984.9590514618612,"[32, 0, 222]",222,a,0.5549491643614601,colour,0.5
049,68,0,2,13,38,638,985.4750780306931,986.1670339278353,"[31, 0, 223]",223,a,0.16854590171715245,colour,0.5
049,68,0,2,13,39,639,986.6783048090583,987.3590388587909,"[98, 0, 156]",156,l,0.15738234348827973,colour,0.5
049,68,0,2,13,40,640,987.8658462859457,988.8789995529805,"[12, 0, 242]",242,a,0.48995516065042466,colour,0.5
049,68,0,2,13,41,641,989.3972289011872,990.7190225535887,"[36, 0, 218]",218,a,0.7984734538185876,colour,0.5
049,68,0,2,13,42,642,991.2255243564141,992.2230072881212,"[29, 0, 225]",225,a,0.4741355577716604,colour,0.5
049,68,0,2,13,43,643,992.7413059531827,994.2389934877574,"[27, 0, 227]",227,a,0.9743704867723864,colour,0.5
049,68,0,2,13,44,644,994.7571456421865,995.7110125183826,"[42, 0, 212]",212,a,0.43058645603014156,colour,0.5
049,68,0,2,13,45,645,996.2259485282993,997.1510296112974,"[73, 0, 181]",181,l,0.4017947551619727,colour,0.5
049,68,0,2,13,46,646,997.6635300789785,998.7190509104694,"[59, 0, 195]",195,a,0.5321616421861108,colour,0.5
049,68,0,2,13,47,647,999.2261730203754,1000.4630633717461,"[49, 0, 205]",205,a,0.7135701527877245,colour,0.5
049,68,0,2,13,48,648,1000.9762463741645,1001.5749868554121,"[4, 0, 250]",250,a,0.07535766120417975,colour,0.5
049,68,0,2,13,49,649,1002.0874928369303,1003.319045002776,"[40, 0, 214]",214,a,0.7081760411674622,colour,0.5
049,68,0,2,13,50,650,1003.8395937087189,1004.7190115258854,"[57, 0, 197]",197,a,0.35615945237805136,colour,0.5
049,68,0,2,14,1,651,1009.9017445398204,1010.9750439630297,"[51, 0, 203]",203,a,0.5491675085213501,colour,0.5
049,68,0,2,14,2,652,1011.4964926065295,1012.2550182842824,"[45, 0, 209]",209,a,0.23526219296036288,colour,0.5
049,68,0,2,14,3,653,1012.775650485506,1013.3909884150198,"[47, 0, 207]",207,a,0.09201930632116273,colour,0.5
049,68,0,2,14,4,654,1013.9006917900988,1014.5029843662924,"[37, 0, 217]",217,a,0.07888100540731102,colour,0.5
049,68,0,2,14,5,655,1015.012671593664,1015.719028855121,"[89, 0, 165]",165,l,0.18290906300535426,colour,0.5
049,68,0,2,14,6,656,1016.2315631935489,1017.2790621744643,"[40, 0, 214]",214,a,0.5242221053922549,colour,0.5
049,68,0,2,14,7,657,1017.7941506026837,1018.7109810107213,"[33, 0, 221]",221,a,0.39344404338044114,colour,0.5
049,68,0,2,14,8,658,1019.2318412486638,1019.9029729447793,"[7, 0, 247]",247,a,0.14805174348293804,colour,0.5
049,68,0,2,14,9,659,1020.4193543686415,1021.0550198596611,"[72, 0, 182]",182,l,0.11227361252531409,colour,0.5
049,68,0,2,14,10,660,1021.5757060177566,1022.7030150862702,"[68, 0, 186]",186,l,0.6039758730039466,colour,0.5
049,68,0,2,14,11,661,1023.2164725991606,1024.4709717947408,"[32, 0, 222]",222,a,0.7311250401253346,colour,0.5
049,68,0,2,14,12,662,1024.984840876452,1025.5990126286633,"[11, 0, 243]",243,a,0.09088187973247841,colour,0.5
049,68,0,2,14,13,663,1026.111704505398,1027.3669740632758,"[18, 0, 236]",236,a,0.7319123377965298,colour,0.5
049,68,0,2,14,14,664,1027.8775375974947,1028.7029780647717,"[84, 0, 170]",170,l,0.3020990010118112,colour,0.5
049,68,0,2,14,15,665,1029.2213369882375,1030.0390301154112,"[76, 0, 178]",178,l,0.3015298938844353,colour,0.5
049,68,0,2,14,16,666,1030.5515231000318,1031.454983232019,"[8, 0, 246]",246,a,0.3801072442147415,colour,0.5
049,68,0,2,14,17,667,1031.9734851215035,1032.7989949056064,"[83, 0, 171]",171,l,0.30211042254813947,colour,0.5
049,68,0,2,14,18,668,1033.3192627994868,1034.0149673206615,"[90, 0, 164]",164,l,0.17132802825653926,colour,0.5
049,68,0,2,14,19,669,1034.5234529245936,1035.2950460110442,"[92, 0, 162]",162,l,0.24826776786358096,colour,0.5
049,68,0,2,14,20,670,1035.8047584445449,1037.1190103443514,"[2, 0, 252]",252,a,0.7916697681939695,colour,0.5
049,68,0,2,14,21,671,1037.63304011515,1038.3109849491739,"[21, 0, 233]",233,a,0.1546230600506533,colour,0.5
049,68,0,2,14,22,672,1038.8206524842826,1039.3669984817388,"[0, 0, 254]",254,a,0.022973811224801466,colour,0.5
049,68,0,2,14,23,673,1039.8832180349855,1040.6390135739057,"[60, 0, 194]",194,l,0.23275378928519785,colour,0.5
049,68,0,2,14,24,674,1041.1492336746014,1041.8309637602943,"[91, 0, 163]",163,l,0.15892858197912574,colour,0.5
049,68,0,2,14,25,675,1042.3521567978896,1043.4470094306453,"[42, 0, 212]",212,a,0.571497381926747,colour,0.5
049,68,0,2,14,26,676,1043.9616417854559,1045.3909758119553,"[50, 0, 204]",204,a,0.905967354105087,colour,0.5
049,68,0,2,14,27,677,1045.8993353852711,1046.5589829327073,"[26, 0, 228]",228,a,0.13642069030902348,colour,0.5
049,68,0,2,14,28,678,1047.0713002621196,1047.6949857526342,"[9, 0, 245]",245,a,0.10034678119700402,colour,0.5
049,68,0,2,14,29,679,1048.212996122602,1048.918986713601,"[94, 0, 160]",160,l,0.1825798079080414,colour,0.5
049,68,0,2,14,30,680,1049.431948768557,1050.6469590183697,"[48, 0, 206]",206,a,0.6919673186785076,colour,0.5
049,68,0,2,14,31,681,1051.1662820762722,1051.862976725679,"[88, 0, 166]",166,l,0.17318186024203897,colour,0.5
049,68,0,2,14,32,682,1052.369595894561,1053.5509429652302,"[61, 0, 193]",193,a,0.6580288413388189,colour,0.5
049,68,0,2,14,33,683,1054.0572112175287,1054.7829708967765,"[96, 0, 158]",158,l,0.20294596633175388,colour,0.5
049,68,0,2,14,34,684,1055.291652635904,1056.5749840984645,"[28, 0, 226]",226,a,0.7599155594652984,colour,0.5
049,68,0,2,14,35,685,1057.0886696480738,1058.8469566552958,"[34, 0, 220]",220,a,1.2348021811048966,colour,0.5
049,68,0,2,14,36,686,1059.3545757985848,1060.0709505270643,"[15, 0, 239]",239,a,0.1930159330368042,colour,0.5
049,68,0,2,14,37,687,1060.5890585707675,1061.3749222646875,"[97, 0, 157]",157,l,0.2625643691571895,colour,0.5
049,68,0,2,14,38,688,1061.8767054014024,1062.9909620273684,"[49, 0, 205]",205,a,0.5908706551417708,colour,0.5
049,68,0,2,14,39,689,1063.5018563920166,1064.5909403658588,"[85, 0, 169]",169,l,0.5657314799027517,colour,0.5
049,68,0,2,14,40,690,1065.1113847026427,1065.8629341903434,"[1, 0, 253]",253,a,0.22823283373145387,colour,0.5
049,68,0,2,14,41,691,1066.3770470625896,1067.1910230734502,"[69, 0, 185]",185,l,0.29057822466711514,colour,0.5
049,68,0,2,14,42,692,1067.7051918718207,1068.4870304620126,"[27, 0, 227]",227,a,0.25832816411275417,colour,0.5
049,68,0,2,14,43,693,1069.0022921823547,1070.150982743653,"[63, 0, 191]",191,l,0.6235736383241601,colour,0.5
049,68,0,2,14,44,694,1070.6604289374372,1071.3909553319972,"[64, 0, 190]",190,l,0.2071798083197791,colour,0.5
049,68,0,2,14,45,695,1071.9105221804057,1072.5989448871987,"[75, 0, 179]",179,l,0.16508596669882536,colour,0.5
049,68,0,2,14,46,696,1073.113744626462,1073.7109132692567,"[73, 0, 181]",181,l,0.07385829035774805,colour,0.5
049,68,0,2,14,47,697,1074.2233889246709,1074.958936065057,"[58, 0, 196]",196,l,0.21240338470670395,colour,0.5
049,68,0,2,14,48,698,1075.4733553492988,1076.2149507791328,"[81, 0, 173]",173,l,0.21829610507120378,colour,0.5
049,68,0,2,14,49,699,1076.7233784877462,1077.7509110637184,"[5, 0, 249]",249,a,0.5041867774270941,colour,0.5
049,68,0,2,14,50,700,1078.267170395411,1079.478968439158,"[20, 0, 234]",234,a,0.6884668174898252,colour,0.5
049,68,0,2,15,1,701,1085.0034205504926,1085.8389505585656,"[54, 0, 200]",200,a,0.31142014876240864,colour,0.5
049,68,0,2,15,2,702,1086.3480954603292,1086.9029012648389,"[16, 0, 238]",238,a,0.03161715040914714,colour,0.5
049,68,0,2,15,3,703,1087.4106224141433,1088.0229167036014,"[46, 0, 208]",208,a,0.08613446287927218,colour,0.5
049,68,0,2,15,4,704,1088.5383926760405,1089.6709044471208,"[60, 0, 194]",194,l,0.6090903541480657,colour,0.5
049,68,0,2,15,5,705,1090.1712768282741,1090.8549340012833,"[12, 0, 242]",242,a,0.16031216213013977,colour,0.5
049,68,0,2,15,6,706,1091.3745138466475,1092.1829492352554,"[25, 0, 229]",229,a,0.2850415408902336,colour,0.5
049,68,0,2,15,7,707,1092.702805166482,1093.7669516140886,"[62, 0, 192]",192,l,0.5407939536962658,colour,0.5
049,68,0,2,15,8,708,1094.281019981776,1095.3189012490911,"[81, 0, 173]",173,l,0.5145740656589624,colour,0.5
049,68,0,2,15,9,709,1095.8280800215725,1096.5028914186987,"[15, 0, 239]",239,a,0.15157745077158324,colour,0.5
049,68,0,2,15,10,710,1097.0156585199584,1097.6949392788229,"[77, 0, 177]",177,l,0.15622876925044693,colour,0.5
049,68,0,2,15,11,711,1098.203146433836,1099.1348976887239,"[55, 0, 199]",199,l,0.4082845457014628,colour,0.5
049,68,0,2,15,12,712,1099.6408252644178,1100.6789259038342,"[24, 0, 230]",230,a,0.5147627177648246,colour,0.5
049,68,0,2,15,13,713,1101.187892787304,1102.2228946482355,"[93, 0, 161]",161,l,0.511785243783379,colour,0.5
049,68,0,2,15,14,714,1102.7348208887852,1103.886917428259,"[21, 0, 233]",233,a,0.6288145439175423,colour,0.5
049,68,0,2,15,15,715,1104.4067891133018,1105.510952259996,"[22, 0, 232]",232,a,0.5807511820457876,colour,0.5
049,68,0,2,15,16,716,1106.031929470104,1106.918911882909,"[98, 0, 156]",156,l,0.36384771557641216,colour,0.5
049,68,0,2,15,17,717,1107.438227457751,1108.486893009831,"[35, 0, 219]",219,a,0.5252102644008119,colour,0.5
049,68,0,2,15,18,718,1109.0035457934428,1110.4549367582076,"[51, 0, 203]",203,l,0.9279860893439036,colour,0.5
049,68,0,2,15,19,719,1110.960185343807,1112.0949562141905,"[37, 0, 217]",217,a,0.6115640993812121,colour,0.5
049,68,0,2,15,20,720,1112.616428488429,1113.838942681643,"[61, 0, 193]",193,a,0.6990986839518882,colour,0.5
049,68,0,2,15,21,721,1114.353532107285,1115.4068659132463,"[3, 0, 251]",251,a,0.5289218669058755,colour,0.5
049,68,0,2,15,22,722,1115.9172679706826,1117.3109065738681,"[69, 0, 185]",185,l,0.8709914870269131,colour,0.5
049,68,0,2,15,23,723,1117.823664222844,1118.8708890871203,"[71, 0, 183]",183,l,0.5238203826884273,colour,0.5
049,68,0,2,15,24,724,1119.3865225978952,1120.5429148131225,"[29, 0, 225]",225,a,0.6333043856720906,colour,0.5
049,68,0,2,15,25,725,1121.0583289517963,1123.2229139466654,"[23, 0, 231]",231,a,1.6420071955653839,colour,0.5
049,68,0,2,15,26,726,1123.7304287207953,1124.8148700407473,"[10, 0, 244]",244,a,0.5611738966836128,colour,0.5
049,68,0,2,15,27,727,1125.324284333008,1125.9588655666448,"[9, 0, 245]",245,a,0.11127560734166764,colour,0.5
049,68,0,2,15,28,728,1126.4650262990617,1127.4788668269757,"[63, 0, 191]",191,l,0.4907298552861903,colour,0.5
049,68,0,2,15,29,729,1127.9963691358862,1128.7189055813942,"[97, 0, 157]",157,l,0.19957582812639885,colour,0.5
049,68,0,2,15,30,730,1129.2317687810282,1129.966840943409,"[5, 0, 249]",249,a,0.2118890221172478,colour,0.5
049,68,0,2,15,31,731,1130.4818702947814,1131.2308708126948,"[64, 0, 190]",190,l,0.22585558070568368,colour,0.5
049,68,0,2,15,32,732,1131.7482002233155,1132.6308952311228,"[96, 0, 158]",158,l,0.35935708618490025,colour,0.5
049,68,0,2,15,33,733,1133.1390756046167,1133.7670272324758,"[70, 0, 184]",184,l,0.10462040160200559,colour,0.5
049,68,0,2,15,34,734,1134.2692723502696,1134.9828889768396,"[68, 0, 186]",186,l,0.2008936360361986,colour,0.5
049,68,0,2,15,35,735,1135.493440301856,1136.4868965544447,"[50, 0, 204]",204,l,0.4700923371419776,colour,0.5
049,68,0,2,15,36,736,1136.9935255694436,1137.7828751922352,"[57, 0, 197]",197,l,0.2660751103248913,colour,0.5
049,68,0,2,15,37,737,1138.2798490783025,1139.0628825965396,"[73, 0, 181]",181,l,0.2596640889241826,colour,0.5
049,68,0,2,15,38,738,1139.5768458074017,1140.8308924741868,"[56, 0, 198]",198,l,0.7306177667633165,colour,0.5
049,68,0,2,15,39,739,1141.3432818773726,1142.766893718741,"[13, 0, 241]",241,a,0.9001979074964765,colour,0.5
049,68,0,2,15,40,740,1143.2684925356298,1144.0068592178577,"[17, 0, 237]",237,a,0.2150106436747592,colour,0.5
049,68,0,2,15,41,741,1144.5186023201386,1145.1428813362436,"[20, 0, 234]",234,a,0.1009229775518179,colour,0.5
049,68,0,2,15,42,742,1145.659324200038,1146.5428506162716,"[14, 0, 240]",240,a,0.36018573766341433,colour,0.5
049,68,0,2,15,43,743,1147.0500459815084,1148.2548674413702,"[47, 0, 207]",207,l,0.6783449813374318,colour,0.5
049,68,0,2,15,44,744,1148.772118082852,1149.8468448031053,"[40, 0, 214]",214,a,0.551393918634858,colour,0.5
049,68,0,2,15,45,745,1150.3658980766486,1151.3908840458898,"[39, 0, 215]",215,a,0.5017662013415247,colour,0.5
049,68,0,2,15,46,746,1151.897264544241,1152.8708756963606,"[31, 0, 223]",223,a,0.45020903361728415,colour,0.5
049,68,0,2,15,47,747,1153.3818346517219,1154.1748891816533,"[19, 0, 235]",235,a,0.26991786347934976,colour,0.5
049,68,0,2,15,48,748,1154.694462725456,1155.3748624001455,"[82, 0, 172]",172,l,0.1570322146289982,colour,0.5
049,68,0,2,15,49,749,1155.8820475253742,1156.926846299728,"[88, 0, 166]",166,l,0.521969701454509,colour,0.5
049,68,0,2,15,50,750,1157.4354630543094,1158.4628912611515,"[92, 0, 162]",162,l,0.5040032452961896,colour,0.5
049,68,0,2,16,1,751,1163.9351985868707,1165.142932536197,"[66, 0, 188]",188,l,0.6840010003652424,colour,0.5
049,68,0,2,16,2,752,1165.6548635029176,1166.6788888823357,"[57, 0, 197]",197,a,0.5011817342310678,colour,0.5
049,68,0,2,16,3,753,1167.1863032257825,1167.7269128596527,"[10, 0, 244]",244,a,0.017692733352305368,colour,0.5
049,68,0,2,16,4,754,1168.2332323119044,1169.1508815252746,"[40, 0, 214]",214,a,0.39481580816209316,colour,0.5
049,68,0,2,16,5,755,1169.670920594799,1170.2948742942826,"[21, 0, 233]",233,a,0.1012360849417746,colour,0.5
049,68,0,2,16,6,756,1170.811480604083,1171.486962720519,"[81, 0, 173]",173,l,0.15275741266668774,colour,0.5
049,68,0,2,16,7,757,1171.9992253053933,1172.9908675043844,"[13, 0, 241]",241,a,0.468780436902307,colour,0.5
049,68,0,2,16,8,758,1173.4991601239017,1174.1029308032594,"[69, 0, 185]",185,l,0.08080021583009511,colour,0.5
049,68,0,2,16,9,759,1174.6245011450956,1175.6548780752055,"[39, 0, 215]",215,a,0.5075707002542913,colour,0.5
049,68,0,2,16,10,760,1176.1714359419711,1177.1270014749607,"[58, 0, 196]",196,l,0.43265532786608674,colour,0.5
049,68,0,2,16,11,761,1177.6403266556736,1178.6709375301434,"[28, 0, 226]",226,a,0.5079531244700775,colour,0.5
049,68,0,2,16,12,762,1179.187250818708,1180.26287196271,"[50, 0, 204]",204,l,0.5528054618625902,colour,0.5
049,68,0,2,16,13,763,1180.7810753170925,1181.8948790204304,"[98, 0, 156]",156,l,0.5910813626251183,colour,0.5
049,68,0,2,16,14,764,1182.4061617170228,1183.3988562719023,"[6, 0, 248]",248,a,0.4698229466448538,colour,0.5
049,68,0,2,16,15,765,1183.9062174461724,1184.6388599740458,"[53, 0, 201]",201,l,0.20979691343382,colour,0.5
049,68,0,2,16,16,766,1185.1564934336056,1185.8709284717042,"[87, 0, 167]",167,l,0.1917249066173099,colour,0.5
049,68,0,2,16,17,767,1186.3908868028084,1187.1828610138036,"[82, 0, 172]",172,l,0.26917625189526007,colour,0.5
049,68,0,2,16,18,768,1187.6891824352788,1188.6951176909497,"[79, 0, 175]",175,l,0.4830711304966826,colour,0.5
049,68,0,2,16,19,769,1189.2048521798279,1190.3908934982028,"[36, 0, 218]",218,a,0.6630031133536249,colour,0.5
049,68,0,2,16,20,770,1190.908195339638,1191.6948861096462,"[96, 0, 158]",158,l,0.2638518509629648,colour,0.5
049,68,0,2,16,21,771,1192.2051038472855,1192.878862100828,"[94, 0, 160]",160,l,0.15074801159789786,colour,0.5
049,68,0,2,16,22,772,1193.3928221609094,1194.4709111424745,"[19, 0, 235]",235,a,0.5551606595108751,colour,0.5
049,68,0,2,16,23,773,1194.9866084562673,1195.814828293107,"[3, 0, 251]",251,a,0.30525055484031327,colour,0.5
049,68,0,2,16,24,774,1196.330477951531,1199.2308747511415,"[88, 0, 166]",166,l,2.377463751414325,colour,0.5
049,68,0,2,16,25,775,1199.7370508435124,1200.518878012197,"[29, 0, 225]",225,a,0.2589425635233056,colour,0.5
049,68,0,2,16,26,776,1201.0339739234769,1201.7430006715003,"[34, 0, 220]",220,a,0.18607046295073815,colour,0.5
049,68,0,2,16,27,777,1202.2528797017876,1203.3348831164185,"[47, 0, 207]",207,a,0.5590849387517665,colour,0.5
049,68,0,2,16,28,778,1203.8471803597058,1204.806868670159,"[33, 0, 221]",221,a,0.43677731763455085,colour,0.5
049,68,0,2,16,29,779,1205.3160813133873,1205.9268262135738,"[41, 0, 213]",213,a,0.08768463981687091,colour,0.5
049,68,0,2,16,30,780,1206.441148217942,1207.0948652358202,"[30, 0, 224]",224,a,0.13085131731349975,colour,0.5
049,68,0,2,16,31,781,1207.6131260916882,1208.2948648419697,"[46, 0, 208]",208,a,0.15890849582501687,colour,0.5
049,68,0,2,16,32,782,1208.8007317654265,1209.4228702297842,"[17, 0, 237]",237,a,0.09920817308011465,colour,0.5
049,68,0,2,16,33,783,1209.9414847591543,1210.5108762477466,"[44, 0, 210]",210,a,0.04657186797703616,colour,0.5
049,68,0,2,16,34,784,1211.0196954390558,1211.9188709229638,"[68, 0, 186]",186,l,0.3763854017306585,colour,0.5
049,68,0,2,16,35,785,1212.4260698327853,1213.1188697414182,"[70, 0, 184]",184,l,0.17008859559427947,colour,0.5
049,68,0,2,16,36,786,1213.6291280451696,1214.2388560355757,"[92, 0, 162]",162,l,0.0869686281948816,colour,0.5
049,68,0,2,16,37,787,1214.7543639095384,1215.4388674571237,"[83, 0, 171]",171,l,0.1616792008280754,colour,0.5
049,68,0,2,16,38,788,1215.9575548479334,1216.7669027771917,"[90, 0, 164]",164,l,0.2866507946746424,colour,0.5
049,68,0,2,16,39,789,1217.285737072496,1218.0389710385643,"[76, 0, 178]",178,l,0.23039780394174159,colour,0.5
049,68,0,2,16,40,790,1218.5515053769923,1219.4708859363454,"[49, 0, 205]",205,l,0.3966672771202866,colour,0.5
049,68,0,2,16,41,791,1219.989119223028,1220.6708485210256,"[77, 0, 177]",177,l,0.15901365267927758,colour,0.5
049,68,0,2,16,42,792,1221.1922692014487,1222.2708985394274,"[18, 0, 236]",236,a,0.5556557236704975,colour,0.5
049,68,0,2,16,43,793,1222.7862142166414,1223.7828220230585,"[65, 0, 189]",189,l,0.47385080726235174,colour,0.5
049,68,0,2,16,44,794,1224.3019595796068,1225.0148688592017,"[74, 0, 180]",180,l,0.19003136979881674,colour,0.5
049,68,0,2,16,45,795,1225.5364537733258,1226.5828235984372,"[23, 0, 231]",231,a,0.5236025859776419,colour,0.5
049,68,0,2,16,46,796,1227.0990293671202,1228.0868729236827,"[8, 0, 246]",246,a,0.46495186220272444,colour,0.5
049,68,0,2,16,47,797,1228.5990724932344,1229.3108041739906,"[75, 0, 179]",179,l,0.18879075566655956,colour,0.5
049,68,0,2,16,48,798,1229.8179369177378,1230.9588123974681,"[24, 0, 230]",230,a,0.617985754593974,colour,0.5
049,68,0,2,16,49,799,1231.474420702114,1232.1267777705507,"[60, 0, 194]",194,l,0.12968907845788635,colour,0.5
049,68,0,2,16,50,800,1232.6463229574729,1233.910882549273,"[11, 0, 243]",243,a,0.741846309567336,colour,0.5
