id,age,condition,counterbalance,block,trialinblock,trial,tstart,tend,trialstim,trialintensity,response,RT,trialtype,colourfreq
127,20,1,2,Practice,1,NA,5.907611921429634e-06,1.5823591894004494,"[92, 0, 162]",162,a,1.0579846848268062,colour,0.5
127,20,1,2,Practice,2,NA,2.095880100969225,2.982326185097918,"[1, 0, 253]",253,a,0.36393368104472756,colour,0.5
127,20,1,2,Practice,3,NA,3.5020178672857583,4.070347100030631,"[88, 0, 166]",166,l,0.044973212759941816,colour,0.5
127,20,1,2,Practice,4,NA,4.580156805692241,5.21431770012714,"[42, 0, 212]",212,a,0.10947879659943283,colour,0.5
127,20,1,2,Practice,5,NA,5.722517365589738,6.342365128686652,"[16, 0, 238]",238,a,0.09681666549295187,colour,0.5
127,20,1,2,Practice,6,NA,6.862734618596733,7.9503412081394345,"[22, 0, 232]",232,a,0.5635581889655441,colour,0.5
127,20,1,2,Practice,7,NA,8.45657755387947,9.030312709277496,"[0, 0, 254]",254,a,0.05033896304666996,colour,0.5
127,20,1,2,Practice,8,NA,9.550280083203688,10.958316184580326,"[63, 0, 191]",191,l,0.8833626681007445,colour,0.5
127,20,1,2,Practice,9,NA,11.473512120777741,12.158318390138447,"[85, 0, 169]",169,l,0.16193743608891964,colour,0.5
127,20,1,2,Practice,10,NA,12.676715108333156,13.5743448282592,"[99, 0, 155]",155,l,0.3743402597028762,colour,0.5
127,20,1,2,1,1,1,4.668176539009437,6.015943651786074,"[73, 0, 181]",181,l,0.8236939001362771,colour,0.5
127,20,1,2,1,2,2,6.528357069706544,9.087961050216109,"[49, 0, 205]",205,a,2.03630034183152,colour,0.5
127,20,1,2,1,3,3,9.60803791321814,10.271946348948404,"[79, 0, 175]",175,l,0.14064181852154434,colour,0.5
127,20,1,2,1,4,4,10.779935306869447,11.367988714016974,"[8, 0, 246]",246,a,0.06504948483780026,colour,0.5
127,20,1,2,1,5,5,11.889290042454377,12.439960032701492,"[99, 0, 155]",155,l,0.02733602561056614,colour,0.5
127,20,1,2,1,6,6,12.953240698203444,13.583986952668056,"[37, 0, 217]",217,a,0.10751587082631886,colour,0.5
127,20,1,2,1,7,7,14.083181341877207,14.679948973469436,"[11, 0, 243]",243,a,0.073460842249915,colour,0.5
127,20,1,2,1,8,8,15.192567584803328,16.11193875549361,"[59, 0, 195]",195,l,0.40147896856069565,colour,0.5
127,20,1,2,1,9,9,16.62476098514162,17.527971495175734,"[35, 0, 219]",219,a,0.38004511105827987,colour,0.5
127,20,1,2,1,10,10,18.046503696125,18.599925484508276,"[42, 0, 212]",212,a,0.03871146379970014,colour,0.5
127,20,1,2,1,11,11,19.116310440003872,19.655974419089034,"[56, 0, 198]",198,a,0.016247700434178114,colour,0.5
127,20,1,2,1,12,12,20.16312054777518,20.76794665120542,"[33, 0, 221]",221,a,0.08169063669629395,colour,0.5
127,20,1,2,1,13,13,21.288138910895213,21.823988102842122,"[55, 0, 199]",199,a,0.013171373633667827,colour,0.5
127,20,1,2,1,14,14,22.334989191032946,22.911982235964388,"[98, 0, 156]",156,l,0.05118533689528704,colour,0.5
127,20,1,2,1,15,15,23.431204454274848,23.95999948005192,"[90, 0, 164]",164,l,0.0022807589266449213,colour,0.5
127,20,1,2,1,16,16,24.481213768711314,25.063909695949405,"[31, 0, 223]",223,a,0.06011775182560086,colour,0.5
127,20,1,2,1,17,17,25.57501987949945,27.81597177241929,"[93, 0, 161]",161,l,1.7176781864836812,colour,0.5
127,20,1,2,1,18,18,28.3264529844746,28.999901144765317,"[45, 0, 209]",209,a,0.15023431833833456,colour,0.5
127,20,1,2,1,19,19,29.513938387623057,30.407936458475888,"[14, 0, 240]",240,a,0.3708744195755571,colour,0.5
127,20,1,2,1,20,20,30.920210061362013,31.823903819778934,"[54, 0, 200]",200,a,0.3803408888634294,colour,0.5
127,20,1,2,1,21,21,32.34345923131332,33.10392242507078,"[77, 0, 177]",177,a,0.23729897639714181,colour,0.5
127,20,1,2,1,22,22,33.62485944642685,34.28794356365688,"[43, 0, 211]",211,a,0.13990926602855325,colour,0.5
127,20,1,2,1,23,23,34.79647760372609,35.775911387987435,"[58, 0, 196]",196,a,0.4560616163071245,colour,0.5
127,20,1,2,1,24,24,36.29662628052756,37.27993707917631,"[41, 0, 213]",213,a,0.4584947933908552,colour,0.5
127,20,1,2,1,25,25,37.798121908679605,38.85590179380961,"[39, 0, 215]",215,a,0.5344333173707128,colour,0.5
127,20,1,2,1,26,26,39.376266164006665,40.31994390068576,"[19, 0, 235]",235,a,0.4205682638566941,colour,0.5
127,20,1,2,1,27,27,40.83085834281519,41.599877829197794,"[69, 0, 185]",185,l,0.24584699817933142,colour,0.5
127,20,1,2,1,28,28,42.11202697688714,42.6799186472781,"[38, 0, 216]",216,a,0.04463135474361479,colour,0.5
127,20,1,2,1,29,29,43.19011156470515,43.99993974179961,"[26, 0, 228]",228,a,0.2867529687937349,colour,0.5
127,20,1,2,1,30,30,44.51829077373259,45.49589869030751,"[71, 0, 183]",183,l,0.4543531145900488,colour,0.5
127,20,1,2,1,31,31,46.00400855904445,47.81588827702217,"[57, 0, 197]",197,l,1.2886225529946387,colour,0.5
127,20,1,2,1,32,32,48.33212278364226,48.96790671534836,"[72, 0, 182]",182,a,0.11249880376271904,colour,0.5
127,20,1,2,1,33,33,49.48844713438302,51.03993829223327,"[2, 0, 252]",252,a,1.0282607744447887,colour,0.5
127,20,1,2,1,34,34,51.55219929222949,52.39187583466992,"[50, 0, 204]",204,a,0.31642804224975407,colour,0.5
127,20,1,2,1,35,35,52.911606901325285,53.59989555226639,"[83, 0, 171]",171,l,0.16500352299772203,colour,0.5
127,20,1,2,1,36,36,54.11469449219294,56.70389753417112,"[80, 0, 174]",174,l,2.065852929605171,colour,0.5
127,20,1,2,1,37,37,57.224008267745376,61.86388937360607,"[21, 0, 233]",233,l,4.116709011606872,colour,0.5
127,20,1,2,1,38,38,62.3816685420461,63.135860928567126,"[12, 0, 242]",242,a,0.23083479097113013,colour,0.5
127,20,1,2,1,39,39,63.64735668664798,64.19184999843128,"[9, 0, 245]",245,a,0.021140836412087083,colour,0.5
127,20,1,2,1,40,40,64.70983711746521,65.27986303623766,"[70, 0, 184]",184,l,0.04691408295184374,colour,0.5
127,20,1,2,1,41,41,65.79055022960529,66.39187347167172,"[87, 0, 167]",167,l,0.08020820235833526,colour,0.5
127,20,1,2,1,42,42,66.89915272034705,68.91185975004919,"[97, 0, 157]",157,l,1.4896219752263278,colour,0.5
127,20,1,2,1,43,43,69.43051325553097,69.97587696579285,"[5, 0, 249]",249,a,0.022095123771578074,colour,0.5
127,20,1,2,1,44,44,70.49298738478683,71.15987565508112,"[32, 0, 222]",222,a,0.14375556050799787,colour,0.5
127,20,1,2,1,45,45,71.68040307727642,72.2318678474985,"[66, 0, 188]",188,l,0.02804888552054763,colour,0.5
127,20,1,2,1,46,46,72.74298393866047,73.38386501814239,"[67, 0, 187]",187,l,0.11780114495195448,colour,0.5
127,20,1,2,1,47,47,73.90058474242687,74.6558728069067,"[92, 0, 162]",162,l,0.23203917033970356,colour,0.5
127,20,1,2,1,48,48,75.16621065931395,78.52788642444648,"[16, 0, 238]",238,a,2.8389857376459986,colour,0.5
127,20,1,2,1,49,49,79.04402877134271,79.88784147892147,"[36, 0, 218]",218,a,0.3204602322075516,colour,0.5
127,20,1,2,1,50,50,80.40339345135726,81.49590223492123,"[13, 0, 241]",241,a,0.5695517288986593,colour,0.5
127,20,1,2,2,1,51,86.37268256419338,87.82378369686194,"[41, 0, 213]",213,a,0.927086996845901,colour,0.5
127,20,1,2,2,2,52,88.34222767665051,89.60782563057728,"[2, 0, 252]",252,a,0.7422726538497955,colour,0.5
127,20,1,2,2,3,53,90.12342643970624,90.95180395012721,"[47, 0, 207]",207,a,0.3050888378638774,colour,0.5
127,20,1,2,2,4,54,91.46715821209364,92.42384545202367,"[64, 0, 190]",190,l,0.4334682780317962,colour,0.5
127,20,1,2,2,5,55,92.93591228593141,94.15982209215872,"[44, 0, 210]",210,a,0.7132462435401976,colour,0.5
127,20,1,2,2,6,56,94.67126468103379,95.54383046994917,"[11, 0, 243]",243,a,0.3492582116741687,colour,0.5
127,20,1,2,2,7,57,96.06186288106255,96.99185685138218,"[54, 0, 200]",200,a,0.4045442675705999,colour,0.5
127,20,1,2,2,8,58,97.50182094448246,98.58377388236113,"[89, 0, 165]",165,l,0.5593590086791664,colour,0.5
127,20,1,2,2,9,59,99.09491163492203,100.01577311661094,"[4, 0, 250]",250,a,0.39505101670511067,colour,0.5
127,20,1,2,2,10,60,100.53486457816325,101.55178732983768,"[88, 0, 166]",166,l,0.49363368516787887,colour,0.5
127,20,1,2,2,11,61,102.06596438772976,102.99180525774136,"[68, 0, 186]",186,l,0.40238402551040053,colour,0.5
127,20,1,2,2,12,62,103.50359443062916,104.43980958359316,"[81, 0, 173]",173,l,0.40994349494576454,colour,0.5
127,20,1,2,2,13,63,104.95961745013483,105.91979061602615,"[69, 0, 185]",185,l,0.4491976776625961,colour,0.5
127,20,1,2,2,14,64,106.42626169370487,107.40780885261483,"[52, 0, 202]",202,l,0.4584439874161035,colour,0.5
127,20,1,2,2,15,65,107.9262307768222,108.80779317766428,"[77, 0, 177]",177,l,0.35850767232477665,colour,0.5
127,20,1,2,2,16,66,109.32323763030581,110.16779431188479,"[94, 0, 160]",160,l,0.32179024815559387,colour,0.5
127,20,1,2,2,17,67,110.68249360891059,111.56775776296854,"[86, 0, 168]",168,l,0.3618943493347615,colour,0.5
127,20,1,2,2,18,68,112.08875543647446,112.98379601654597,"[22, 0, 232]",232,a,0.3717058275360614,colour,0.5
127,20,1,2,2,19,69,113.4973870322574,114.49579707835801,"[37, 0, 217]",217,a,0.4749496567528695,colour,0.5
127,20,1,2,2,20,70,115.0130737000145,115.97579386457801,"[25, 0, 229]",229,a,0.4396567717194557,colour,0.5
127,20,1,2,2,21,71,116.4819360813126,117.41577752772719,"[28, 0, 226]",226,a,0.4113833939190954,colour,0.5
127,20,1,2,2,22,72,117.93490049685352,119.10376213002019,"[18, 0, 236]",236,a,0.6454721360933036,colour,0.5
127,20,1,2,2,23,73,119.62239082320593,120.55177118210122,"[72, 0, 182]",182,l,0.4060235512442887,colour,0.5
127,20,1,2,2,24,74,121.05990980146453,121.98375111818314,"[46, 0, 208]",208,l,0.40086141880601645,colour,0.5
127,20,1,2,2,25,75,122.49743980774656,123.39222005568445,"[19, 0, 235]",235,l,0.37142265238799155,colour,0.5
127,20,1,2,2,26,76,123.90493358392268,124.68775853491388,"[15, 0, 239]",239,a,0.25935392803512514,colour,0.5
127,20,1,2,2,27,77,125.20190802379511,126.12776779825799,"[39, 0, 215]",215,a,0.40320795006118715,colour,0.5
127,20,1,2,2,28,78,126.63934390083887,127.86375664756633,"[5, 0, 249]",249,a,0.7010575144086033,colour,0.5
127,20,1,2,2,29,79,128.375129919732,129.38378427992575,"[29, 0, 225]",225,a,0.4854480011854321,colour,0.5
127,20,1,2,2,30,80,129.89047354809009,130.65576725639403,"[58, 0, 196]",196,l,0.24195541138760746,colour,0.5
127,20,1,2,2,31,81,131.16840949840844,132.25580853130668,"[78, 0, 176]",176,l,0.5643801444675773,colour,0.5
127,20,1,2,2,32,82,132.7621413692832,133.54378123930655,"[76, 0, 178]",178,l,0.25831929594278336,colour,0.5
127,20,1,2,2,33,83,134.05903073842637,134.93579295068048,"[43, 0, 211]",211,l,0.3535570348612964,colour,0.5
127,20,1,2,2,34,84,135.44956001569517,136.39974959311076,"[99, 0, 155]",155,l,0.42286359518766403,colour,0.5
127,20,1,2,2,35,85,136.919096266618,137.83972656098194,"[87, 0, 167]",167,l,0.3972459174692631,colour,0.5
127,20,1,2,2,36,86,138.35692323208787,139.34374910150655,"[33, 0, 221]",221,a,0.4634848153218627,colour,0.5
127,20,1,2,2,37,87,139.85758154466748,143.64780842722394,"[56, 0, 198]",198,l,3.2664147892501205,colour,0.5
127,20,1,2,2,38,88,144.15505498670973,145.10375504079275,"[17, 0, 237]",237,a,0.43460767273791134,colour,0.5
127,20,1,2,2,39,89,145.61462576617487,146.52772691706195,"[60, 0, 194]",194,l,0.38987234281376004,colour,0.5
127,20,1,2,2,40,90,147.03637635405175,147.8716855442617,"[67, 0, 187]",187,l,0.30957513116300106,colour,0.5
127,20,1,2,2,41,91,148.38238573470153,149.35173274273984,"[55, 0, 199]",199,a,0.4458629882428795,colour,0.5
127,20,1,2,2,42,92,149.8668522730004,150.72774211945944,"[30, 0, 224]",224,a,0.334871037164703,colour,0.5
127,20,1,2,2,43,93,151.24026738968678,152.06373285944574,"[51, 0, 203]",203,a,0.29809808102436364,colour,0.5
127,20,1,2,2,44,94,152.57053791801445,153.36772089917213,"[92, 0, 162]",162,l,0.27383759478107095,colour,0.5
127,20,1,2,2,45,95,153.88636731519364,154.79171640612185,"[62, 0, 192]",192,l,0.3822750640101731,colour,0.5
127,20,1,2,2,46,96,155.30831521982327,156.0397433389444,"[0, 0, 254]",254,a,0.20820285566151142,colour,0.5
127,20,1,2,2,47,97,156.55605306988582,157.39170766272582,"[20, 0, 234]",234,a,0.3124584739562124,colour,0.5
127,20,1,2,2,48,98,157.90319042396732,158.71968089067377,"[65, 0, 189]",189,l,0.2934408583678305,colour,0.5
127,20,1,2,2,49,99,159.23127511003986,160.03971970803104,"[9, 0, 245]",245,a,0.2851425346452743,colour,0.5
127,20,1,2,2,50,100,160.55936176562682,161.33571898657829,"[6, 0, 248]",248,a,0.25330367404967546,colour,0.5
127,20,1,2,3,1,101,165.7793457203079,168.23967859055847,"[90, 0, 164]",164,l,1.9357295415829867,colour,0.5
127,20,1,2,3,2,102,168.74891564506106,169.38370748003945,"[84, 0, 170]",170,l,0.11145117483101785,colour,0.5
127,20,1,2,3,3,103,169.9050954543054,170.47968328534625,"[9, 0, 245]",245,a,0.051495687337592244,colour,0.5
127,20,1,2,3,4,104,170.99885469744913,172.01573727675714,"[86, 0, 168]",168,l,0.49350568535737693,colour,0.5
127,20,1,2,3,5,105,172.53011243906803,173.38371181231923,"[70, 0, 184]",184,l,0.33019924256950617,colour,0.5
127,20,1,2,3,6,106,173.9051466542296,174.64768830453977,"[13, 0, 241]",241,a,0.21917460253462195,colour,0.5
127,20,1,2,3,7,107,175.15653466410004,176.12784381047823,"[54, 0, 200]",200,l,0.448040165938437,colour,0.5
127,20,1,2,3,8,108,176.64091140567325,177.54366426728666,"[64, 0, 190]",190,l,0.3795086934696883,colour,0.5
127,20,1,2,3,9,109,178.06188375502825,178.84762985771522,"[71, 0, 183]",183,l,0.2624373440630734,colour,0.5
127,20,1,2,3,10,110,179.35876091499813,179.9036524046678,"[67, 0, 187]",187,l,0.02172884764149785,colour,0.5
127,20,1,2,3,11,111,180.42119014589116,181.2316795894876,"[93, 0, 161]",161,a,0.2852457221597433,colour,0.5
127,20,1,2,3,12,112,181.7502507811878,183.111704811221,"[28, 0, 226]",226,a,0.838142120745033,colour,0.5
127,20,1,2,3,13,113,183.62497878167778,184.51170804072171,"[5, 0, 249]",249,a,0.36352171865291893,colour,0.5
127,20,1,2,3,14,114,185.01902194786817,185.80769826075993,"[8, 0, 246]",246,a,0.265237191459164,colour,0.5
127,20,1,2,3,15,115,186.31586799398065,187.11966245877557,"[23, 0, 231]",231,a,0.2804313553497195,colour,0.5
127,20,1,2,3,16,116,187.6283780618105,188.3917064811103,"[44, 0, 210]",210,a,0.23998185154050589,colour,0.5
127,20,1,2,3,17,117,188.9108613517601,189.66368394368328,"[34, 0, 220]",220,a,0.229534313082695,colour,0.5
127,20,1,2,3,18,118,190.17652232106775,190.89565104036592,"[40, 0, 214]",214,a,0.20805083122104406,colour,0.5
127,20,1,2,3,19,119,191.4142880041618,192.17565034725703,"[22, 0, 232]",232,a,0.2379811166319996,colour,0.5
127,20,1,2,3,20,120,192.69620455079712,193.46363211376593,"[6, 0, 248]",248,a,0.2441006873268634,colour,0.5
127,20,1,2,3,21,121,193.9774302924052,194.73564226552844,"[98, 0, 156]",156,l,0.23489336832426488,colour,0.5
127,20,1,2,3,22,122,195.24303848622367,196.1276354661677,"[32, 0, 222]",222,a,0.35993299912661314,colour,0.5
127,20,1,2,3,23,123,196.63682644069195,197.51960267289542,"[53, 0, 201]",201,a,0.35835801088251173,colour,0.5
127,20,1,2,3,24,124,198.01985886949115,198.72760348580778,"[75, 0, 179]",179,l,0.19692548480816185,colour,0.5
127,20,1,2,3,25,125,199.24403491523117,199.98365344433114,"[35, 0, 219]",219,a,0.22846069047227502,colour,0.5
127,20,1,2,3,26,126,200.49742247839458,201.27962987986393,"[91, 0, 163]",163,l,0.2587718244176358,colour,0.5
127,20,1,2,3,27,127,201.7943354784511,202.43961935630068,"[36, 0, 218]",218,a,0.1219692116137594,colour,0.5
127,20,1,2,3,28,128,202.95056176139042,203.74360582069494,"[65, 0, 189]",189,l,0.2805455706547946,colour,0.5
127,20,1,2,3,29,129,204.2522662852425,205.0236090659164,"[80, 0, 174]",174,l,0.2526329553220421,colour,0.5
127,20,1,2,3,30,130,205.54438854916953,206.48759327735752,"[29, 0, 225]",225,a,0.4198908496182412,colour,0.5
127,20,1,2,3,31,131,206.99749908130616,207.9676455957815,"[17, 0, 237]",237,a,0.44676056201569736,colour,0.5
127,20,1,2,3,32,132,208.48185888747685,209.37559268833138,"[46, 0, 208]",208,l,0.3703277623280883,colour,0.5
127,20,1,2,3,33,133,209.88817230891436,210.65563059179112,"[96, 0, 158]",158,l,0.24416921637021005,colour,0.5
127,20,1,2,3,34,134,211.17077414668165,212.03960864362307,"[11, 0, 243]",243,a,0.34555330756120384,colour,0.5
127,20,1,2,3,35,135,212.54576464509591,213.34360889252275,"[99, 0, 155]",155,l,0.27462016558274627,colour,0.5
127,20,1,2,3,36,136,213.85821090987884,214.65558372437954,"[89, 0, 165]",165,l,0.2743665291927755,colour,0.5
127,20,1,2,3,37,137,215.17214787960984,216.03158916253597,"[69, 0, 185]",185,l,0.3361758473329246,colour,0.5
127,20,1,2,3,38,138,216.54696390451863,217.3996219872497,"[21, 0, 233]",233,a,0.32939304085448384,colour,0.5
127,20,1,2,3,39,139,217.90616789553314,218.6635984792374,"[0, 0, 254]",254,a,0.23418917250819504,colour,0.5
127,20,1,2,3,40,140,219.17169416951947,220.1996079662349,"[25, 0, 229]",229,a,0.5019517010077834,colour,0.5
127,20,1,2,3,41,141,220.7211452079937,221.50356331677176,"[52, 0, 202]",202,l,0.25891872867941856,colour,0.5
127,20,1,2,3,42,142,222.01808459567837,222.86358847562224,"[30, 0, 224]",224,a,0.3220954784192145,colour,0.5
127,20,1,2,3,43,143,223.3781424437184,224.19161684205756,"[37, 0, 217]",217,a,0.2889829217456281,colour,0.5
127,20,1,2,3,44,144,224.70967957912944,225.47958521777764,"[58, 0, 196]",196,l,0.2467126704286784,colour,0.5
127,20,1,2,3,45,145,225.99092146847397,226.71959266928025,"[88, 0, 166]",166,l,0.20536007918417454,colour,0.5
127,20,1,2,3,46,146,227.24102869280614,228.10362389031798,"[4, 0, 250]",250,a,0.33934472780674696,colour,0.5
127,20,1,2,3,47,147,228.6158974932041,230.2396596861072,"[55, 0, 199]",199,l,1.1003167699091136,colour,0.5
127,20,1,2,3,48,148,230.75775865698233,231.6555553674698,"[78, 0, 176]",176,l,0.37433986575342715,colour,0.5
127,20,1,2,3,49,149,232.16427293955348,232.95955207175575,"[31, 0, 223]",223,a,0.2833816516213119,colour,0.5
127,20,1,2,3,50,150,233.4809518614784,234.2715800725855,"[72, 0, 182]",182,l,0.26726510166190565,colour,0.5
127,20,1,2,4,1,151,239.50772074935958,240.64758787374012,"[16, 0, 238]",238,a,0.6165024396032095,colour,0.5
127,20,1,2,4,2,152,241.16515160887502,241.97553510800935,"[88, 0, 166]",166,l,0.2871917125303298,colour,0.5
127,20,1,2,4,3,153,242.49327567964792,243.22351280995645,"[13, 0, 241]",241,a,0.207311189500615,colour,0.5
127,20,1,2,4,4,154,243.743279322749,244.4475376191549,"[80, 0, 174]",174,l,0.18112164828926325,colour,0.5
127,20,1,2,4,5,155,244.96336292033084,245.55156126245856,"[5, 0, 249]",249,a,0.06478678970597684,colour,0.5
127,20,1,2,4,6,156,246.07278657867573,246.81554484390654,"[9, 0, 245]",245,a,0.21951370337046683,colour,0.5
127,20,1,2,4,7,157,247.32458891393617,248.07156880851835,"[36, 0, 218]",218,a,0.22374832956120372,colour,0.5
127,20,1,2,4,8,158,248.59212852595374,249.35953482124023,"[85, 0, 169]",169,l,0.2442208102438599,colour,0.5
127,20,1,2,4,9,159,249.87337120296434,250.63952625123784,"[33, 0, 221]",221,a,0.2428616494871676,colour,0.5
127,20,1,2,4,10,160,251.15513414959423,251.91953697963618,"[77, 0, 177]",177,l,0.24095622543245554,colour,0.5
127,20,1,2,4,11,161,252.43645480810665,253.19155225134455,"[35, 0, 219]",219,a,0.2318016814533621,colour,0.5
127,20,1,2,4,12,162,253.70203425129876,254.46352656325325,"[21, 0, 233]",233,a,0.238453337457031,colour,0.5
127,20,1,2,4,13,163,254.9833033157047,255.7435219315812,"[34, 0, 220]",220,a,0.2369236417580396,colour,0.5
127,20,1,2,4,14,164,256.25020962418057,256.9595473455265,"[98, 0, 156]",156,l,0.18568277242593467,colour,0.5
127,20,1,2,4,15,165,257.4696595245041,258.3435348495841,"[49, 0, 205]",205,a,0.3506713293027133,colour,0.5
127,20,1,2,4,16,166,258.8610020924825,259.67949486966245,"[6, 0, 248]",248,a,0.2951521170325577,colour,0.5
127,20,1,2,4,17,167,260.18914428027347,260.95957649010234,"[81, 0, 173]",173,l,0.24711951264180243,colour,0.5
127,20,1,2,4,18,168,261.47037356649525,262.0075582882855,"[20, 0, 234]",234,a,0.013806646456941962,colour,0.5
127,20,1,2,4,19,169,262.5172297540121,263.15155724529177,"[63, 0, 191]",191,l,0.11172017129138112,colour,0.5
127,20,1,2,4,20,170,263.6577947726473,264.8475467565004,"[92, 0, 162]",162,l,0.6663585484493524,colour,0.5
127,20,1,2,4,21,171,265.361021587858,266.1035096750129,"[87, 0, 167]",167,l,0.21934080496430397,colour,0.5
127,20,1,2,4,22,172,266.62069649994373,267.3595178858377,"[78, 0, 176]",176,l,0.22138092457316816,colour,0.5
127,20,1,2,4,23,173,267.88035880890675,268.66347402427346,"[30, 0, 224]",224,a,0.25973792746663094,colour,0.5
127,20,1,2,4,24,174,269.17726826434955,269.9915142059326,"[39, 0, 215]",215,a,0.2909572690259665,colour,0.5
127,20,1,2,4,25,175,270.50535885826685,271.2634881238919,"[1, 0, 253]",253,a,0.23480632854625583,colour,0.5
127,20,1,2,4,26,176,271.77098516910337,272.57549879536964,"[55, 0, 199]",199,l,0.29374923929572105,colour,0.5
127,20,1,2,4,27,177,273.07422175165266,273.79948973376304,"[68, 0, 186]",186,l,0.20200018351897597,colour,0.5
127,20,1,2,4,28,178,274.30854128696956,275.02348185377195,"[90, 0, 164]",164,l,0.1917861953843385,colour,0.5
127,20,1,2,4,29,179,275.54286279180087,276.5835088242311,"[71, 0, 183]",183,l,0.521790090482682,colour,0.5
127,20,1,2,4,30,180,277.0820246178191,278.06350403511897,"[56, 0, 198]",198,a,0.4647017978131771,colour,0.5
127,20,1,2,4,31,181,278.57566145365126,280.0154808834195,"[66, 0, 188]",188,l,0.9287671416532248,colour,0.5
127,20,1,2,4,32,182,280.5237439579796,281.19148766063154,"[11, 0, 243]",243,a,0.144390833331272,colour,0.5
127,20,1,2,4,33,183,281.71125574875623,282.5674753759522,"[76, 0, 178]",178,l,0.33101410884410143,colour,0.5
127,20,1,2,4,34,184,283.0880536038894,283.87950928439386,"[86, 0, 168]",168,l,0.2680961156729609,colour,0.5
127,20,1,2,4,35,185,284.40056130848825,285.16746742022224,"[4, 0, 250]",250,a,0.24350716243498027,colour,0.5
127,20,1,2,4,36,186,285.6819000837859,286.4555248050019,"[10, 0, 244]",244,a,0.2504510513972491,colour,0.5
127,20,1,2,4,37,187,286.9644192138221,287.7274412214756,"[99, 0, 155]",155,l,0.23971443041227758,colour,0.5
127,20,1,2,4,38,188,288.2455575217027,288.96746324538253,"[19, 0, 235]",235,a,0.19849889748729765,colour,0.5
127,20,1,2,4,39,189,289.48090696311556,290.09548783069476,"[64, 0, 190]",190,l,0.09127565356902778,colour,0.5
127,20,1,2,4,40,190,290.6058111109305,291.2874508628156,"[38, 0, 216]",216,a,0.1714476221241057,colour,0.5
127,20,1,2,4,41,191,291.79402434057556,292.5274748560041,"[75, 0, 179]",179,l,0.2102008336223662,colour,0.5
127,20,1,2,4,42,192,293.0440598849673,294.04751706053503,"[29, 0, 225]",225,a,0.4801878014113754,colour,0.5
127,20,1,2,4,43,193,294.5596433652099,295.4394752087537,"[8, 0, 246]",246,a,0.35683619207702577,colour,0.5
127,20,1,2,4,44,194,295.95023486972786,296.8634329068009,"[52, 0, 202]",202,l,0.38996962271630764,colour,0.5
127,20,1,2,4,45,195,297.3721280298196,298.2475188721437,"[40, 0, 214]",214,a,0.3494913682807237,colour,0.5
127,20,1,2,4,46,196,298.7617105024401,299.7514665820636,"[57, 0, 197]",197,l,0.46635831193998456,colour,0.5
127,20,1,2,4,47,197,300.26171542541124,301.0314406827092,"[82, 0, 172]",172,l,0.24405027506873012,colour,0.5
127,20,1,2,4,48,198,301.545295575168,302.3674554473255,"[48, 0, 206]",206,a,0.2989188549108803,colour,0.5
127,20,1,2,4,49,199,302.8890509782359,303.69541095220484,"[45, 0, 209]",209,a,0.28310911054722965,colour,0.5
127,20,1,2,4,50,200,304.21711085224524,304.9674183470197,"[96, 0, 158]",158,l,0.2269798314664513,colour,0.5
127,20,1,2,5,1,201,309.03005040832795,310.6634236120153,"[53, 0, 201]",201,l,1.1082070698030293,colour,0.4
127,20,1,2,5,2,202,311.17221247032285,311.76738581527025,"[80, 0, 174]",174,l,0.07201700448058546,colour,0.4
127,20,1,2,5,3,203,312.28152427636087,313.4553889282979,"[50, 0, 204]",204,a,0.6507555728312582,colour,0.4
127,20,1,2,5,4,204,313.97201570495963,314.7434341039043,"[74, 0, 180]",180,l,0.2558609126135707,colour,0.4
127,20,1,2,5,5,205,315.2580865332857,315.9914763967972,"[58, 0, 196]",196,l,0.21030441508628428,colour,0.4
127,20,1,2,5,6,206,316.50802204129286,317.2554170489311,"[86, 0, 168]",168,l,0.22414808277972043,colour,0.4
127,20,1,2,5,7,207,317.77361448132433,318.53543092799373,"[60, 0, 194]",194,l,0.23844546056352556,colour,0.4
127,20,1,2,5,8,208,319.0464977885131,319.7434333162382,"[57, 0, 197]",197,l,0.1791744763031602,colour,0.4
127,20,1,2,5,9,209,320.2596374968998,321.0554069664795,"[92, 0, 162]",162,l,0.27305463002994657,colour,0.4
127,20,1,2,5,10,210,321.57211763225496,322.4073917702772,"[26, 0, 228]",228,a,0.31194253638386726,colour,0.4
127,20,1,2,5,11,211,322.9158131708391,323.74340653489344,"[11, 0, 243]",243,a,0.3040951658040285,colour,0.4
127,20,1,2,5,12,212,324.25960008148104,325.36739282589406,"[95, 0, 159]",159,l,0.5849199725780636,colour,0.4
127,20,1,2,5,13,213,325.88464424130507,326.6394277899526,"[89, 0, 165]",165,l,0.23140744236297905,colour,0.4
127,20,1,2,5,14,214,327.1502481030766,327.91941331210546,"[19, 0, 235]",235,a,0.24591158889234066,colour,0.4
127,20,1,2,5,15,215,328.43153055827133,329.27941208332777,"[52, 0, 202]",202,a,0.3245581940282136,colour,0.4
127,20,1,2,5,16,216,329.7893872039858,330.3274190875236,"[28, 0, 226]",226,l,0.014699100283905864,colour,0.4
127,20,1,2,5,17,217,330.83956665964797,331.86340297432616,"[83, 0, 171]",171,l,0.5005023498088121,colour,0.4
127,20,1,2,5,18,218,332.3708137674257,333.2153838397935,"[98, 0, 156]",156,l,0.32128021819517016,colour,0.4
127,20,1,2,5,19,219,333.73017135821283,334.5194656148087,"[0, 0, 254]",254,a,0.26625843276269734,colour,0.4
127,20,1,2,5,20,220,335.0270359152928,335.83139869896695,"[41, 0, 213]",213,a,0.2809681666549295,colour,0.4
127,20,1,2,5,21,221,336.3408051067963,337.1513658363838,"[66, 0, 188]",188,l,0.28726063552312553,colour,0.4
127,20,1,2,5,22,222,337.6689634420909,338.4794111379888,"[5, 0, 249]",249,a,0.29666448337957263,colour,0.4
127,20,1,2,5,23,223,338.9877431355417,339.7353500321042,"[7, 0, 247]",247,a,0.22418667958118021,colour,0.4
127,20,1,2,5,24,224,340.2477614809759,340.83934925706126,"[16, 0, 238]",238,a,0.0682451466564089,colour,0.4
127,20,1,2,5,25,225,341.35711227799766,343.45541964820586,"[1, 0, 253]",253,a,1.5748985749669373,colour,0.4
127,20,1,2,5,26,226,343.9678047094494,344.9193703830242,"[77, 0, 177]",177,l,0.4282061089761555,colour,0.4
127,20,1,2,5,27,227,345.43653987860307,346.3193822770845,"[54, 0, 200]",200,l,0.3594907105434686,colour,0.4
127,20,1,2,5,28,228,346.82716722320765,347.3914197618142,"[44, 0, 210]",210,l,0.04101309669204056,colour,0.4
127,20,1,2,5,29,229,347.9052435401827,349.0553455266636,"[46, 0, 208]",208,l,0.6267566001042724,colour,0.4
127,20,1,2,5,30,230,349.5615350047592,350.5514805242419,"[14, 0, 240]",240,a,0.4666875668335706,colour,0.4
127,20,1,2,5,31,231,351.06154977413826,351.94335635891184,"[63, 0, 191]",191,l,0.35858919844031334,colour,0.4
127,20,1,2,5,32,232,352.45209716795944,353.25536624272354,"[10, 0, 244]",244,a,0.28513150685466826,colour,0.4
127,20,1,2,5,33,233,353.77489290363155,354.5513777304441,"[71, 0, 183]",183,l,0.2532213602680713,colour,0.4
127,20,1,2,5,34,234,355.0625477784779,355.895373379346,"[61, 0, 193]",193,l,0.3094530391972512,colour,0.4
127,20,1,2,5,35,235,356.40637919376604,357.2473475493025,"[68, 0, 186]",186,l,0.31769386143423617,colour,0.4
127,20,1,2,5,36,236,357.7986996797845,358.5593897285871,"[31, 0, 223]",223,a,0.22891597589477897,colour,0.4
127,20,1,2,5,37,237,359.07272435119376,359.8633478360716,"[51, 0, 203]",203,a,0.267303304746747,colour,0.4
127,20,1,2,5,38,238,360.36968421866186,361.0873549222015,"[37, 0, 217]",217,a,0.19437218480743468,colour,0.4
127,20,1,2,5,39,239,361.58942989702336,362.3993762275204,"[59, 0, 195]",195,a,0.28698533750139177,colour,0.4
127,20,1,2,5,40,240,362.9174649587367,363.64736298820935,"[75, 0, 179]",179,l,0.20385716506280005,colour,0.4
127,20,1,2,5,41,241,364.1451635581907,364.8393275956623,"[42, 0, 212]",212,a,0.1708139250986278,colour,0.4
127,20,1,2,5,42,242,365.34825351205654,366.0553636434488,"[12, 0, 242]",242,a,0.1838301233947277,colour,0.4
127,20,1,2,5,43,243,366.5622510157991,367.4473316380754,"[93, 0, 161]",161,l,0.3617679250892252,colour,0.4
127,20,1,2,5,44,244,367.9592822876293,368.583315839991,"[70, 0, 184]",184,l,0.10092801786959171,colour,0.4
127,20,1,2,5,45,245,369.1000048443675,369.84731399361044,"[43, 0, 211]",211,a,0.2240834920667112,colour,0.4
127,20,1,2,5,46,246,370.36555474903435,371.04734179913066,"[67, 0, 187]",187,l,0.15844599599950016,colour,0.4
127,20,1,2,5,47,247,371.568635644624,372.20736593403853,"[94, 0, 160]",160,l,0.12788004404865205,colour,0.4
127,20,1,2,5,48,248,372.7280682234559,373.45531449164264,"[56, 0, 198]",198,l,0.20395365706644952,colour,0.4
127,20,1,2,5,49,249,373.96244447282515,374.69530855235644,"[34, 0, 220]",220,a,0.2095383855048567,colour,0.4
127,20,1,2,5,50,250,375.21248631877825,375.8233189592138,"[65, 0, 189]",189,l,0.08755538938567042,colour,0.4
127,20,1,2,6,1,251,380.44771169894375,381.0393006566446,"[51, 0, 203]",203,a,0.07060152431949973,colour,0.28
127,20,1,2,6,2,252,381.5435945566278,383.01527529605664,"[88, 0, 166]",166,l,0.9483625283464789,colour,0.28
127,20,1,2,6,3,253,383.52795180282556,384.879303697031,"[63, 0, 191]",191,l,0.8280923662241548,colour,0.28
127,20,1,2,6,4,254,385.38724027364515,386.3193334401585,"[53, 0, 201]",201,a,0.40870406315661967,colour,0.28
127,20,1,2,6,5,255,386.83849303703755,387.495302408468,"[55, 0, 199]",199,a,0.13345610816031694,colour,0.28
127,20,1,2,6,6,256,388.0127861928195,388.58328866469674,"[24, 0, 230]",230,a,0.04720159014686942,colour,0.28
127,20,1,2,6,7,257,389.09364030184224,389.63929033768363,"[77, 0, 177]",177,l,0.022262114332988858,colour,0.28
127,20,1,2,6,8,258,390.15613963711075,390.7512743854895,"[35, 0, 219]",219,a,0.0758940193336457,colour,0.28
127,20,1,2,6,9,259,391.261472028913,391.83134395442903,"[74, 0, 180]",180,l,0.043921251548454165,colour,0.28
127,20,1,2,6,10,260,392.32974474481307,393.11130466428585,"[45, 0, 209]",209,a,0.2581211917567998,colour,0.28
127,20,1,2,6,11,261,393.6193905083928,394.38326913001947,"[97, 0, 157]",157,l,0.24045407236553729,colour,0.28
127,20,1,2,6,12,262,394.90406712400727,395.4873171916697,"[89, 0, 165]",165,l,0.059960607439279556,colour,0.28
127,20,1,2,6,13,263,395.9978200653568,396.89524577348493,"[91, 0, 163]",163,l,0.37406299263238907,colour,0.28
127,20,1,2,6,14,264,397.40408937609755,398.40728109981865,"[0, 0, 254]",254,a,0.4798770572524518,colour,0.28
127,20,1,2,6,15,265,398.9196720686741,400.3032676964067,"[68, 0, 186]",186,l,0.860283718444407,colour,0.28
127,20,1,2,6,16,266,400.8117076077033,401.4792823505122,"[52, 0, 202]",202,l,0.14416319062002003,colour,0.28
127,20,1,2,6,17,267,401.9991548077669,402.81525457976386,"[54, 0, 200]",200,l,0.2927252412773669,colour,0.28
127,20,1,2,6,18,268,403.3273411060218,404.07125688297674,"[57, 0, 197]",197,l,0.22065861197188497,colour,0.28
127,20,1,2,6,19,269,404.5651678352151,405.13529260945506,"[81, 0, 173]",173,l,0.04685658146627247,colour,0.28
127,20,1,2,6,20,270,405.63265010342,406.6472932775505,"[28, 0, 226]",226,a,0.4912414678838104,colour,0.28
127,20,1,2,6,21,271,407.15676270076074,407.82329178391956,"[60, 0, 194]",194,l,0.14325813367031515,colour,0.28
127,20,1,2,6,22,272,408.34418469457887,409.03130716923624,"[79, 0, 175]",175,l,0.1603982881642878,colour,0.28
127,20,1,2,6,23,273,409.5398404216394,410.14325695228763,"[94, 0, 160]",160,l,0.0803196607157588,colour,0.28
127,20,1,2,6,24,274,410.6648386986926,411.5272389424499,"[62, 0, 192]",192,l,0.3398894160054624,colour,0.28
127,20,1,2,6,25,275,412.0397602741141,413.08727339608595,"[85, 0, 169]",169,l,0.5241685232613236,colour,0.28
127,20,1,2,6,26,276,413.6021983665414,414.3912267773412,"[96, 0, 158]",158,l,0.26568814436905086,colour,0.28
127,20,1,2,6,27,277,414.90148507314734,415.43132575857453,"[59, 0, 195]",195,a,0.006642597261816263,colour,0.28
127,20,1,2,6,28,278,415.9514628800098,416.615248829592,"[34, 0, 220]",220,a,0.1445085930172354,colour,0.28
127,20,1,2,6,29,279,417.13480384717695,418.00726841785945,"[99, 0, 155]",155,l,0.3491506918799132,colour,0.28
127,20,1,2,6,30,280,418.5254540350288,419.0552982650697,"[84, 0, 170]",170,l,0.006507508456707001,colour,0.28
127,20,1,2,6,31,281,419.57225193362683,420.47924926760606,"[3, 0, 251]",251,a,0.3836401323787868,colour,0.28
127,20,1,2,6,32,282,420.99594457331114,421.96739235310815,"[71, 0, 183]",183,l,0.4480653719510883,colour,0.28
127,20,1,2,6,33,283,422.48038787487894,423.1112164428923,"[2, 0, 252]",252,a,0.10751272016204894,colour,0.28
127,20,1,2,6,34,284,423.6209591948427,424.67122844723053,"[36, 0, 218]",218,a,0.5268884198740125,colour,0.28
127,20,1,2,6,35,285,425.1848596355412,425.91922190319747,"[42, 0, 212]",212,a,0.21101491223089397,colour,0.28
127,20,1,2,6,36,286,426.43479593098164,427.3512522513047,"[26, 0, 228]",228,a,0.3931164478417486,colour,0.28
127,20,1,2,6,37,287,427.8722574079875,428.5672193763312,"[67, 0, 187]",187,l,0.17157207755371928,colour,0.28
127,20,1,2,6,38,288,429.07548875245266,429.6312369860243,"[80, 0, 174]",174,l,0.03246074263006449,colour,0.28
127,20,1,2,6,39,289,430.13798414939083,431.015154779423,"[44, 0, 210]",210,a,0.3539213421754539,colour,0.28
127,20,1,2,6,40,290,431.52976034116,432.51123621407896,"[72, 0, 182]",182,l,0.45810685586184263,colour,0.28
127,20,1,2,6,41,291,433.03080737940036,433.99915402010083,"[90, 0, 164]",164,l,0.4453927369322628,colour,0.28
127,20,1,2,6,42,292,434.51526525290683,472.6632231445983,"[73, 0, 181]",181,l,37.62686333199963,colour,0.28
127,20,1,2,6,43,293,473.1709084478207,474.343159514945,"[40, 0, 214]",214,a,0.6489805113524199,colour,0.28
127,20,1,2,6,44,294,474.8584365833085,475.9033073959872,"[64, 0, 190]",190,l,0.5216459431685507,colour,0.28
127,20,1,2,6,45,295,476.41551522677764,476.94316849461757,"[69, 0, 185]",185,l,0.004240534035488963,colour,0.28
127,20,1,2,6,46,296,477.4652606646996,478.09531611413695,"[87, 0, 167]",167,l,0.10396732343360782,colour,0.28
127,20,1,2,6,47,297,478.6089350930415,479.5111747740302,"[61, 0, 193]",193,l,0.379461825825274,colour,0.28
127,20,1,2,6,48,298,480.0308058038354,480.7192835006863,"[70, 0, 184]",184,l,0.1659353612922132,colour,0.28
127,20,1,2,6,49,299,481.232688621385,481.8951634597033,"[5, 0, 249]",249,a,0.13904871349222958,colour,0.28
127,20,1,2,6,50,300,482.4047246489208,483.6711752782576,"[76, 0, 178]",178,a,0.7431698336731642,colour,0.28
127,20,1,2,7,1,301,489.67629054305144,490.65508511592634,"[99, 0, 155]",155,l,0.45464416639879346,colour,0.14
127,20,1,2,7,2,302,491.1615294122603,492.0710749262944,"[76, 0, 178]",178,l,0.3863241891376674,colour,0.14
127,20,1,2,7,3,303,492.5860967829358,493.3991631572135,"[53, 0, 201]",201,a,0.2897249264642596,colour,0.14
127,20,1,2,7,4,304,493.9143401887268,494.72712653898634,"[57, 0, 197]",197,a,0.2895941697061062,colour,0.14
127,20,1,2,7,5,305,495.24529167613946,495.8231251873076,"[82, 0, 172]",172,l,0.05449482030235231,colour,0.14
127,20,1,2,7,6,306,496.3347481575329,497.22310202918015,"[18, 0, 236]",236,a,0.362663529580459,colour,0.14
127,20,1,2,7,7,307,497.74336439324543,498.7671180004254,"[88, 0, 166]",166,l,0.500530312769115,colour,0.14
127,20,1,2,7,8,308,499.27793240593746,502.8951110781636,"[70, 0, 184]",184,l,3.093838406028226,colour,0.14
127,20,1,2,7,9,309,503.40442453860305,504.2871212142054,"[63, 0, 191]",191,l,0.35933435382321477,colour,0.14
127,20,1,2,7,10,310,504.7951034770813,505.3191550283227,"[98, 0, 156]",156,l,0.0008203801698982716,colour,0.14
127,20,1,2,7,11,311,505.8418009451125,506.3991580372676,"[73, 0, 181]",181,l,0.04027621168643236,colour,0.14
127,20,1,2,7,12,312,506.9136667130515,510.0230415347032,"[85, 0, 169]",169,l,2.586012893822044,colour,0.14
127,20,1,2,7,13,313,510.53066736715846,511.09507665620185,"[16, 0, 238]",238,a,0.04118796391412616,colour,0.14
127,20,1,2,7,14,314,511.5937133601401,512.4151099596638,"[72, 0, 182]",182,l,0.2980346716940403,colour,0.14
127,20,1,2,7,15,315,512.9219122615177,513.7670502590481,"[35, 0, 219]",219,a,0.3218969802837819,colour,0.14
127,20,1,2,7,16,316,514.2832646796014,515.3830989887938,"[15, 0, 239]",239,a,0.5845840224064887,colour,0.14
127,20,1,2,7,17,317,515.9004086933564,516.8711534591857,"[91, 0, 163]",163,l,0.44799566152505577,colour,0.14
127,20,1,2,7,18,318,517.3844274294097,518.1510956583079,"[97, 0, 157]",157,l,0.24371038633398712,colour,0.14
127,20,1,2,7,19,319,518.6655720388517,519.6950832726434,"[64, 0, 190]",190,a,0.5061107091605663,colour,0.14
127,20,1,2,7,20,320,520.2147402963601,521.023086433066,"[13, 0, 241]",241,a,0.285330792888999,colour,0.14
127,20,1,2,7,21,321,521.5427340043243,522.3270654142834,"[79, 0, 175]",175,l,0.2614279182162136,colour,0.14
127,20,1,2,7,22,322,522.841394496616,523.5430526253767,"[77, 0, 177]",177,l,0.1784639791585505,colour,0.14
127,20,1,2,7,23,323,524.0601311426144,524.8470564188901,"[56, 0, 198]",198,a,0.2635759513359517,colour,0.14
127,20,1,2,7,24,324,525.3569141735788,526.4230739087798,"[5, 0, 249]",249,a,0.5431235174182802,colour,0.14
127,20,1,2,7,25,325,526.9351194750052,527.8150356016122,"[58, 0, 196]",196,a,0.35660973098129034,colour,0.14
127,20,1,2,7,26,326,528.3263218339998,561.327098103473,"[62, 0, 192]",192,l,32.47799447597936,colour,0.14
127,20,1,2,7,27,327,561.8476074086502,564.0709559849929,"[89, 0, 165]",165,l,1.7000799898523837,colour,0.14
127,20,1,2,7,28,328,564.5831287633628,566.054976493353,"[92, 0, 162]",162,l,0.9485350328031927,colour,0.14
127,20,1,2,7,29,329,566.5675368157681,567.831022576429,"[83, 0, 171]",171,l,0.7401675498113036,colour,0.14
127,20,1,2,7,30,330,568.3523585633375,569.2310108398087,"[66, 0, 188]",188,l,0.3551844044122845,colour,0.14
127,20,1,2,7,31,331,569.7430662524421,570.423004985787,"[94, 0, 160]",160,l,0.15687849116511643,colour,0.14
127,20,1,2,7,32,332,570.930485883262,571.7029893263243,"[61, 0, 193]",193,a,0.24907810613512993,colour,0.14
127,20,1,2,7,33,333,572.2117896061391,574.0149846381973,"[54, 0, 200]",200,a,1.2797263721004128,colour,0.14
127,20,1,2,7,34,334,574.5257057021372,575.4229975026101,"[59, 0, 195]",195,a,0.3741460938472301,colour,0.14
127,20,1,2,7,35,335,575.9319139667787,576.8790051622782,"[55, 0, 199]",199,a,0.42408294091001153,colour,0.14
127,20,1,2,7,36,336,577.4003320904449,577.9829929654952,"[90, 0, 164]",164,l,0.05795475258491933,colour,0.14
127,20,1,2,7,37,337,578.4954181988724,579.6069438105915,"[96, 0, 158]",158,l,0.588205037638545,colour,0.14
127,20,1,2,7,38,338,580.1204005251639,581.0469684337731,"[68, 0, 186]",186,l,0.4032193715684116,colour,0.14
127,20,1,2,7,39,339,581.5579277742654,582.5109550082125,"[52, 0, 202]",202,a,0.43000007467344403,colour,0.14
127,20,1,2,7,40,340,583.0271615518723,583.8949629922863,"[75, 0, 179]",179,l,0.3445458507630974,colour,0.14
127,20,1,2,7,41,341,584.4039798872545,585.2470517714974,"[69, 0, 185]",185,l,0.3197257104329765,colour,0.14
127,20,1,2,7,42,342,585.7633973425254,586.5349610703997,"[86, 0, 168]",168,l,0.24830616917461157,colour,0.14
127,20,1,2,7,43,343,587.0445714902598,587.8790390328504,"[50, 0, 204]",204,a,0.3110843470785767,colour,0.14
127,20,1,2,7,44,344,588.3882654535118,589.2150207143277,"[95, 0, 159]",159,l,0.3020014832727611,colour,0.14
127,20,1,2,7,45,345,589.7335493706632,590.5029953916091,"[67, 0, 187]",187,l,0.24625068972818553,colour,0.14
127,20,1,2,7,46,346,591.014786927728,591.7749531620648,"[51, 0, 203]",203,a,0.2369338816497475,colour,0.14
127,20,1,2,7,47,347,592.2959161770996,596.8069184469059,"[93, 0, 161]",161,l,3.990828914800659,colour,0.14
127,20,1,2,7,48,348,597.3129992238246,598.2788992964197,"[81, 0, 173]",173,l,0.44661326380446553,colour,0.14
127,20,1,2,7,49,349,598.7935072213877,602.5269010232296,"[10, 0, 244]",244,l,3.2101287599653006,colour,0.14
127,20,1,2,7,50,350,603.0445907886606,604.950891016284,"[65, 0, 189]",189,l,1.383176576346159,colour,0.14
127,20,1,2,8,1,351,613.9996010346804,615.5989452032372,"[82, 0, 172]",172,l,1.0753662665374577,colour,0.06
127,20,1,2,8,2,352,616.1122691917699,616.7028829881456,"[87, 0, 167]",167,l,0.06735072378069162,colour,0.06
127,20,1,2,8,3,353,617.2215691828169,618.2868849069346,"[71, 0, 183]",183,l,0.5419226826634258,colour,0.06
127,20,1,2,8,4,354,618.7996547550429,619.7348522115499,"[88, 0, 166]",166,l,0.41191390389576554,colour,0.06
127,20,1,2,8,5,355,620.2547790191602,621.454913950758,"[53, 0, 201]",201,a,0.6771349476184696,colour,0.06
127,20,1,2,8,6,356,621.9735615483951,622.8628905816004,"[65, 0, 189]",189,a,0.36614827415905893,colour,0.06
127,20,1,2,8,7,357,623.3798379483633,624.2309490060434,"[66, 0, 188]",188,a,0.3281961444299668,colour,0.06
127,20,1,2,8,8,358,624.7391136193182,625.5429033578839,"[92, 0, 162]",162,l,0.28125409851782024,colour,0.06
127,20,1,2,8,9,359,626.0516859146301,626.8469221175183,"[70, 0, 184]",184,l,0.27195816417224705,colour,0.06
127,20,1,2,8,10,360,627.3644204742741,628.2068641749211,"[81, 0, 173]",173,l,0.3178951165173203,colour,0.06
127,20,1,2,8,11,361,628.7250048934948,629.9748580877203,"[98, 0, 156]",156,l,0.7267196967732161,colour,0.06
127,20,1,2,8,12,362,630.4906215551309,631.2948862712365,"[89, 0, 165]",165,l,0.2809756495989859,colour,0.06
127,20,1,2,8,13,363,631.8046353247482,632.5748481627088,"[96, 0, 158]",158,l,0.24687335942871869,colour,0.06
127,20,1,2,8,14,364,633.0858783954754,635.0788852756377,"[94, 0, 160]",160,l,1.4696752782911062,colour,0.06
127,20,1,2,8,15,365,635.5858856816776,636.5028618781362,"[97, 0, 157]",157,l,0.3936422315891832,colour,0.06
127,20,1,2,8,16,366,637.0091435161885,637.6789072521497,"[60, 0, 194]",194,a,0.14663260150700808,colour,0.06
127,20,1,2,8,17,367,638.1965962301474,639.5508381621912,"[32, 0, 222]",222,a,0.8308063552249223,colour,0.06
127,20,1,2,8,18,368,640.0715959838126,640.5994394791778,"[83, 0, 171]",171,l,0.004468964412808418,colour,0.06
127,20,1,2,8,19,369,641.1184572917409,641.6708562634885,"[54, 0, 200]",200,a,0.0291209330316633,colour,0.06
127,20,1,2,8,20,370,642.1716402126476,642.710836697137,"[52, 0, 202]",202,a,0.021021501161158085,colour,0.06
127,20,1,2,8,21,371,643.2289017974399,643.8948275095318,"[51, 0, 203]",203,a,0.14247398753650486,colour,0.06
127,20,1,2,8,22,372,644.4165699449368,645.5588596125599,"[74, 0, 180]",180,l,0.619099062634632,colour,0.06
127,20,1,2,8,23,373,646.0731827872805,646.9108601703774,"[63, 0, 191]",191,l,0.3143709874711931,colour,0.06
127,20,1,2,8,24,374,647.4169748178683,648.1668404182419,"[72, 0, 182]",182,l,0.22669232450425625,colour,0.06
127,20,1,2,8,25,375,648.6848795246333,649.5588493726682,"[85, 0, 169]",169,l,0.35068747703917325,colour,0.06
127,20,1,2,8,26,376,650.0754714231007,651.5908536482602,"[90, 0, 164]",164,l,0.9921175769995898,colour,0.06
127,20,1,2,8,27,377,652.1066801310517,652.7988198027015,"[76, 0, 178]",178,l,0.16895339894108474,colour,0.06
127,20,1,2,8,28,378,653.3098965091631,654.1028448638972,"[59, 0, 195]",195,a,0.2697057619225234,colour,0.06
127,20,1,2,8,29,379,654.622382552363,655.3348320466466,"[14, 0, 240]",240,a,0.18916436634026468,colour,0.06
127,20,1,2,8,30,380,655.8410750878975,656.9428337260615,"[67, 0, 187]",187,a,0.5784483042079955,colour,0.06
127,20,1,2,8,31,381,657.4504434110131,668.9987987712957,"[79, 0, 175]",175,l,11.022054557688534,colour,0.06
127,20,1,2,8,32,382,669.5140459074173,670.2708325539716,"[91, 0, 163]",163,l,0.23344519874081016,colour,0.06
127,20,1,2,8,33,383,670.7795973876491,671.5507901131641,"[55, 0, 199]",199,a,0.2479064161889255,colour,0.06
127,20,1,2,8,34,384,672.0608447906561,672.8867887298111,"[62, 0, 192]",192,a,0.302557592978701,colour,0.06
127,20,1,2,8,35,385,673.4045454491861,674.1587752508931,"[80, 0, 174]",174,l,0.22940867650322616,colour,0.06
127,20,1,2,8,36,386,674.6716601019725,675.6308293559123,"[50, 0, 204]",204,a,0.43591878446750343,colour,0.06
127,20,1,2,8,37,387,676.1402038622182,677.1827856453601,"[93, 0, 161]",161,l,0.518979215528816,colour,0.06
127,20,1,2,8,38,388,677.7029802680481,679.1267489199527,"[73, 0, 181]",181,l,0.9004366563167423,colour,0.06
127,20,1,2,8,39,389,679.641640807502,680.7187699261121,"[64, 0, 190]",190,a,0.5541350424755365,colour,0.06
127,20,1,2,8,40,390,681.2355136750266,681.9427506246138,"[75, 0, 179]",179,l,0.18399553862400353,colour,0.06
127,20,1,2,8,41,391,682.4541554043535,683.5507814486045,"[84, 0, 170]",170,l,0.5732605718076229,colour,0.06
127,20,1,2,8,42,392,684.0635670504998,684.9027879138011,"[86, 0, 168]",168,l,0.31596921221353114,colour,0.06
127,20,1,2,8,43,393,685.4228852568194,686.3827669769526,"[61, 0, 193]",193,a,0.4353894558735192,colour,0.06
127,20,1,2,8,44,394,686.8928094455041,687.5831063142978,"[56, 0, 198]",198,a,0.1671192606445402,colour,0.06
127,20,1,2,8,45,395,688.0960368514061,688.8308536168188,"[95, 0, 159]",159,l,0.2115347881335765,colour,0.06
127,20,1,2,8,46,396,689.3459479408339,690.78275799728,"[99, 0, 155]",155,l,0.9133992919232696,colour,0.06
127,20,1,2,8,47,397,691.2990578822792,692.0147396661341,"[57, 0, 197]",197,a,0.19083860330283642,colour,0.06
127,20,1,2,8,48,398,692.5362950249109,693.3347572160419,"[41, 0, 213]",213,a,0.2751577647868544,colour,0.06
127,20,1,2,8,49,399,693.8487318374682,694.6467399245594,"[68, 0, 186]",186,a,0.27467687940225005,colour,0.06
127,20,1,2,8,50,400,695.1612686866429,696.0228197996039,"[77, 0, 177]",177,l,0.338247868232429,colour,0.06
127,20,1,2,9,1,401,700.7563392380252,702.046766391024,"[55, 0, 199]",199,a,0.7663196756038815,colour,0.06
127,20,1,2,9,2,402,702.5539708090946,704.8867328038905,"[95, 0, 159]",159,l,1.8093689533416182,colour,0.06
127,20,1,2,9,3,403,705.3976834798232,706.2627772327978,"[99, 0, 155]",155,l,0.3402797169983387,colour,0.06
127,20,1,2,9,4,404,706.7740626772866,707.8627318618819,"[96, 0, 158]",158,l,0.5653679089155048,colour,0.06
127,20,1,2,9,5,405,708.3835196157452,709.2227558391169,"[93, 0, 161]",161,l,0.31601962447166443,colour,0.06
127,20,1,2,9,6,406,709.7434561592527,712.1187172296923,"[77, 0, 177]",177,l,1.8518412471748888,colour,0.06
127,20,1,2,9,7,407,712.6347898656968,713.622741345549,"[78, 0, 176]",176,l,0.4650924925226718,colour,0.06
127,20,1,2,9,8,408,714.1347715519369,715.0627218580339,"[87, 0, 167]",167,l,0.4046305196825415,colour,0.06
127,20,1,2,9,9,409,715.5598324108869,716.6867239030544,"[88, 0, 166]",166,l,0.6037008871790022,colour,0.06
127,20,1,2,9,10,410,717.2004425248597,717.9827223937027,"[56, 0, 198]",198,a,0.2590282177552581,colour,0.06
127,20,1,2,9,11,411,718.497270454187,719.0787127714138,"[59, 0, 195]",195,a,0.05805124482139945,colour,0.06
127,20,1,2,9,12,412,719.5910143372603,720.1986824295018,"[83, 0, 171]",171,l,0.08436209056526423,colour,0.06
127,20,1,2,9,13,413,720.7160649956204,721.95075513958,"[62, 0, 192]",192,a,0.7113100993447006,colour,0.06
127,20,1,2,9,14,414,722.4673862485215,723.5827093180269,"[30, 0, 224]",224,a,0.5919150616973639,colour,0.06
127,20,1,2,9,15,415,724.0923965377733,724.8786948120687,"[98, 0, 156]",156,l,0.26321440120227635,colour,0.06
127,20,1,2,9,16,416,725.3892543993425,726.1507187483367,"[61, 0, 193]",193,a,0.2381122673396021,colour,0.06
127,20,1,2,9,17,417,726.6705014086328,727.4226828201208,"[80, 0, 174]",174,l,0.22876592073589563,colour,0.06
127,20,1,2,9,18,418,727.9251410064753,728.8226801420096,"[67, 0, 187]",187,l,0.3744083947967738,colour,0.06
127,20,1,2,9,19,419,729.331417800393,730.0946402754635,"[71, 0, 183]",183,l,0.2431148923933506,colour,0.06
127,20,1,2,9,20,420,730.6091867603827,731.3586829334963,"[85, 0, 169]",169,l,0.2264209648128599,colour,0.06
127,20,1,2,9,21,421,731.8747823510785,732.6626989364158,"[86, 0, 168]",168,l,0.2646318511106074,colour,0.06
127,20,1,2,9,22,422,733.1762080322951,733.7747456054203,"[53, 0, 201]",201,a,0.07536154030822217,colour,0.06
127,20,1,2,9,23,423,734.2763326056302,735.9826916737948,"[84, 0, 170]",170,l,1.1833004013169557,colour,0.06
127,20,1,2,9,24,424,736.5013861390762,737.2627020082437,"[92, 0, 162]",162,l,0.23250233242288232,colour,0.06
127,20,1,2,9,25,425,737.7723624466453,738.4546701603103,"[69, 0, 185]",185,l,0.15894145355559886,colour,0.06
127,20,1,2,9,26,426,738.9644964076579,739.7427074590232,"[41, 0, 213]",213,a,0.25491922814399004,colour,0.06
127,20,1,2,9,27,427,740.2613200047053,741.0146774386521,"[66, 0, 188]",188,a,0.23029285948723555,colour,0.06
127,20,1,2,9,28,428,741.5215841094032,742.4226639156695,"[57, 0, 197]",197,l,0.37480854196473956,colour,0.06
127,20,1,2,9,29,429,742.9221273011062,743.8066671735141,"[52, 0, 202]",202,a,0.36129924887791276,colour,0.06
127,20,1,2,9,30,430,744.3127357412595,745.2066743413452,"[54, 0, 200]",200,a,0.36933999764733016,colour,0.06
127,20,1,2,9,31,431,745.7139082979411,746.4386343488004,"[74, 0, 180]",180,l,0.2094619795680046,colour,0.06
127,20,1,2,9,32,432,746.9558617398143,747.7026714931708,"[81, 0, 173]",173,l,0.2236983112525195,colour,0.06
127,20,1,2,9,33,433,748.221443152288,748.950643287506,"[94, 0, 160]",160,l,0.20581260742619634,colour,0.06
127,20,1,2,9,34,434,749.4714117429685,750.3026044606231,"[75, 0, 179]",179,a,0.3078225189819932,colour,0.06
127,20,1,2,9,35,435,750.8151880200021,751.5506558117922,"[68, 0, 186]",186,a,0.21243393723852932,colour,0.06
127,20,1,2,9,36,436,752.0668336045928,752.8226734467316,"[50, 0, 204]",204,a,0.2325724372640252,colour,0.06
127,20,1,2,9,37,437,753.3324532201514,754.0146412048489,"[15, 0, 239]",239,a,0.15883708465844393,colour,0.06
127,20,1,2,9,38,438,754.535690078279,755.4786549548153,"[79, 0, 175]",175,l,0.41968998848460615,colour,0.06
127,20,1,2,9,39,439,755.988728143042,756.7106681312434,"[65, 0, 189]",189,l,0.19927280372940004,colour,0.06
127,20,1,2,9,40,440,757.2230390140321,758.2306772526354,"[89, 0, 165]",165,l,0.4830549960024655,colour,0.06
127,20,1,2,9,41,441,758.7400186762679,759.4866232359782,"[70, 0, 184]",184,l,0.22331785643473268,colour,0.06
127,20,1,2,9,42,442,760.0056142669637,760.8706489431206,"[58, 0, 196]",196,a,0.3424691038671881,colour,0.06
127,20,1,2,9,43,443,761.3806114608888,761.9746635279153,"[72, 0, 182]",182,l,0.0706771423574537,colour,0.06
127,20,1,2,9,44,444,762.4899634392932,763.4545906037092,"[82, 0, 172]",172,l,0.4413369162939489,colour,0.06
127,20,1,2,9,45,445,763.9611900749151,764.7425893053878,"[64, 0, 190]",190,a,0.258087714901194,colour,0.06
127,20,1,2,9,46,446,765.2580081580672,766.0146557772532,"[60, 0, 194]",194,a,0.2336799306795001,colour,0.06
127,20,1,2,9,47,447,766.5236517980229,767.2306449573953,"[73, 0, 181]",181,l,0.183669040678069,colour,0.06
127,20,1,2,9,48,448,767.742380173644,768.3266975625884,"[51, 0, 203]",203,l,0.07342815306037664,colour,0.06
127,20,1,2,9,49,449,768.8393882478122,769.5826376380865,"[90, 0, 164]",164,l,0.21997371455654502,colour,0.06
127,20,1,2,9,50,450,770.0893489615992,770.8226143699139,"[63, 0, 191]",191,a,0.21034458721987903,colour,0.06
127,20,1,2,10,1,451,774.9645003459882,775.9666117515881,"[63, 0, 191]",191,l,0.47799447597935796,colour,0.06
127,20,1,2,10,2,452,776.4810290553141,777.4546295942273,"[60, 0, 194]",194,l,0.4503114726394415,colour,0.06
127,20,1,2,10,3,453,777.9652892185841,779.0946178261656,"[54, 0, 200]",200,l,0.6059548645280302,colour,0.06
127,20,1,2,10,4,454,779.6059584091417,780.2946243640035,"[52, 0, 202]",202,a,0.16526582394726574,colour,0.06
127,20,1,2,10,5,455,780.8090739629697,781.7745935809799,"[73, 0, 181]",181,l,0.44014907837845385,colour,0.06
127,20,1,2,10,6,456,782.2954089040868,783.3906163170468,"[57, 0, 197]",197,a,0.5718285497277975,colour,0.06
127,20,1,2,10,7,457,783.9049320085905,789.2545789456926,"[86, 0, 168]",168,l,4.82649926119484,colour,0.06
127,20,1,2,10,8,458,789.7680084849708,790.8626255234703,"[80, 0, 174]",174,l,0.5714567594695836,colour,0.06
127,20,1,2,10,9,459,791.377251959173,792.4305648491718,"[75, 0, 179]",179,l,0.5300486357882619,colour,0.06
127,20,1,2,10,10,460,792.9398180514108,793.8225907390006,"[91, 0, 163]",163,l,0.3594926798250526,colour,0.06
127,20,1,2,10,11,461,794.3320081746206,795.4305975383613,"[77, 0, 177]",177,l,0.5752085312269628,colour,0.06
127,20,1,2,10,12,462,795.9413701961748,797.1105823516846,"[95, 0, 159]",159,l,0.6459624734707177,colour,0.06
127,20,1,2,10,13,463,797.6288672178052,798.5826380320359,"[69, 0, 185]",185,l,0.4273534333333373,colour,0.06
127,20,1,2,10,14,464,799.0889145501424,799.7345875473693,"[67, 0, 187]",187,l,0.12264032429084182,colour,0.06
127,20,1,2,10,15,465,800.2474054447375,801.1665568493772,"[96, 0, 158]",158,l,0.39582177228294313,colour,0.06
127,20,1,2,10,16,466,801.6722997070756,802.398550333688,"[88, 0, 166]",166,l,0.20294738188385963,colour,0.06
127,20,1,2,10,17,467,802.9181033822242,803.6466091678012,"[53, 0, 201]",201,a,0.20516945770941675,colour,0.06
127,20,1,2,10,18,468,804.1680904836394,804.7026289578062,"[66, 0, 188]",188,a,0.011222232365980744,colour,0.06
127,20,1,2,10,19,469,805.2149923574179,806.8785616920795,"[61, 0, 193]",193,a,1.1382618101779372,colour,0.06
127,20,1,2,10,20,470,807.396143150283,807.9425395233557,"[81, 0, 173]",173,l,0.03153244871646166,colour,0.06
127,20,1,2,10,21,471,808.4504516816232,809.1905412499327,"[70, 0, 184]",184,l,0.21677608345635235,colour,0.06
127,20,1,2,10,22,472,809.7004285433795,810.5745724709705,"[12, 0, 242]",242,a,0.3507800307124853,colour,0.06
127,20,1,2,10,23,473,811.0910665218253,811.8465389057528,"[74, 0, 180]",180,l,0.24639011081308126,colour,0.06
127,20,1,2,10,24,474,812.3580571131315,813.0545444448944,"[85, 0, 169]",169,l,0.17321362532675266,colour,0.06
127,20,1,2,10,25,475,813.5611762115732,814.3025477468036,"[41, 0, 213]",213,a,0.21802851185202599,colour,0.06
127,20,1,2,10,26,476,814.8111558300443,815.678546489682,"[55, 0, 199]",199,a,0.344098836183548,colour,0.06
127,20,1,2,10,27,477,816.1740217963234,816.9825195632875,"[76, 0, 178]",178,l,0.2870436266530305,colour,0.06
127,20,1,2,10,28,478,817.5002282334026,818.2705568620004,"[78, 0, 176]",176,l,0.24741017073392868,colour,0.06
127,20,1,2,10,29,479,818.7686134316027,819.4225528512616,"[62, 0, 192]",192,a,0.1309390419628471,colour,0.06
127,20,1,2,10,30,480,819.931242460385,820.7025584594812,"[65, 0, 189]",189,l,0.24796943133696914,colour,0.06
127,20,1,2,10,31,481,821.2113697668537,822.5585276009515,"[64, 0, 190]",190,l,0.8237951183691621,colour,0.06
127,20,1,2,10,32,482,823.0707547299098,823.8225675022695,"[83, 0, 171]",171,l,0.22626066976226866,colour,0.06
127,20,1,2,10,33,483,824.338559006108,825.0945449648425,"[84, 0, 170]",170,l,0.2329843994230032,colour,0.06
127,20,1,2,10,34,484,825.5917957266793,826.3345402071718,"[68, 0, 186]",186,a,0.21957396157085896,colour,0.06
127,20,1,2,10,35,485,826.8531090358738,827.7665032076184,"[79, 0, 175]",175,l,0.3900164901278913,colour,0.06
127,20,1,2,10,36,486,828.2750419741496,828.8465814411175,"[92, 0, 162]",162,l,0.05702094500884414,colour,0.06
127,20,1,2,10,37,487,829.359986562049,830.0545176633168,"[56, 0, 198]",198,a,0.17764202342368662,colour,0.06
127,20,1,2,10,38,488,830.575535816839,831.3265230890829,"[51, 0, 203]",203,a,0.2278986731544137,colour,0.06
127,20,1,2,10,39,489,831.8411113217007,832.7025541272014,"[58, 0, 196]",196,a,0.3384286432992667,colour,0.06
127,20,1,2,10,40,490,833.2160907925572,834.022551984759,"[59, 0, 195]",195,a,0.28362662345170975,colour,0.06
127,20,1,2,10,41,491,834.5286130693275,835.3024945778307,"[87, 0, 167]",167,l,0.2505569960922003,colour,0.06
127,20,1,2,10,42,492,835.8107296894304,836.6065306665841,"[97, 0, 157]",157,l,0.2724394432734698,colour,0.06
127,20,1,2,10,43,493,837.1233500337694,838.0224885756616,"[72, 0, 182]",182,l,0.37584435543976724,colour,0.06
127,20,1,2,10,44,494,838.5295279722195,839.286518236855,"[20, 0, 234]",234,a,0.23381501948460937,colour,0.06
127,20,1,2,10,45,495,839.7951247447636,840.5825261799619,"[50, 0, 204]",204,a,0.264042264316231,colour,0.06
127,20,1,2,10,46,496,841.0933933607303,841.6945425230078,"[89, 0, 165]",165,l,0.07772382535040379,colour,0.06
127,20,1,2,10,47,497,842.2028331668116,842.9344589961693,"[90, 0, 164]",164,l,0.20828241226263344,colour,0.06
127,20,1,2,10,48,498,843.4528687112033,844.2304862376768,"[99, 0, 155]",155,l,0.2545171119272709,colour,0.06
127,20,1,2,10,49,499,844.7516359356232,845.5104753044434,"[98, 0, 156]",156,l,0.23604694148525596,colour,0.06
127,20,1,2,10,50,500,846.016817988595,846.8864720782731,"[94, 0, 160]",160,l,0.3464453676715493,colour,0.06
127,20,1,2,11,1,501,851.8298532492481,852.9744563652202,"[58, 0, 196]",196,a,0.6207272198516876,colour,0.06
127,20,1,2,11,2,502,853.4869658816606,854.0305175089743,"[77, 0, 177]",177,l,0.02019285038113594,colour,0.06
127,20,1,2,11,3,503,854.5497798994184,855.0864857051056,"[51, 0, 203]",203,a,0.013386806938797235,colour,0.06
127,20,1,2,11,4,504,855.5966522349045,856.2304771791678,"[96, 0, 158]",158,l,0.11033344129100442,colour,0.06
127,20,1,2,11,5,505,856.7372582133394,857.3984715645202,"[54, 0, 200]",200,a,0.13779431581497192,colour,0.06
127,20,1,2,11,6,506,857.9091989302542,858.51848257659,"[97, 0, 157]",157,l,0.0862230104394257,colour,0.06
127,20,1,2,11,7,507,859.0355098941363,860.6464803803246,"[88, 0, 166]",166,l,1.0875987124163657,colour,0.06
127,20,1,2,11,8,508,861.1605302263051,862.7984661294613,"[90, 0, 164]",164,l,1.1146259629167616,colour,0.06
127,20,1,2,11,9,509,863.3181176392827,863.8944143655244,"[87, 0, 167]",167,l,0.05321088409982622,colour,0.06
127,20,1,2,11,10,510,864.4120541128796,866.0064342531841,"[30, 0, 224]",224,a,1.0711324277799577,colour,0.06
127,20,1,2,11,11,511,866.5213572545908,868.2864544338081,"[76, 0, 178]",178,l,1.241813232889399,colour,0.06
127,20,1,2,11,12,512,868.7982999267988,869.5904609842692,"[85, 0, 169]",169,l,0.26882315427064896,colour,0.06
127,20,1,2,11,13,513,870.1107859697659,870.9104131557979,"[56, 0, 198]",198,a,0.2841720995493233,colour,0.06
127,20,1,2,11,14,514,871.4290095535107,872.1824311844539,"[92, 0, 162]",162,l,0.2284421797376126,colour,0.06
127,20,1,2,11,15,515,872.6962419659831,873.4704704524484,"[53, 0, 201]",201,a,0.2508448970038444,colour,0.06
127,20,1,2,11,16,516,873.9774795230478,874.8624589268584,"[84, 0, 170]",170,l,0.36170648504048586,colour,0.06
127,20,1,2,11,17,517,875.383755923016,876.5904318396933,"[60, 0, 194]",194,l,0.6834341117646545,colour,0.06
127,20,1,2,11,18,518,877.1038779206574,877.8784482646734,"[72, 0, 182]",182,l,0.25127852079458535,colour,0.06
127,20,1,2,11,19,519,878.3851048436482,879.1344068511389,"[81, 0, 173]",173,l,0.22593811037950218,colour,0.06
127,20,1,2,11,20,520,879.6507004345767,880.4064276367426,"[59, 0, 195]",195,a,0.2323621236719191,colour,0.06
127,20,1,2,11,21,521,880.9177827918902,881.8064288969617,"[98, 0, 156]",156,l,0.3668493190780282,colour,0.06
127,20,1,2,11,22,522,882.3101229704916,883.1104066965636,"[64, 0, 190]",190,a,0.27697221050038934,colour,0.06
127,20,1,2,11,23,523,883.6226669088937,884.3984534477349,"[79, 0, 175]",175,l,0.2530705176759511,colour,0.06
127,20,1,2,11,24,524,884.9038111243863,885.8064261400141,"[65, 0, 189]",189,l,0.3795673765707761,colour,0.06
127,20,1,2,11,25,525,886.3271091310307,886.8624321452808,"[52, 0, 202]",202,a,0.012039067689329386,colour,0.06
127,20,1,2,11,26,526,887.3739676817786,888.1425409412477,"[70, 0, 184]",184,l,0.24558233399875462,colour,0.06
127,20,1,2,11,27,527,888.65528597706,889.4144226994831,"[82, 0, 172]",172,l,0.23574525606818497,colour,0.06
127,20,1,2,11,28,528,889.9222568762489,890.782442133408,"[73, 0, 181]",181,l,0.3368981599342078,colour,0.06
127,20,1,2,11,29,529,891.2971997193526,892.1264440836385,"[93, 0, 161]",161,l,0.3044094543438405,colour,0.06
127,20,1,2,11,30,530,892.6400536103174,893.5104122892953,"[78, 0, 176]",176,l,0.3469057728070766,colour,0.06
127,20,1,2,11,31,531,894.0305226289202,894.8303853345569,"[99, 0, 155]",155,l,0.2876328194979578,colour,0.06
127,20,1,2,11,32,532,895.3494783714414,896.3343783365563,"[67, 0, 187]",187,l,0.46159356948919594,colour,0.06
127,20,1,2,11,33,533,896.8494273684919,897.6384132439271,"[89, 0, 165]",165,l,0.26568696298636496,colour,0.06
127,20,1,2,11,34,534,898.1462529345881,898.9104068542365,"[75, 0, 179]",179,l,0.2408384655136615,colour,0.06
127,20,1,2,11,35,535,899.4241940050852,900.2384257682133,"[69, 0, 185]",185,l,0.29101634584367275,colour,0.06
127,20,1,2,11,36,536,900.741181307938,901.6463984604925,"[68, 0, 186]",186,l,0.3819469907321036,colour,0.06
127,20,1,2,11,37,537,902.1631067632698,903.0064110164531,"[86, 0, 168]",168,l,0.31998013448901474,colour,0.06
127,20,1,2,11,38,538,903.522450175602,904.126436994411,"[74, 0, 180]",180,l,0.08061977103352547,colour,0.06
127,20,1,2,11,39,539,904.6474701140542,905.5024282541126,"[94, 0, 160]",160,l,0.3315501322504133,colour,0.06
127,20,1,2,11,40,540,906.0224326495081,906.6064266914036,"[91, 0, 163]",163,l,0.059137864504009485,colour,0.06
127,20,1,2,11,41,541,907.1175888623111,907.8543890335131,"[61, 0, 193]",193,l,0.21349259396083653,colour,0.06
127,20,1,2,11,42,542,908.3675783269573,909.1744120970834,"[49, 0, 205]",205,a,0.2810036127921194,colour,0.06
127,20,1,2,11,43,543,909.6826653254684,910.4863510888536,"[80, 0, 174]",174,l,0.2803919706493616,colour,0.06
127,20,1,2,11,44,544,910.9951100149192,911.7983952374198,"[62, 0, 192]",192,a,0.2799504699651152,colour,0.06
127,20,1,2,11,45,545,912.3076157502364,913.0623508556746,"[83, 0, 171]",171,l,0.23031097650527954,colour,0.06
127,20,1,2,11,46,546,913.5746949568857,914.3023567318451,"[11, 0, 243]",243,a,0.20450070826336741,colour,0.06
127,20,1,2,11,47,547,914.8089806216303,915.7503783870488,"[95, 0, 159]",159,l,0.41833988623693585,colour,0.06
127,20,1,2,11,48,548,916.2566560867708,917.0063858102076,"[66, 0, 188]",188,l,0.2341482127085328,colour,0.06
127,20,1,2,11,49,549,917.5023061621469,918.31837009429,"[57, 0, 197]",197,a,0.29335736320354044,colour,0.06
127,20,1,2,11,50,550,918.8420155907515,919.6864513619803,"[63, 0, 191]",191,l,0.3213971904478967,colour,0.06
127,20,1,2,12,1,551,933.4629562748596,935.4783434229903,"[90, 0, 164]",164,l,1.4910988956689835,colour,0.06
127,20,1,2,12,2,552,935.9964955630712,936.8064001463354,"[60, 0, 194]",194,l,0.28669428592547774,colour,0.06
127,20,1,2,12,3,553,937.3244786371943,937.8782986034639,"[51, 0, 203]",203,a,0.030501361470669508,colour,0.06
127,20,1,2,12,4,554,938.3877144637518,939.7663074664306,"[93, 0, 161]",161,l,0.8554248469881713,colour,0.06
127,20,1,2,12,5,555,940.2783089221921,941.2542989216745,"[81, 0, 173]",173,l,0.4527277145534754,colour,0.06
127,20,1,2,12,6,556,941.7627396206371,942.6702934582718,"[95, 0, 159]",159,l,0.3842616204638034,colour,0.06
127,20,1,2,12,7,557,943.1845410144888,943.7103467534762,"[80, 0, 174]",174,l,0.0024914664682000875,colour,0.06
127,20,1,2,12,8,558,944.231470457511,944.8622887856327,"[62, 0, 192]",192,a,0.10751468944363296,colour,0.06
127,20,1,2,12,9,559,945.3720319315325,945.9743197008502,"[75, 0, 179]",179,l,0.07850127620622516,colour,0.06
127,20,1,2,12,10,560,946.4817312816158,947.0863198963925,"[87, 0, 167]",167,a,0.07970250491052866,colour,0.06
127,20,1,2,12,11,561,947.5926763650496,948.382321537938,"[61, 0, 193]",193,a,0.2663600449450314,colour,0.06
127,20,1,2,12,12,562,948.889512564987,949.5982670013327,"[99, 0, 155]",155,l,0.18532082857564092,colour,0.06
127,20,1,2,12,13,563,950.1082956849132,950.910287912935,"[73, 0, 181]",181,l,0.2787630259990692,colour,0.06
127,20,1,2,12,14,564,951.4207978758495,952.1743526263162,"[82, 0, 172]",172,l,0.22882775426842272,colour,0.06
127,20,1,2,12,15,565,952.6874332185835,953.5022781991865,"[71, 0, 183]",183,l,0.2914617850910872,colour,0.06
127,20,1,2,12,16,566,954.0155659539159,955.126253856346,"[53, 0, 201]",201,a,0.5992055349051952,colour,0.06
127,20,1,2,12,17,567,955.6399945334997,956.2703020439949,"[52, 0, 202]",202,a,0.10731146507896483,colour,0.06
127,20,1,2,12,18,568,956.780591847375,957.8942666735966,"[8, 0, 246]",246,a,0.5882235483732074,colour,0.06
127,20,1,2,12,19,569,958.4076863666996,959.246288105147,"[68, 0, 186]",186,l,0.31528982892632484,colour,0.06
127,20,1,2,12,20,570,959.7671010650229,960.4703207910061,"[83, 0, 171]",171,l,0.17990505951456726,colour,0.06
127,20,1,2,12,21,571,960.9858617358841,961.8782883633394,"[76, 0, 178]",178,l,0.36913559189997613,colour,0.06
127,20,1,2,12,22,572,962.3892374639399,963.0703088969458,"[69, 0, 185]",185,a,0.1577973326202482,colour,0.06
127,20,1,2,12,23,573,963.5766819072887,964.3023110458162,"[85, 0, 169]",169,l,0.2022731185425073,colour,0.06
127,20,1,2,12,24,574,964.8110735164955,966.0382660245523,"[64, 0, 190]",190,a,0.7039172262884676,colour,0.06
127,20,1,2,12,25,575,966.547584998887,967.350254246965,"[65, 0, 189]",189,a,0.2793604894541204,colour,0.06
127,20,1,2,12,26,576,967.8588796593249,968.6462905469816,"[63, 0, 191]",191,a,0.26426793774589896,colour,0.06
127,20,1,2,12,27,577,969.1557749363128,969.8942733688746,"[78, 0, 176]",176,l,0.2152664738241583,colour,0.06
127,20,1,2,12,28,578,970.4057230472099,971.2062840405852,"[54, 0, 200]",200,a,0.277288468554616,colour,0.06
127,20,1,2,12,29,579,971.7128134074155,972.446255652234,"[91, 0, 163]",163,l,0.21003502467647195,colour,0.06
127,20,1,2,12,30,580,972.9546912310179,973.6302535538562,"[79, 0, 175]",175,l,0.15224686870351434,colour,0.06
127,20,1,2,12,31,581,974.142059268197,974.9342545904219,"[77, 0, 177]",177,l,0.2690488277003169,colour,0.06
127,20,1,2,12,32,582,975.4558316105977,976.1902541366871,"[92, 0, 162]",162,l,0.2184581975452602,colour,0.06
127,20,1,2,12,33,583,976.7075823522173,977.486269562738,"[89, 0, 165]",165,l,0.25535875954665244,colour,0.06
127,20,1,2,12,34,584,978.0045154381078,978.7262750451919,"[11, 0, 243]",243,a,0.19848353741690516,colour,0.06
127,20,1,2,12,35,585,979.2388026784174,979.8862408909481,"[94, 0, 160]",160,l,0.12301408359780908,colour,0.06
127,20,1,2,12,36,586,980.3961356671061,981.2862181265373,"[98, 0, 156]",156,l,0.36669453768990934,colour,0.06
127,20,1,2,12,37,587,981.8024010395166,982.5262303042691,"[97, 0, 157]",157,l,0.20083755161613226,colour,0.06
127,20,1,2,12,38,588,983.0367229380645,983.8302360670641,"[59, 0, 195]",195,a,0.2701645919587463,colour,0.06
127,20,1,2,12,39,589,984.3492148888763,985.2142905248329,"[17, 0, 237]",237,a,0.3403592735994607,colour,0.06
127,20,1,2,12,40,590,985.725574787939,986.7743194645736,"[50, 0, 204]",204,a,0.5256489883176982,colour,0.06
127,20,1,2,12,41,591,987.2880632926244,988.1822756153997,"[57, 0, 197]",197,a,0.3708192810881883,colour,0.06
127,20,1,2,12,42,592,988.6951557402499,989.6862245069351,"[55, 0, 199]",199,a,0.4677281065378338,colour,0.06
127,20,1,2,12,43,593,990.1952394323889,990.9422598930541,"[96, 0, 158]",158,l,0.22381685860455036,colour,0.06
127,20,1,2,12,44,594,991.460812180303,992.3502357362304,"[86, 0, 168]",168,l,0.364733187481761,colour,0.06
127,20,1,2,12,45,595,992.8685647130478,993.7102148151025,"[84, 0, 170]",170,l,0.3183830911293626,colour,0.06
127,20,1,2,12,46,596,994.228618228808,995.110214893939,"[72, 0, 182]",182,l,0.35902124689891934,colour,0.06
127,20,1,2,12,47,597,995.6195878249127,996.3982210787944,"[58, 0, 196]",196,a,0.2553469443228096,colour,0.06
127,20,1,2,12,48,598,996.9152027103119,997.678227474913,"[56, 0, 198]",198,l,0.23957579699344933,colour,0.06
127,20,1,2,12,49,599,998.1978833170142,998.9902125466615,"[66, 0, 188]",188,l,0.2690744276624173,colour,0.06
127,20,1,2,12,50,600,999.5103205232881,1000.1342678235378,"[88, 0, 166]",166,l,0.10073700291104615,colour,0.06
127,20,1,2,13,1,601,1007.6053861516993,1008.7102049689274,"[70, 0, 184]",184,l,0.5930859642103314,colour,0.06
127,20,1,2,13,2,602,1009.2165185085032,1010.0222018561326,"[60, 0, 194]",194,a,0.2824691117275506,colour,0.06
127,20,1,2,13,3,603,1010.5308902836405,1011.4302261420526,"[83, 0, 171]",171,l,0.37610389944165945,colour,0.06
127,20,1,2,13,4,604,1011.937052074587,1012.6781695797108,"[91, 0, 163]",163,l,0.21780677721835673,colour,0.06
127,20,1,2,13,5,605,1013.1870990407187,1014.0462181582116,"[67, 0, 187]",187,a,0.33585446956567466,colour,0.06
127,20,1,2,13,6,606,1014.5631458328571,1015.2862098559272,"[86, 0, 168]",168,l,0.19965522782877088,colour,0.06
127,20,1,2,13,7,607,1015.7977111279033,1016.7822030691896,"[52, 0, 202]",202,a,0.4611772750504315,colour,0.06
127,20,1,2,13,8,608,1017.2977668568492,1018.0541698979214,"[95, 0, 159]",159,l,0.23318762378767133,colour,0.06
127,20,1,2,13,9,609,1018.5632462634239,1019.3662112895399,"[84, 0, 170]",170,l,0.27948494465090334,colour,0.06
127,20,1,2,13,10,610,1019.8757945341058,1020.7341944896616,"[97, 0, 157]",157,l,0.335346408886835,colour,0.06
127,20,1,2,13,11,611,1021.2522127223201,1022.086191108916,"[72, 0, 182]",182,l,0.31098076584748924,colour,0.06
127,20,1,2,13,12,612,1022.5959531592671,1023.494163013529,"[94, 0, 160]",160,l,0.3748487140983343,colour,0.06
127,20,1,2,13,13,613,1024.002230740618,1024.7341968526598,"[64, 0, 190]",190,a,0.2086419933475554,colour,0.06
127,20,1,2,13,14,614,1025.2522265068255,1025.9901507128961,"[87, 0, 167]",167,l,0.22290116804651916,colour,0.06
127,20,1,2,13,15,615,1026.502611786127,1027.1261739055626,"[76, 0, 178]",178,l,0.10028998833149672,colour,0.06
127,20,1,2,13,16,616,1027.6306781191379,1028.4461532523856,"[71, 0, 183]",183,l,0.2921163560822606,colour,0.06
127,20,1,2,13,17,617,1028.9587529592682,1029.6862961868756,"[79, 0, 175]",175,l,0.2043431701604277,colour,0.06
127,20,1,2,13,18,618,1030.193082340993,1030.7901678057387,"[57, 0, 197]",197,a,0.07381648453883827,colour,0.06
127,20,1,2,13,19,619,1031.3024906392675,1032.1021493328735,"[53, 0, 201]",201,a,0.27638301788829267,colour,0.06
127,20,1,2,13,20,620,1032.614992829971,1033.3421973504592,"[73, 0, 181]",181,l,0.2037504327017814,colour,0.06
127,20,1,2,13,21,621,1033.8508924734779,1034.3826212543063,"[89, 0, 165]",165,l,0.008499972755089402,colour,0.06
127,20,1,2,13,22,622,1034.8977778058033,1035.4301973914262,"[99, 0, 155]",155,l,0.007394842337816954,colour,0.06
127,20,1,2,13,23,623,1035.9463617936708,1036.5421412668657,"[11, 0, 243]",243,a,0.07248292374424636,colour,0.06
127,20,1,2,13,24,624,1037.0557259812485,1037.6861614915542,"[85, 0, 169]",169,l,0.10706964391283691,colour,0.06
127,20,1,2,13,25,625,1038.1963843412232,1038.9901361404918,"[98, 0, 156]",156,l,0.2704237422440201,colour,0.06
127,20,1,2,13,26,626,1039.5087994921487,1041.9741432580631,"[78, 0, 176]",176,l,1.9421362255234271,colour,0.06
127,20,1,2,13,27,627,1042.4946994308848,1043.0221656223293,"[77, 0, 177]",177,l,0.004068029811605811,colour,0.06
127,20,1,2,13,28,628,1043.5416434463114,1044.1181272491813,"[82, 0, 172]",172,l,0.053358182311058044,colour,0.06
127,20,1,2,13,29,629,1044.6353593661916,1045.9421511918772,"[58, 0, 196]",196,a,0.7835393866989762,colour,0.06
127,20,1,2,13,30,630,1046.4634387355763,1046.9901660729665,"[61, 0, 193]",193,a,0.0032941235695034266,colour,0.06
127,20,1,2,13,31,631,1047.5107163379434,1048.0701375741046,"[75, 0, 179]",179,l,0.03609120985493064,colour,0.06
127,20,1,2,13,32,632,1048.588848581072,1049.6301231910475,"[56, 0, 198]",198,a,0.5179229222703725,colour,0.06
127,20,1,2,13,33,633,1050.1513745009433,1050.6941317422315,"[10, 0, 244]",244,a,0.019494168693199754,colour,0.06
127,20,1,2,13,34,634,1051.2138415409718,1051.8941000769846,"[59, 0, 195]",195,l,0.15535627864301205,colour,0.06
127,20,1,2,13,35,635,1052.40281528607,1053.118130793795,"[62, 0, 192]",192,l,0.1920536165125668,colour,0.06
127,20,1,2,13,36,636,1053.6372372214682,1054.710101781413,"[41, 0, 213]",213,a,0.5494868783280253,colour,0.06
127,20,1,2,13,37,637,1055.2166784098372,1055.950126956217,"[74, 0, 180]",180,l,0.21009764610789716,colour,0.06
127,20,1,2,13,38,638,1056.466883701738,1057.1661137733608,"[63, 0, 191]",191,l,0.17600480816327035,colour,0.06
127,20,1,2,13,39,639,1057.6856018372346,1058.2701448996086,"[80, 0, 174]",174,l,0.06120122061111033,colour,0.06
127,20,1,2,13,40,640,1058.779345720308,1059.8461233989801,"[50, 0, 204]",204,a,0.543393301544711,colour,0.06
127,20,1,2,13,41,641,1060.3574273542035,1064.5580652263016,"[69, 0, 185]",185,a,3.676463834941387,colour,0.06
127,20,1,2,13,42,642,1065.0775836163666,1065.8861542448867,"[88, 0, 166]",166,l,0.28527841134928167,colour,0.06
127,20,1,2,13,43,643,1066.405705717858,1067.7420989677776,"[51, 0, 203]",203,a,0.8127639009617269,colour,0.06
127,20,1,2,13,44,644,1068.249817354139,1069.094073925633,"[54, 0, 200]",200,a,0.3200596913229674,colour,0.06
127,20,1,2,13,45,645,1069.6099972943775,1071.1180642338004,"[81, 0, 173]",173,l,0.9849870048929006,colour,0.06
127,20,1,2,13,46,646,1071.6256806142628,1072.5500926128589,"[90, 0, 164]",164,l,0.4013021318241954,colour,0.06
127,20,1,2,13,47,647,1073.0654642039444,1073.8381433023605,"[55, 0, 199]",199,a,0.24924549064598978,colour,0.06
127,20,1,2,13,48,648,1074.3468305484857,1075.2461073300801,"[68, 0, 186]",186,l,0.3763063361402601,colour,0.06
127,20,1,2,13,49,649,1075.7530159701128,1076.5261302676518,"[66, 0, 188]",188,l,0.24980790191330016,colour,0.06
127,20,1,2,13,50,650,1077.034258253174,1077.7740886711981,"[65, 0, 189]",189,a,0.21678514196537435,colour,0.06
127,20,1,2,14,1,651,1083.7084653535858,1085.238095331937,"[55, 0, 199]",199,a,1.005734389880672,colour,0.06
127,20,1,2,14,2,652,1085.7561651582364,1086.3101048534736,"[68, 0, 186]",186,l,0.030677016358822584,colour,0.06
127,20,1,2,14,3,653,1086.8061413897667,1087.5740726811346,"[84, 0, 170]",170,l,0.24462922802194953,colour,0.06
127,20,1,2,14,4,654,1088.0873998205643,1089.1340732639655,"[63, 0, 191]",191,l,0.5233524756040424,colour,0.06
127,20,1,2,14,5,655,1089.6474996525794,1090.2700456506573,"[59, 0, 195]",195,a,0.09926441474817693,colour,0.06
127,20,1,2,14,6,656,1090.7764580454677,1091.5340489242226,"[85, 0, 169]",169,l,0.2347070793621242,colour,0.06
127,20,1,2,14,7,657,1092.0545700448565,1092.7740418035537,"[54, 0, 200]",200,a,0.1961602431256324,colour,0.06
127,20,1,2,14,8,658,1093.2889222695958,1093.8301190950442,"[82, 0, 172]",172,l,0.01791209145449102,colour,0.06
127,20,1,2,14,9,659,1094.3514940724708,1095.086056807544,"[99, 0, 155]",155,l,0.2115336067508906,colour,0.06
127,20,1,2,14,10,660,1095.601442183368,1096.4060393050313,"[12, 0, 242]",242,a,0.2812686706893146,colour,0.06
127,20,1,2,14,11,661,1096.913937284844,1097.7900575289968,"[60, 0, 194]",194,l,0.35273941163904965,colour,0.06
127,20,1,2,14,12,662,1098.30453430349,1099.1020583545323,"[30, 0, 224]",224,a,0.27279075351543725,colour,0.06
127,20,1,2,14,13,663,1099.6184011686128,1100.4220652703661,"[70, 0, 184]",184,l,0.2803651890717447,colour,0.06
127,20,1,2,14,14,664,1100.9309388054535,1101.6940277668182,"[62, 0, 192]",192,a,0.23909412394277751,colour,0.06
127,20,1,2,14,15,665,1102.2131936652586,1103.2940540758427,"[90, 0, 164]",164,l,0.5574390119872987,colour,0.06
127,20,1,2,14,16,666,1103.8069286867976,1104.486016714014,"[87, 0, 167]",167,l,0.15568592702038586,colour,0.06
127,20,1,2,14,17,667,1104.9945267296862,1105.7100301017053,"[88, 0, 166]",166,l,0.19219264411367476,colour,0.06
127,20,1,2,14,18,668,1106.2286910901312,1106.97407039674,"[39, 0, 215]",215,a,0.22193073271773756,colour,0.06
127,20,1,2,14,19,669,1107.494406803744,1108.6060174859595,"[89, 0, 165]",165,l,0.586115293437615,colour,0.06
127,20,1,2,14,20,670,1109.1215584308375,1109.7100407355465,"[53, 0, 201]",201,a,0.06230595731176436,colour,0.06
127,20,1,2,14,21,671,1110.218229767168,1110.9660150755662,"[69, 0, 185]",185,l,0.2281141064595431,colour,0.06
127,20,1,2,14,22,672,1111.4802086751442,1112.4060176436324,"[51, 0, 203]",203,a,0.4010189571417868,colour,0.06
127,20,1,2,14,23,673,1112.9192069370765,1113.7659770301543,"[52, 0, 202]",202,a,0.32349717430770397,colour,0.06
127,20,1,2,14,24,674,1114.278561770916,1114.9820288319606,"[77, 0, 177]",177,l,0.18014924391172826,colour,0.06
127,20,1,2,14,25,675,1115.4973208662122,1116.2939938174095,"[79, 0, 175]",175,l,0.2733181123621762,colour,0.06
127,20,1,2,14,26,676,1116.809709235793,1117.5659637970384,"[64, 0, 190]",190,a,0.23293831944465637,colour,0.06
127,20,1,2,14,27,677,1118.0755998168606,1118.837999548763,"[58, 0, 196]",196,a,0.23946158192120492,colour,0.06
127,20,1,2,14,28,678,1119.3566904694308,1119.9900345285423,"[94, 0, 160]",160,l,0.10882973950356245,colour,0.06
127,20,1,2,14,29,679,1120.501375505235,1121.1580556952395,"[93, 0, 161]",161,l,0.1366537392605096,colour,0.06
127,20,1,2,14,30,680,1121.6703088181093,1122.5739880043548,"[78, 0, 176]",176,l,0.3807981435675174,colour,0.06
127,20,1,2,14,31,681,1123.0921818921342,1123.9179604162928,"[65, 0, 189]",189,l,0.30269307596608996,colour,0.06
127,20,1,2,14,32,682,1124.4358348953538,1125.085999700008,"[75, 0, 179]",179,l,0.12711795326322317,colour,0.06
127,20,1,2,14,33,683,1125.5929142476525,1126.134049633285,"[73, 0, 181]",181,l,0.01797983283177018,colour,0.06
127,20,1,2,14,34,684,1126.6568475742824,1127.3419996399898,"[97, 0, 157]",157,l,0.16183385462500155,colour,0.06
127,20,1,2,14,35,685,1127.85998321441,1128.6059674676508,"[76, 0, 178]",178,a,0.22267155605368316,colour,0.06
127,20,1,2,14,36,686,1129.1125295236707,1129.8379936409183,"[50, 0, 204]",204,a,0.20206359261646867,colour,0.06
127,20,1,2,14,37,687,1130.347040074179,1131.1099644082133,"[72, 0, 182]",182,l,0.23946906486526132,colour,0.06
127,20,1,2,14,38,688,1131.6284072063863,1132.3019766709767,"[57, 0, 197]",197,a,0.15028118598274887,colour,0.06
127,20,1,2,14,39,689,1132.8175073757302,1133.5499488592613,"[91, 0, 163]",163,l,0.20897794351913035,colour,0.06
127,20,1,2,14,40,690,1134.0674326436128,1134.7579630629625,"[98, 0, 156]",156,l,0.1670471872203052,colour,0.06
127,20,1,2,14,41,691,1135.2668421117123,1136.0380112065468,"[74, 0, 180]",180,a,0.24765789951197803,colour,0.06
127,20,1,2,14,42,692,1136.5359185086563,1137.3099398321938,"[80, 0, 174]",174,l,0.25073383236303926,colour,0.06
127,20,1,2,14,43,693,1137.8191205668263,1138.5419573411345,"[95, 0, 159]",159,l,0.1995390432421118,colour,0.06
127,20,1,2,14,44,694,1139.0534597944934,1139.9259385436308,"[61, 0, 193]",193,a,0.3491502981632948,colour,0.06
127,20,1,2,14,45,695,1140.4441221912857,1141.2539586392231,"[83, 0, 171]",171,l,0.2865847968496382,colour,0.06
127,20,1,2,14,46,696,1141.7722230253275,1144.2459793302696,"[71, 0, 183]",183,l,1.9504329739138484,colour,0.06
127,20,1,2,14,47,697,1144.7565617607906,1145.669954357203,"[66, 0, 188]",188,a,0.389984194887802,colour,0.06
127,20,1,2,14,48,698,1146.178551412886,1146.9179375732783,"[81, 0, 173]",173,l,0.21610575867816806,colour,0.06
127,20,1,2,14,49,699,1147.4284857390448,1148.1739851685707,"[96, 0, 158]",158,l,0.22076061787083745,colour,0.06
127,20,1,2,14,50,700,1148.6816704720259,1150.2939382852055,"[92, 0, 162]",162,l,1.0888247534167022,colour,0.06
127,20,1,2,15,1,701,1159.998660925543,1161.101901997812,"[74, 0, 180]",180,l,0.5791832194663584,colour,0.06
127,20,1,2,15,2,702,1161.6101375033613,1162.1419816806447,"[84, 0, 170]",170,l,0.008512575644999743,colour,0.06
127,20,1,2,15,3,703,1162.6567282392643,1164.3739097865764,"[80, 0, 174]",174,l,1.1938716070726514,colour,0.06
127,20,1,2,15,4,704,1164.8828553953208,1165.4379214884248,"[68, 0, 186]",186,a,0.03179986961185932,colour,0.06
127,20,1,2,15,5,705,1165.9453129831236,1167.3178896028548,"[71, 0, 183]",183,a,0.8492548640351743,colour,0.06
127,20,1,2,15,6,706,1167.835885780165,1168.5578978420235,"[92, 0, 162]",162,l,0.1985867249313742,colour,0.06
127,20,1,2,15,7,707,1169.0702218571678,1173.6299345390871,"[82, 0, 172]",172,l,4.036307431058958,colour,0.06
127,20,1,2,15,8,708,1174.1497983315494,1176.5019296458922,"[95, 0, 159]",159,l,1.828784352634102,colour,0.06
127,20,1,2,15,9,709,1177.0105487566907,1178.0778955419082,"[60, 0, 194]",194,a,0.5439923403318971,colour,0.06
127,20,1,2,15,10,710,1178.5886386614293,1179.79789623525,"[59, 0, 195]",195,a,0.6859177013393492,colour,0.06
127,20,1,2,15,11,711,1180.3073751106858,1181.421917972155,"[89, 0, 165]",165,l,0.5899974280036986,colour,0.06
127,20,1,2,15,12,712,1181.9338083635084,1184.2138817133382,"[85, 0, 169]",169,l,1.7568118525668979,colour,0.06
127,20,1,2,15,13,713,1184.7307140773628,1187.8618732786272,"[83, 0, 171]",171,l,2.607634221436456,colour,0.06
127,20,1,2,15,14,714,1188.3699488828424,1189.0858732755296,"[76, 0, 178]",178,l,0.1900792692322284,colour,0.06
127,20,1,2,15,15,715,1189.6068213246763,1190.765902593499,"[94, 0, 160]",160,l,0.6357173719443381,colour,0.06
127,20,1,2,15,16,716,1191.2786618077662,1191.8059251685627,"[88, 0, 166]",166,l,0.002170088468119502,colour,0.06
127,20,1,2,15,17,717,1192.3272761215921,1193.3178766057827,"[42, 0, 212]",212,a,0.4672873932868242,colour,0.06
127,20,1,2,15,18,718,1193.8272507186048,1194.9098605904728,"[93, 0, 161]",161,l,0.5592479440383613,colour,0.06
127,20,1,2,15,19,719,1195.4225851465017,1197.125861980021,"[10, 0, 244]",244,a,1.1801200991030782,colour,0.06
127,20,1,2,15,20,720,1197.6415005985182,1198.4858654774725,"[51, 0, 203]",203,a,0.32116285245865583,colour,0.06
127,20,1,2,15,21,721,1199.000917266123,1200.3018939634785,"[96, 0, 158]",158,l,0.7776466710492969,colour,0.06
127,20,1,2,15,22,722,1200.8133507308085,1202.6858850121498,"[87, 0, 167]",167,l,1.3491195782553405,colour,0.06
127,20,1,2,15,23,723,1203.2050643011462,1204.8698762182612,"[91, 0, 163]",163,a,1.1415027645416558,colour,0.06
127,20,1,2,15,24,724,1205.376971147256,1206.2458351827227,"[61, 0, 193]",193,a,0.34550959058105946,colour,0.06
127,20,1,2,15,25,725,1206.751942741219,1207.8298437970225,"[70, 0, 184]",184,l,0.554560789372772,colour,0.06
127,20,1,2,15,26,726,1208.3456608273555,1209.6298215053976,"[75, 0, 179]",179,l,0.7608239562250674,colour,0.06
127,20,1,2,15,27,727,1210.1439729633275,1210.8458776392508,"[73, 0, 181]",181,l,0.1786041879095137,colour,0.06
127,20,1,2,15,28,728,1211.3627387541346,1213.0058694789186,"[69, 0, 185]",185,l,1.1175230902153999,colour,0.06
127,20,1,2,15,29,729,1213.5212847869843,1214.1338282921351,"[98, 0, 156]",156,l,0.08917882037349045,colour,0.06
127,20,1,2,15,30,730,1214.6462822761387,1215.3738294420764,"[66, 0, 188]",188,a,0.20422501652501523,colour,0.06
127,20,1,2,15,31,731,1215.88167346525,1216.7338290009648,"[78, 0, 176]",176,l,0.3269342635758221,colour,0.06
127,20,1,2,15,32,732,1217.2429738955107,1217.8938389574178,"[52, 0, 202]",202,a,0.1277232936117798,colour,0.06
127,20,1,2,15,33,733,1218.4147413203027,1219.1658357183915,"[90, 0, 164]",164,l,0.22776870406232774,colour,0.06
127,20,1,2,15,34,734,1219.680412529502,1220.5898079886101,"[58, 0, 196]",196,l,0.3860177774913609,colour,0.06
127,20,1,2,15,35,735,1221.1022497634403,1221.8778181120288,"[53, 0, 201]",201,a,0.25221469160169363,colour,0.06
127,20,1,2,15,36,736,1222.3991714280564,1223.0378150714096,"[77, 0, 177]",177,l,0.11399541632272303,colour,0.06
127,20,1,2,15,37,737,1223.5529901338741,1224.205844115233,"[79, 0, 175]",175,l,0.12963659479282796,colour,0.06
127,20,1,2,15,38,738,1224.713596766116,1225.3178013814613,"[65, 0, 189]",189,a,0.08088364754803479,colour,0.06
127,20,1,2,15,39,739,1225.838523363229,1226.6618301132694,"[72, 0, 182]",182,l,0.300055886618793,colour,0.06
127,20,1,2,15,40,740,1227.1822244154755,1227.9018202356528,"[63, 0, 191]",191,a,0.19617757247760892,colour,0.06
127,20,1,2,15,41,741,1228.4166936122347,1229.3737967528868,"[67, 0, 187]",187,a,0.4338692126329988,colour,0.06
127,20,1,2,15,42,742,1229.8854390215129,1230.5258021943737,"[62, 0, 192]",192,l,0.11707174335606396,colour,0.06
127,20,1,2,15,43,743,1231.0441201434005,1231.7821061832365,"[43, 0, 211]",211,a,0.21476510865613818,colour,0.06
127,20,1,2,15,44,744,1232.294136783341,1233.0298479718622,"[55, 0, 199]",199,a,0.21253673103637993,colour,0.06
127,20,1,2,15,45,745,1233.5428647610825,1234.589772542473,"[97, 0, 157]",157,l,0.5236840934958309,colour,0.06
127,20,1,2,15,46,746,1235.1077281537,1235.8458276209421,"[50, 0, 204]",204,a,0.21487459749914706,colour,0.06
127,20,1,2,15,47,747,1236.3576955629978,1237.0938254091889,"[86, 0, 168]",168,l,0.21289552422240376,colour,0.06
127,20,1,2,15,48,748,1237.6077381968498,1238.2217889484018,"[54, 0, 200]",200,a,0.09081052197143435,colour,0.06
127,20,1,2,15,49,749,1238.7264046203345,1239.429770856863,"[56, 0, 198]",198,a,0.18010001326911151,colour,0.06
127,20,1,2,15,50,750,1239.9367913489696,1240.685777098406,"[99, 0, 155]",155,l,0.22573843062855303,colour,0.06
127,20,1,2,16,1,751,1247.5473490853328,1250.181749831885,"[78, 0, 176]",176,l,2.11025152169168,colour,0.06
127,20,1,2,16,2,752,1250.6794873864856,1251.6218189594802,"[67, 0, 187]",187,l,0.4190933124627918,colour,0.06
127,20,1,2,16,3,753,1252.1326530573424,1252.9977251486853,"[65, 0, 189]",189,l,0.34178302506916225,colour,0.06
127,20,1,2,16,4,754,1253.5082236900926,1254.2777445416432,"[68, 0, 186]",186,l,0.24634363735094666,colour,0.06
127,20,1,2,16,5,755,1254.7894344655797,1255.6058938184287,"[73, 0, 181]",181,l,0.2930442560464144,colour,0.06
127,20,1,2,16,6,756,1256.117581379367,1257.213725356618,"[88, 0, 166]",166,l,0.5727269111666828,colour,0.06
127,20,1,2,16,7,757,1257.7288283451926,1258.957747865701,"[62, 0, 192]",192,a,0.7063058989588171,colour,0.06
127,20,1,2,16,8,758,1259.4788841728587,1260.5177480548155,"[91, 0, 163]",163,l,0.5155578802805394,colour,0.06
127,20,1,2,16,9,759,1261.0270560013596,1261.7417421438731,"[59, 0, 195]",195,a,0.1912871932145208,colour,0.06
127,20,1,2,16,10,760,1262.2638780309353,1263.1417248935904,"[75, 0, 179]",179,l,0.3548023742623627,colour,0.06
127,20,1,2,16,11,761,1263.6544384215958,1264.429740136955,"[54, 0, 200]",200,a,0.2519389996305108,colour,0.06
127,20,1,2,16,12,762,1264.9513017970603,1265.6538086629007,"[87, 0, 167]",167,l,0.17911146115511656,colour,0.06
127,20,1,2,16,13,763,1266.170095157111,1266.7817745653447,"[53, 0, 201]",201,a,0.08621552726253867,colour,0.06
127,20,1,2,16,14,764,1267.297220199369,1267.9416951187886,"[95, 0, 159]",159,l,0.12203774065710604,colour,0.06
127,20,1,2,16,15,765,1268.4525942010805,1269.4697745274752,"[71, 0, 183]",183,l,0.4938664478249848,colour,0.06
127,20,1,2,16,16,766,1269.9838952654973,1270.813814286841,"[60, 0, 194]",194,a,0.30661262571811676,colour,0.06
127,20,1,2,16,17,767,1271.3301953040063,1271.997721210122,"[81, 0, 173]",173,l,0.14418012578971684,colour,0.06
127,20,1,2,16,18,768,1272.5176732242107,1273.1177656990476,"[50, 0, 204]",204,a,0.07794240955263376,colour,0.06
127,20,1,2,16,19,769,1273.6259563060012,1274.341726705199,"[93, 0, 161]",161,l,0.1926593508105725,colour,0.06
127,20,1,2,16,20,770,1274.8602652077097,1275.5737178262789,"[89, 0, 165]",165,l,0.1898650173097849,colour,0.06
127,20,1,2,16,21,771,1276.071666876087,1276.7257528060582,"[74, 0, 180]",180,l,0.13677189289592206,colour,0.06
127,20,1,2,16,22,772,1277.2373714440037,1277.813703222433,"[56, 0, 198]",198,a,0.05294109997339547,colour,0.06
127,20,1,2,16,23,773,1278.3311779485084,1279.1577122621238,"[80, 0, 174]",174,l,0.3034299607388675,colour,0.06
127,20,1,2,16,24,774,1279.660705290502,1280.237726692576,"[70, 0, 184]",184,l,0.054239214630797505,colour,0.06
127,20,1,2,16,25,775,1280.7544420845807,1283.9657059069723,"[66, 0, 188]",188,l,2.6886576840188354,colour,0.06
127,20,1,2,16,26,776,1284.4732194936369,1285.005707608303,"[58, 0, 196]",196,a,0.009192746598273516,colour,0.06
127,20,1,2,16,27,777,1285.52008355828,1286.8457212827634,"[79, 0, 175]",175,l,0.8026562514714897,colour,0.06
127,20,1,2,16,28,778,1287.365088436054,1288.0536673511378,"[90, 0, 164]",164,l,0.16535325767472386,colour,0.06
127,20,1,2,16,29,779,1288.5685946845915,1289.3497335833963,"[96, 0, 158]",158,l,0.25784746930003166,colour,0.06
127,20,1,2,16,30,780,1289.8652977650054,1290.8136914072093,"[92, 0, 162]",162,l,0.42486826865933836,colour,0.06
127,20,1,2,16,31,781,1291.3341310017277,1292.101672386052,"[61, 0, 193]",193,a,0.2426493668463081,colour,0.06
127,20,1,2,16,32,782,1292.6168998298235,1293.3577262829058,"[63, 0, 191]",191,a,0.21749800210818648,colour,0.06
127,20,1,2,16,33,783,1293.867537957849,1294.5576410547365,"[76, 0, 178]",178,l,0.17918156553059816,colour,0.06
127,20,1,2,16,34,784,1295.0738290876616,1295.7737070349976,"[52, 0, 202]",202,a,0.1766259022988379,colour,0.06
127,20,1,2,16,35,785,1296.2925751861185,1296.837694712216,"[64, 0, 190]",190,a,0.0240143327973783,colour,0.06
127,20,1,2,16,36,786,1297.3532490478829,1297.9816534970887,"[85, 0, 169]",169,l,0.10267590405419469,colour,0.06
127,20,1,2,16,37,787,1298.496224006638,1299.2776862524915,"[82, 0, 172]",172,l,0.25819287169724703,colour,0.06
127,20,1,2,16,38,788,1299.793096834328,1300.5576599594206,"[77, 0, 177]",177,l,0.2411885941401124,colour,0.06
127,20,1,2,16,39,789,1301.0743903173134,1301.7896790434606,"[55, 0, 199]",199,a,0.19602318480610847,colour,0.06
127,20,1,2,16,40,790,1302.3046489125118,1302.8376765954308,"[97, 0, 157]",157,l,0.019890771014615893,colour,0.06
127,20,1,2,16,41,791,1303.3569425304886,1304.0616939214524,"[94, 0, 160]",160,l,0.181382373906672,colour,0.06
127,20,1,2,16,42,792,1304.5756976874545,1305.1736886028666,"[69, 0, 185]",185,a,0.07476250128820539,colour,0.06
127,20,1,2,16,43,793,1305.6850319427904,1306.365662662778,"[86, 0, 168]",168,l,0.15756693319417536,colour,0.06
127,20,1,2,16,44,794,1306.8735149565618,1307.4616569788195,"[51, 0, 203]",203,a,0.06485492503270507,colour,0.06
127,20,1,2,16,45,795,1307.9829287687317,1308.7176710972562,"[57, 0, 197]",197,a,0.21144026517868042,colour,0.06
127,20,1,2,16,46,796,1309.2329091748688,1309.8136918009259,"[84, 0, 170]",170,l,0.057558937929570675,colour,0.06
127,20,1,2,16,47,797,1310.3265963443555,1310.9816767340526,"[31, 0, 223]",223,a,0.1317298833746463,colour,0.06
127,20,1,2,16,48,798,1311.4933741409332,1312.1336798123084,"[98, 0, 156]",156,l,0.1253803069703281,colour,0.06
127,20,1,2,16,49,799,1312.6412757127546,1313.253660498187,"[45, 0, 209]",209,a,0.09020084934309125,colour,0.06
127,20,1,2,16,50,800,1313.7660093256272,1314.5576564148068,"[43, 0, 211]",211,a,0.26846987497992814,colour,0.06
