id,age,condition,counterbalance,block,trialinblock,trial,tstart,tend,trialstim,trialintensity,response,RT,trialtype,colourfreq
036,69,0,1,Practice,1,NA,5.5138953030109406e-06,6.387604251038283,"[58, 0, 196]",196,a,5.86421610461548,colour,0.5
036,69,0,1,Practice,2,NA,6.906994467135519,8.643819139804691,"[28, 0, 226]",226,a,1.2140272953547537,colour,0.5
036,69,0,1,Practice,3,NA,9.156942085828632,10.459566990379244,"[61, 0, 193]",193,a,0.7796286349184811,colour,0.5
036,69,0,1,Practice,4,NA,10.969460793305188,11.963585400022566,"[23, 0, 231]",231,a,0.47119726007804275,colour,0.5
036,69,0,1,Practice,5,NA,12.469421409070492,13.339596402365714,"[64, 0, 190]",190,a,0.34725000988692045,colour,0.5
036,69,0,1,Practice,6,NA,13.860420611687005,14.635597606189549,"[14, 0, 240]",240,a,0.2530215857550502,colour,0.5
036,69,0,1,Practice,7,NA,15.141218181233853,15.803897026926279,"[52, 0, 202]",202,a,0.13970699440687895,colour,0.5
036,69,0,1,Practice,8,NA,16.31493770936504,19.915601576212794,"[21, 0, 233]",233,a,3.0777392773889005,colour,0.5
036,69,0,1,Practice,9,NA,20.424267761874944,23.299890825990587,"[88, 0, 166]",166,a,2.352767397649586,colour,0.5
036,69,0,1,Practice,10,NA,23.814914472401142,25.235558457672596,"[47, 0, 207]",207,a,0.8977800477296114,colour,0.5
036,69,0,1,1,1,1,8.03551151137799,12.336007678415626,"[99, 0, 155]",155,l,3.7767551350407302,colour,0.5
036,69,0,1,1,2,2,12.848760803230107,14.575954761356115,"[60, 0, 194]",194,a,1.2045261561870575,colour,0.5
036,69,0,1,1,3,3,15.083131027873605,16.21594020491466,"[83, 0, 171]",171,l,0.6098802550695837,colour,0.5
036,69,0,1,1,4,4,16.723712360020727,17.495943780988455,"[98, 0, 156]",156,l,0.2492288500070572,colour,0.5
036,69,0,1,1,5,5,18.004938827827573,18.607910237740725,"[65, 0, 189]",189,a,0.07991015585139394,colour,0.5
036,69,0,1,1,6,6,19.114395304583013,19.943908070214093,"[27, 0, 227]",227,a,0.30697296326979995,colour,0.5
036,69,0,1,1,7,7,20.458127877209336,21.25595652591437,"[61, 0, 193]",193,a,0.2748402561992407,colour,0.5
036,69,0,1,1,8,8,21.772749328054488,22.487946739420295,"[25, 0, 229]",229,a,0.1929372400045395,colour,0.5
036,69,0,1,1,9,9,23.007065202109516,26.06392079917714,"[42, 0, 212]",212,a,2.5338892601430416,colour,0.5
036,69,0,1,1,10,10,26.569518925156444,28.279941742308438,"[49, 0, 205]",205,a,1.187394252512604,colour,0.5
036,69,0,1,1,11,11,28.78824952803552,29.38394305948168,"[43, 0, 211]",211,a,0.07294341549277306,colour,0.5
036,69,0,1,1,12,12,29.897680011112243,30.648001389577985,"[91, 0, 163]",163,l,0.22743853647261858,colour,0.5
036,69,0,1,1,13,13,31.16330821113661,32.74408246483654,"[37, 0, 217]",217,a,1.0578504516743124,colour,0.5
036,69,0,1,1,14,14,33.25710813142359,35.3599590244703,"[29, 0, 225]",225,a,1.5800176761113107,colour,0.5
036,69,0,1,1,15,15,35.86644684802741,36.95193425612524,"[47, 0, 207]",207,a,0.5625411570072174,colour,0.5
036,69,0,1,1,16,16,37.46020186971873,38.18391619902104,"[80, 0, 174]",174,l,0.20088268723338842,colour,0.5
036,69,0,1,1,17,17,38.69455949123949,39.4319721753709,"[94, 0, 160]",160,l,0.21445816243067384,colour,0.5
036,69,0,1,1,18,18,39.94451931910589,42.7999073676765,"[69, 0, 185]",185,a,2.3328785728663206,colour,0.5
036,69,0,1,1,19,19,43.31950474670157,45.1202762122266,"[71, 0, 183]",183,l,1.277855146676302,colour,0.5
036,69,0,1,1,20,20,45.63172531314194,46.239928571972996,"[21, 0, 233]",233,a,0.08593245362862945,colour,0.5
036,69,0,1,1,21,21,46.75878237001598,47.88005304336548,"[54, 0, 200]",200,a,0.5982937021180987,colour,0.5
036,69,0,1,1,22,22,48.39944050228223,49.13592213531956,"[39, 0, 215]",215,a,0.21365314163267612,colour,0.5
036,69,0,1,1,23,23,49.64940860075876,50.31993600772694,"[8, 0, 246]",246,a,0.14769025100395083,colour,0.5
036,69,0,1,1,24,24,50.836976933293045,52.031927907373756,"[33, 0, 221]",221,a,0.6720354431308806,colour,0.5
036,69,0,1,1,25,25,52.540076579432935,53.52802213747054,"[62, 0, 192]",192,l,0.4650973747484386,colour,0.5
036,69,0,1,1,26,26,54.04002695484087,54.72793714515865,"[15, 0, 239]",239,a,0.1651380192488432,colour,0.5
036,69,0,1,1,27,27,55.24332588724792,55.80811787350103,"[22, 0, 232]",232,a,0.04275945806875825,colour,0.5
036,69,0,1,1,28,28,56.3212490901351,57.87991756014526,"[11, 0, 243]",243,a,1.0357608157210052,colour,0.5
036,69,0,1,1,29,29,58.39939560415223,59.54394020792097,"[13, 0, 241]",241,a,0.621653885114938,colour,0.5
036,69,0,1,1,30,30,60.05570556689054,60.67994505073875,"[76, 0, 178]",178,l,0.101547263097018,colour,0.5
036,69,0,1,1,31,31,61.19628729345277,65.24000458419323,"[26, 0, 228]",228,l,3.519278363790363,colour,0.5
036,69,0,1,1,32,32,65.76091465214267,66.82389100873843,"[88, 0, 166]",166,l,0.5401025731116533,colour,0.5
036,69,0,1,1,33,33,67.33895561518148,67.86395104648545,"[95, 0, 159]",159,l,0.0021771802566945553,colour,0.5
036,69,0,1,1,34,34,68.38579295342788,69.1039087632671,"[1, 0, 253]",253,a,0.1952120941132307,colour,0.5
036,69,0,1,1,35,35,69.62028842139989,70.7918977229856,"[23, 0, 231]",231,a,0.6488272845745087,colour,0.5
036,69,0,1,1,36,36,71.30768267344683,72.14392744749784,"[17, 0, 237]",237,a,0.3132445658557117,colour,0.5
036,69,0,1,1,37,37,72.65137428604066,73.43189143715426,"[4, 0, 250]",250,a,0.25811361987143755,colour,0.5
036,69,0,1,1,38,38,73.94831835664809,74.56790258130059,"[84, 0, 170]",170,l,0.09683174593374133,colour,0.5
036,69,0,1,1,39,39,75.0888792090118,75.74394225608557,"[78, 0, 176]",176,l,0.13210852537304163,colour,0.5
036,69,0,1,1,40,40,76.26081382762641,76.90389096131548,"[89, 0, 165]",165,l,0.11806358536705375,colour,0.5
036,69,0,1,1,41,41,77.41915012756363,78.64793207263574,"[73, 0, 181]",181,l,0.7061424995772541,colour,0.5
036,69,0,1,1,42,42,79.15352704795077,81.84797074832022,"[58, 0, 196]",196,l,2.1715384093113244,colour,0.5
036,69,0,1,1,43,43,82.35664402320981,83.47188215795904,"[14, 0, 240]",240,a,0.5923442654311657,colour,0.5
036,69,0,1,1,44,44,83.98170310026035,85.11187981069088,"[3, 0, 251]",251,a,0.6073742131702602,colour,0.5
036,69,0,1,1,45,45,85.622252530884,86.39191725756973,"[66, 0, 188]",188,l,0.24673068476840854,colour,0.5
036,69,0,1,1,46,46,86.90350814303383,88.35191629687324,"[52, 0, 202]",202,a,0.9218050432391465,colour,0.5
036,69,0,1,1,47,47,88.86034420551732,89.96787989605218,"[16, 0, 238]",238,a,0.5846154331229627,colour,0.5
036,69,0,1,1,48,48,90.48534775013104,91.25588327040896,"[64, 0, 190]",190,l,0.24769875826314092,colour,0.5
036,69,0,1,1,49,49,91.76657973183319,92.4479012740776,"[46, 0, 208]",208,a,0.15849738335236907,colour,0.5
036,69,0,1,1,50,50,92.9540811101906,93.60791102563962,"[56, 0, 198]",198,a,0.13103844597935677,colour,0.5
036,69,0,1,2,1,51,100.25011894153431,100.85587759921327,"[20, 0, 234]",234,a,0.0820396807976067,colour,0.5
036,69,0,1,2,2,52,101.37589166732505,101.9359086654149,"[82, 0, 172]",172,l,0.03503732057288289,colour,0.5
036,69,0,1,2,3,53,102.45595424156636,102.99194585112855,"[84, 0, 170]",170,l,0.013624705839902163,colour,0.5
036,69,0,1,2,4,54,103.50286325998604,104.12787822587416,"[55, 0, 199]",199,a,0.10208840714767575,colour,0.5
036,69,0,1,2,5,55,104.63104986725375,105.61587892239913,"[73, 0, 181]",181,l,0.46197850862517953,colour,0.5
036,69,0,1,2,6,56,106.13100496865809,107.43994597997516,"[64, 0, 190]",190,a,0.7861010986380279,colour,0.5
036,69,0,1,2,7,57,107.95905420277268,108.77585637848824,"[29, 0, 225]",225,a,0.2938082693144679,colour,0.5
036,69,0,1,2,8,58,109.28727751644328,110.98390588024631,"[62, 0, 192]",192,l,1.1738589494489133,colour,0.5
036,69,0,1,2,9,59,111.49030272569507,112.06391804246232,"[28, 0, 226]",226,a,0.05069978581741452,colour,0.5
036,69,0,1,2,10,60,112.58407586440444,113.26386219495907,"[34, 0, 220]",220,a,0.15678769815713167,colour,0.5
036,69,0,1,2,11,61,113.77158196875826,114.31193620944396,"[99, 0, 155]",155,l,0.017401688266545534,colour,0.5
036,69,0,1,2,12,62,114.81848153471947,115.59993840241805,"[49, 0, 205]",205,a,0.25847871508449316,colour,0.5
036,69,0,1,2,13,63,116.1152987871319,116.72787688672543,"[25, 0, 229]",229,a,0.08984846342355013,colour,0.5
036,69,0,1,2,14,64,117.24160714354366,121.30394901428372,"[97, 0, 157]",157,l,3.5393605674616992,colour,0.5
036,69,0,1,2,15,65,121.81969300517812,124.13622697163373,"[12, 0, 242]",242,a,1.7935688109137118,colour,0.5
036,69,0,1,2,16,66,124.6478505465202,125.74391232384369,"[51, 0, 203]",203,a,0.5735621475614607,colour,0.5
036,69,0,1,2,17,67,126.2571585434489,126.99991807993501,"[30, 0, 224]",224,a,0.2198782698251307,colour,0.5
036,69,0,1,2,18,68,127.50721722654998,128.6238921112381,"[42, 0, 212]",212,a,0.5937865287996829,colour,0.5
036,69,0,1,2,19,69,129.13216602662578,129.75990364933386,"[87, 0, 167]",167,l,0.10503870714455843,colour,0.5
036,69,0,1,2,20,70,130.26643676590174,131.12788177048787,"[75, 0, 179]",179,l,0.33845149213448167,colour,0.5
036,69,0,1,2,21,71,131.64146827347577,132.27184781478718,"[54, 0, 200]",200,a,0.10745140723884106,colour,0.5
036,69,0,1,2,22,72,132.7820476363413,133.45585538633168,"[18, 0, 236]",236,a,0.15147117245942354,colour,0.5
036,69,0,1,2,23,73,133.9694942701608,134.64791710628197,"[43, 0, 211]",211,a,0.15531313885003328,colour,0.5
036,69,0,1,2,24,74,135.15707599325106,135.78389004757628,"[44, 0, 210]",210,a,0.10395759996026754,colour,0.5
036,69,0,1,2,25,75,136.29777193488553,136.86387306498364,"[52, 0, 202]",202,a,0.04352154955267906,colour,0.5
036,69,0,1,2,26,76,137.3759200242348,137.95985331619158,"[48, 0, 206]",206,a,0.06095120124518871,colour,0.5
036,69,0,1,2,27,77,138.46964511321858,139.43989793071523,"[65, 0, 189]",189,l,0.4472644249908626,colour,0.5
036,69,0,1,2,28,78,139.95408071624115,140.75193654047325,"[98, 0, 156]",156,l,0.27502812072634697,colour,0.5
036,69,0,1,2,29,79,141.26651868550107,141.8958844677545,"[24, 0, 230]",230,a,0.10639393096789718,colour,0.5
036,69,0,1,2,30,80,142.4072067500092,143.12005999078974,"[69, 0, 185]",185,l,0.1899597649462521,colour,0.5
036,69,0,1,2,31,81,143.62586212856695,144.2318570939824,"[88, 0, 166]",166,l,0.08307588938623667,colour,0.5
036,69,0,1,2,32,82,144.7509377473034,145.45586720155552,"[86, 0, 168]",168,l,0.1821261695586145,colour,0.5
036,69,0,1,2,33,83,145.96958485478535,146.5598862413317,"[0, 0, 254]",254,a,0.06728345528244972,colour,0.5
036,69,0,1,2,34,84,147.08032723888755,147.7278520744294,"[4, 0, 250]",250,a,0.12456598179414868,colour,0.5
036,69,0,1,2,35,85,148.23650998948142,148.815868367441,"[14, 0, 240]",240,a,0.05630500055849552,colour,0.5
036,69,0,1,2,36,86,149.33035914041102,149.99987199995667,"[76, 0, 178]",178,l,0.14660323644056916,colour,0.5
036,69,0,1,2,37,87,150.51788966311142,151.23185906326398,"[92, 0, 162]",162,l,0.19122322276234627,colour,0.5
036,69,0,1,2,38,88,151.7521409462206,152.3518517059274,"[9, 0, 245]",245,a,0.07675860077142715,colour,0.5
036,69,0,1,2,39,89,152.86156473401934,153.3918625130318,"[5, 0, 249]",249,a,0.007393275387585163,colour,0.5
036,69,0,1,2,40,90,153.9084524847567,154.43986484780908,"[27, 0, 227]",227,a,0.00854133628308773,colour,0.5
036,69,0,1,2,41,91,154.97132014017552,155.55188408028334,"[23, 0, 231]",231,a,0.058109208941459656,colour,0.5
036,69,0,1,2,42,92,156.06466871267185,156.62386808684096,"[95, 0, 159]",159,l,0.03642483986914158,colour,0.5
036,69,0,1,2,43,93,157.1442275578156,157.90388190280646,"[68, 0, 186]",186,l,0.23677741084247828,colour,0.5
036,69,0,1,2,44,94,158.40980101330206,159.27222748240456,"[50, 0, 204]",204,l,0.3394711595028639,colour,0.5
036,69,0,1,2,45,95,159.7848825394176,161.93593308422714,"[53, 0, 201]",201,a,1.628875050228089,colour,0.5
036,69,0,1,2,46,96,162.45678683184087,163.76800269726664,"[21, 0, 233]",233,a,0.7883665007539093,colour,0.5
036,69,0,1,2,47,97,164.28487308695912,164.90389293059707,"[90, 0, 164]",164,l,0.09630084130913019,colour,0.5
036,69,0,1,2,48,98,165.4098463053815,166.27216643607244,"[41, 0, 213]",213,a,0.3393238610588014,colour,0.5
036,69,0,1,2,49,99,166.78478210885078,167.47985911322758,"[7, 0, 247]",247,a,0.1728542484343052,colour,0.5
036,69,0,1,2,50,100,167.98788214894012,168.54390476178378,"[11, 0, 243]",243,a,0.033060607966035604,colour,0.5
036,69,0,1,3,1,101,174.11608647927642,181.15187762118876,"[46, 0, 208]",208,l,6.512095795944333,colour,0.5
036,69,0,1,3,2,102,181.66251618694514,186.08794067427516,"[6, 0, 248]",248,l,3.900309720542282,colour,0.5
036,69,0,1,3,3,103,186.60247004404664,187.19985278043896,"[19, 0, 235]",235,a,0.07585826888680458,colour,0.5
036,69,0,1,3,4,104,187.71046495856717,188.25583128258586,"[79, 0, 175]",175,l,0.02251183893531561,colour,0.5
036,69,0,1,3,5,105,188.77296436810866,192.04782392270863,"[55, 0, 199]",199,l,2.752068085130304,colour,0.5
036,69,0,1,3,6,106,192.55419910652563,193.15979865007102,"[34, 0, 220]",220,a,0.08271355088800192,colour,0.5
036,69,0,1,3,7,107,193.67915972182527,194.66385486954823,"[20, 0, 234]",234,a,0.4617721335962415,colour,0.5
036,69,0,1,3,8,108,195.17914475593716,195.94385253777727,"[32, 0, 222]",222,a,0.2418123371899128,colour,0.5
036,69,0,1,3,9,109,196.46044999267906,197.59200083184987,"[24, 0, 230]",230,a,0.6087727602571249,colour,0.5
036,69,0,1,3,10,110,198.10095610050485,199.04782471014187,"[29, 0, 225]",225,a,0.424182690680027,colour,0.5
036,69,0,1,3,11,111,199.55422982666641,200.51984313922003,"[58, 0, 196]",196,l,0.44282460026443005,colour,0.5
036,69,0,1,3,12,112,201.0384180941619,201.63180920202285,"[48, 0, 206]",206,a,0.07035309076309204,colour,0.5
036,69,0,1,3,13,113,202.14790568500757,203.8717881864868,"[56, 0, 198]",198,l,1.2011761027388275,colour,0.5
036,69,0,1,3,14,114,204.38221013732255,204.91183365229517,"[25, 0, 229]",229,a,0.006885608658194542,colour,0.5
036,69,0,1,3,15,115,205.42918217089027,206.96783027146012,"[70, 0, 184]",184,l,1.0169586115516722,colour,0.5
036,69,0,1,3,16,116,207.47723294887692,208.01581370132044,"[3, 0, 251]",251,a,0.015640803147107363,colour,0.5
036,69,0,1,3,17,117,208.52401278587058,209.69584815530106,"[57, 0, 197]",197,l,0.6488075922243297,colour,0.5
036,69,0,1,3,18,118,210.21157993655652,211.40790346357971,"[53, 0, 201]",201,a,0.6733343466185033,colour,0.5
036,69,0,1,3,19,119,211.91474062902853,212.63180802064016,"[90, 0, 164]",164,l,0.1942668636329472,colour,0.5
036,69,0,1,3,20,120,213.14914708724245,214.5038908040151,"[61, 0, 193]",193,a,0.8321290840394795,colour,0.5
036,69,0,1,3,21,121,215.02403917349875,215.81581795495003,"[38, 0, 216]",216,a,0.2694804067723453,colour,0.5
036,69,0,1,3,22,122,216.3336280612275,217.3437896799296,"[45, 0, 209]",209,a,0.48726853681728244,colour,0.5
036,69,0,1,3,23,123,217.8648698888719,218.6639379709959,"[10, 0, 244]",244,a,0.2763132401742041,colour,0.5
036,69,0,1,3,24,124,219.1773358215578,220.44786267681047,"[83, 0, 171]",171,l,0.7476420444436371,colour,0.5
036,69,0,1,3,25,125,220.95863199979067,222.07984635280445,"[16, 0, 238]",238,a,0.5982956709340215,colour,0.5
036,69,0,1,3,26,126,222.60046654986218,223.34377550147474,"[72, 0, 182]",182,l,0.22031307592988014,colour,0.5
036,69,0,1,3,27,127,223.85052247624844,225.12779157981277,"[99, 0, 155]",155,l,0.7544516404159367,colour,0.5
036,69,0,1,3,28,128,225.64731767307967,226.82379491021857,"[89, 0, 165]",165,l,0.6535494970157743,colour,0.5
036,69,0,1,3,29,129,227.3348348052241,228.38378709647804,"[27, 0, 227]",227,a,0.5259993448853493,colour,0.5
036,69,0,1,3,30,130,228.89732988225296,229.70385740557685,"[84, 0, 170]",170,l,0.28363916743546724,colour,0.5
036,69,0,1,3,31,131,230.209889549762,231.43981876783073,"[94, 0, 160]",160,l,0.7071373546496034,colour,0.5
036,69,0,1,3,32,132,231.95986040541902,233.23982735350728,"[74, 0, 180]",180,l,0.7570971031673253,colour,0.5
036,69,0,1,3,33,133,233.75677730049938,234.74395682802424,"[1, 0, 253]",253,a,0.4643841194920242,colour,0.5
036,69,0,1,3,34,134,235.2567426422611,236.6318206237629,"[80, 0, 174]",174,l,0.8521982906386256,colour,0.5
036,69,0,1,3,35,135,237.14854253362864,238.22384114796296,"[42, 0, 212]",212,a,0.5523921414278448,colour,0.5
036,69,0,1,3,36,136,238.74212426319718,239.8318116441369,"[18, 0, 236]",236,a,0.5666903238743544,colour,0.5
036,69,0,1,3,37,137,240.3516933801584,241.28778754686937,"[87, 0, 167]",167,l,0.41318572498857975,colour,0.5
036,69,0,1,3,38,138,241.80467959865928,242.91182813839987,"[2, 0, 252]",252,a,0.5840341164730489,colour,0.5
036,69,0,1,3,39,139,243.4298320170492,244.91187697509304,"[98, 0, 156]",156,l,0.9591388795524836,colour,0.5
036,69,0,1,3,40,140,245.4297697893344,246.8557815006934,"[78, 0, 176]",176,l,0.9030985436402261,colour,0.5
036,69,0,1,3,41,141,247.36862284690142,248.35180011205375,"[41, 0, 213]",213,a,0.46039209701120853,colour,0.5
036,69,0,1,3,42,142,248.8692435482517,251.80783469835296,"[47, 0, 207]",207,a,2.41701863380149,colour,0.5
036,69,0,1,3,43,143,252.32161418534815,253.65577669581398,"[66, 0, 188]",188,a,0.811107951682061,colour,0.5
036,69,0,1,3,44,144,254.16536802519113,255.1597951054573,"[62, 0, 192]",192,a,0.4717328902333975,colour,0.5
036,69,0,1,3,45,145,255.6810190686956,256.6798209892586,"[59, 0, 195]",195,a,0.4758619712665677,colour,0.5
036,69,0,1,3,46,146,257.1979497168213,258.1277896105312,"[11, 0, 243]",243,a,0.4073044238612056,colour,0.5
036,69,0,1,3,47,147,258.63543100934476,259.99980504624546,"[33, 0, 221]",221,a,0.8428476005792618,colour,0.5
036,69,0,1,3,48,148,260.5090572745539,261.7277906346135,"[51, 0, 203]",203,a,0.6958107394166291,colour,0.5
036,69,0,1,3,49,149,262.24559955950826,262.9197743735276,"[93, 0, 161]",161,l,0.15129630453884602,colour,0.5
036,69,0,1,3,50,150,263.4331887657754,264.6158198453486,"[13, 0, 241]",241,a,0.6601007301360369,colour,0.5
036,69,0,1,4,1,151,270.0104680308141,270.6718278862536,"[21, 0, 233]",233,a,0.1377208293415606,colour,0.5
036,69,0,1,4,2,152,271.1831611962989,272.4397864723578,"[96, 0, 158]",158,l,0.7338322307914495,colour,0.5
036,69,0,1,4,3,153,272.9500434016809,274.5038423608057,"[71, 0, 183]",183,l,1.0309492000378668,colour,0.5
036,69,0,1,4,4,154,275.0125420233235,276.0557949701324,"[54, 0, 200]",200,a,0.5209179446101189,colour,0.5
036,69,0,1,4,5,155,276.57497762935236,278.63980033574626,"[80, 0, 174]",174,l,1.5422127996571362,colour,0.5
036,69,0,1,4,6,156,279.1531473803334,280.495836654678,"[83, 0, 171]",171,l,0.8197741373442113,colour,0.5
036,69,0,1,4,7,157,281.01253493409604,282.75176324835047,"[58, 0, 196]",196,a,1.2164305429905653,colour,0.5
036,69,0,1,4,8,158,283.2637668843381,285.4237845125608,"[79, 0, 175]",175,l,1.6372549096122384,colour,0.5
036,69,0,1,4,9,159,285.9356042225845,286.7277831514366,"[14, 0, 240]",240,a,0.26929884403944016,colour,0.5
036,69,0,1,4,10,160,287.24806621670723,288.7597394157201,"[27, 0, 227]",227,a,0.9889376554638147,colour,0.5
036,69,0,1,4,11,161,289.2793686967343,290.439881389495,"[10, 0, 244]",244,a,0.6381048294715583,colour,0.5
036,69,0,1,4,12,162,290.9512422690168,292.1678094761446,"[86, 0, 168]",168,l,0.6936654606834054,colour,0.5
036,69,0,1,4,13,163,292.68702049274,294.06394206685945,"[60, 0, 194]",194,l,0.8542084801010787,colour,0.5
036,69,0,1,4,14,164,294.5774261695333,295.4877746286802,"[57, 0, 197]",197,a,0.3875656542368233,colour,0.5
036,69,0,1,4,15,165,295.99931273888797,298.81579156732187,"[68, 0, 186]",186,l,2.293841352686286,colour,0.5
036,69,0,1,4,16,166,299.32744664978236,301.1517748273909,"[43, 0, 211]",211,a,1.3014874774962664,colour,0.5
036,69,0,1,4,17,167,301.67119576362893,303.0238375244662,"[93, 0, 161]",161,l,0.8255939986556768,colour,0.5
036,69,0,1,4,18,168,303.53468285966665,306.6397932465188,"[77, 0, 177]",177,l,2.582219274248928,colour,0.5
036,69,0,1,4,19,169,307.1596497762948,308.30379698984325,"[99, 0, 155]",155,l,0.6212049005553126,colour,0.5
036,69,0,1,4,20,170,308.8159561948851,309.93573025334626,"[35, 0, 219]",219,a,0.5971113764680922,colour,0.5
036,69,0,1,4,21,171,310.45654697949067,311.7357573499903,"[67, 0, 187]",187,a,0.7563913315534592,colour,0.5
036,69,0,1,4,22,172,312.25458279112354,313.3357993341051,"[23, 0, 231]",231,a,0.5582194859161973,colour,0.5
036,69,0,1,4,23,173,313.8485134681687,315.51178386993706,"[53, 0, 201]",201,a,1.1413268824107945,colour,0.5
036,69,0,1,4,24,174,316.0203681355342,317.343718000222,"[63, 0, 191]",191,a,0.8004619027487934,colour,0.5
036,69,0,1,4,25,175,317.8641038588248,319.07175557594746,"[34, 0, 220]",220,a,0.6848425245843828,colour,0.5
036,69,0,1,4,26,176,319.58286084933206,320.93575821630657,"[38, 0, 216]",216,a,0.8302787956781685,colour,0.5
036,69,0,1,4,27,177,321.4422082309611,323.1837519654073,"[88, 0, 166]",166,l,1.2186352922581136,colour,0.5
036,69,0,1,4,28,178,323.6921814493835,325.9677144805901,"[92, 0, 162]",162,l,1.752584810834378,colour,0.5
036,69,0,1,4,29,179,326.4733961019665,327.9278297042474,"[6, 0, 248]",248,a,0.9315212219953537,colour,0.5
036,69,0,1,4,30,180,328.4422361939214,329.74382173921913,"[5, 0, 249]",249,a,0.7787255463190377,colour,0.5
036,69,0,1,4,31,181,330.2546844035387,332.2957735606469,"[47, 0, 207]",207,a,1.5182393984869123,colour,0.5
036,69,0,1,4,32,182,332.8029348612763,336.44780123699456,"[61, 0, 193]",193,l,3.1223714724183083,colour,0.5
036,69,0,1,4,33,183,336.9591109165922,338.15977856423706,"[20, 0, 234]",234,a,0.6777765350416303,colour,0.5
036,69,0,1,4,34,184,338.6778553039767,339.91975546907634,"[22, 0, 232]",232,a,0.7190188984386623,colour,0.5
036,69,0,1,4,35,185,340.4278222210705,341.63973535131663,"[76, 0, 178]",178,l,0.6890275315381587,colour,0.5
036,69,0,1,4,36,186,342.14813490305096,343.2397895446047,"[41, 0, 213]",213,a,0.5687241442501545,colour,0.5
036,69,0,1,4,37,187,343.7575563280843,345.367728816811,"[8, 0, 246]",246,a,1.0873298193328083,colour,0.5
036,69,0,1,4,38,188,345.87912514200434,347.18376850662753,"[85, 0, 169]",169,l,0.7820157348178327,colour,0.5
036,69,0,1,4,39,189,347.6916241575964,348.9037550846115,"[33, 0, 221]",221,a,0.6892784112133086,colour,0.5
036,69,0,1,4,40,190,349.4103492470458,350.82377561181784,"[95, 0, 159]",159,l,0.8904249756596982,colour,0.5
036,69,0,1,4,41,191,351.3322944990359,352.511725186836,"[44, 0, 210]",210,a,0.6567554026842117,colour,0.5
036,69,0,1,4,42,192,353.0196832376532,354.56774189230055,"[2, 0, 252]",252,a,1.0250836526975036,colour,0.5
036,69,0,1,4,43,193,355.08231025282294,358.9277639319189,"[64, 0, 190]",190,l,3.323163968976587,colour,0.5
036,69,0,1,4,44,194,359.4429025813006,360.6158107868396,"[9, 0, 245]",245,a,0.6500415112823248,colour,0.5
036,69,0,1,4,45,195,361.1303937197663,362.4637393937446,"[16, 0, 238]",238,a,0.8104301425628364,colour,0.5
036,69,0,1,4,46,196,362.97415031678975,364.3117404682562,"[18, 0, 236]",236,a,0.8147270018234849,colour,0.5
036,69,0,1,4,47,197,364.8179470859468,365.99970737239346,"[89, 0, 165]",165,l,0.6589105273596942,colour,0.5
036,69,0,1,4,48,198,366.50529407709837,367.56782105518505,"[29, 0, 225]",225,a,0.5395066840574145,colour,0.5
036,69,0,1,4,49,199,368.08351305825636,369.19970784522593,"[11, 0, 243]",243,a,0.5937818032689393,colour,0.5
036,69,0,1,4,50,200,369.7084464984946,372.6717554186471,"[49, 0, 205]",205,a,2.4403114691376686,colour,0.5
036,69,0,1,5,1,201,377.84955597808585,379.7917220676318,"[45, 0, 209]",209,a,1.4184841341339052,colour,0.5
036,69,0,1,5,2,202,380.30344252847135,381.30376075580716,"[43, 0, 211]",211,a,0.47726012393832207,colour,0.5
036,69,0,1,5,3,203,381.8190242545679,383.0077374968678,"[9, 0, 245]",245,a,0.6644724197685719,colour,0.5
036,69,0,1,5,4,204,383.5234850323759,385.23170900763944,"[52, 0, 202]",202,a,1.1853958782739937,colour,0.5
036,69,0,1,5,5,205,385.7421762510203,387.0077363154851,"[77, 0, 177]",177,l,0.7426614691503346,colour,0.5
036,69,0,1,5,6,206,387.52332749404013,388.81573800416663,"[86, 0, 168]",168,l,0.7813095692545176,colour,0.5
036,69,0,1,5,7,207,389.3240260980092,390.8477505883202,"[76, 0, 178]",178,l,1.000779421068728,colour,0.5
036,69,0,1,5,8,208,391.3552226331085,393.07969629764557,"[74, 0, 180]",180,l,1.2014813334681094,colour,0.5
036,69,0,1,5,9,209,393.5896188518964,395.35168629093096,"[81, 0, 173]",173,l,1.239197594113648,colour,0.5
036,69,0,1,5,10,210,395.87089848844334,397.06371521158144,"[28, 0, 226]",226,a,0.6694242446683347,colour,0.5
036,69,0,1,5,11,211,397.57540652761236,398.6477426327765,"[8, 0, 246]",246,a,0.5493914294056594,colour,0.5
036,69,0,1,5,12,212,399.1535723400302,401.6480139927007,"[93, 0, 161]",161,l,1.9714520783163607,colour,0.5
036,69,0,1,5,13,213,402.169160367921,403.19969957415015,"[7, 0, 247]",247,a,0.5076508508063853,colour,0.5
036,69,0,1,5,14,214,403.71604457404464,404.831690733321,"[24, 0, 230]",230,a,0.5929515757597983,colour,0.5
036,69,0,1,5,15,215,405.3409977061674,406.9597292547114,"[11, 0, 243]",243,a,1.0957415807060897,colour,0.5
036,69,0,1,5,16,216,407.46721941651776,408.5517450524494,"[51, 0, 203]",203,a,0.5616286159493029,colour,0.5
036,69,0,1,5,17,217,409.06095395796,410.15172874741256,"[30, 0, 224]",224,a,0.5678147538565099,colour,0.5
036,69,0,1,5,18,218,410.67036671796814,411.83174232719466,"[14, 0, 240]",240,a,0.6384344780817628,colour,0.5
036,69,0,1,5,19,219,412.3422123272903,413.503732083831,"[18, 0, 236]",236,a,0.6385660227388144,colour,0.5
036,69,0,1,5,20,220,414.0140673886053,415.2557647228241,"[46, 0, 208]",208,a,0.7187758954241872,colour,0.5
036,69,0,1,5,21,221,415.76406345004216,417.9037168812938,"[59, 0, 195]",195,a,1.61672608461231,colour,0.5
036,69,0,1,5,22,222,418.42147381883115,419.52790792193264,"[13, 0, 241]",241,a,0.583482732065022,colour,0.5
036,69,0,1,5,23,223,420.0465132035315,421.7917228555307,"[85, 0, 169]",169,l,1.2222472536377609,colour,0.5
036,69,0,1,5,24,224,422.3121165907942,423.99170875549316,"[83, 0, 171]",171,l,1.1566171627491713,colour,0.5
036,69,0,1,5,25,225,424.49957110174,427.31169793289155,"[64, 0, 190]",190,l,2.2893227585591376,colour,0.5
036,69,0,1,5,26,226,427.82895941194147,429.0157219353132,"[19, 0, 235]",235,a,0.6638485677540302,colour,0.5
036,69,0,1,5,27,227,429.5320689040236,431.24770348425955,"[39, 0, 215]",215,a,1.192743073683232,colour,0.5
036,69,0,1,5,28,228,431.75907263485715,433.27962902886793,"[41, 0, 213]",213,a,1.004903775639832,colour,0.5
036,69,0,1,5,29,229,433.79874118976295,435.25570840295404,"[31, 0, 223]",223,a,0.9343935404904187,colour,0.5
036,69,0,1,5,30,230,435.767415472772,438.07969196513295,"[53, 0, 201]",201,a,1.7892928258515894,colour,0.5
036,69,0,1,5,31,231,438.59557931590825,440.23968872008845,"[21, 0, 233]",233,a,1.1212230175733566,colour,0.5
036,69,0,1,5,32,232,440.75180735904723,444.1036724555306,"[68, 0, 186]",186,l,2.8289117561653256,colour,0.5
036,69,0,1,5,33,233,444.61113347299397,446.0637293900363,"[87, 0, 167]",167,l,0.9296764475293458,colour,0.5
036,69,0,1,5,34,234,446.5799578111619,447.6076975609176,"[36, 0, 218]",218,a,0.5048466678708792,colour,0.5
036,69,0,1,5,35,235,448.1267565526068,449.1917356159538,"[90, 0, 164]",164,l,0.5420627444982529,colour,0.5
036,69,0,1,5,36,236,449.7048404449597,450.87970724655315,"[97, 0, 157]",157,l,0.6519051901996136,colour,0.5
036,69,0,1,5,37,237,451.3923248881474,452.3916841009632,"[0, 0, 254]",254,a,0.4763404941186309,colour,0.5
036,69,0,1,5,38,238,452.9098600903526,454.0076878722757,"[38, 0, 216]",216,a,0.5747645585797727,colour,0.5
036,69,0,1,5,39,239,454.51928584696725,455.54370902013034,"[78, 0, 176]",176,l,0.5014304481446743,colour,0.5
036,69,0,1,5,40,240,456.0505225546658,457.48797706561163,"[84, 0, 170]",170,l,0.9141979091800749,colour,0.5
036,69,0,1,5,41,241,458.00365804089233,460.3516992875375,"[54, 0, 200]",200,a,1.8250292232260108,colour,0.5
036,69,0,1,5,42,242,460.8629782469943,461.9436906669289,"[20, 0, 234]",234,a,0.5577358426526189,colour,0.5
036,69,0,1,5,43,243,462.45801720628515,464.2797085857019,"[3, 0, 251]",251,a,1.2987778172828257,colour,0.5
036,69,0,1,5,44,244,464.7861597817391,469.3676390196197,"[60, 0, 194]",194,a,4.058590094558895,colour,0.5
036,69,0,1,5,45,245,469.879854938481,470.9996675942093,"[94, 0, 160]",160,l,0.5968829458579421,colour,0.5
036,69,0,1,5,46,246,471.5205319756642,476.33567527262494,"[63, 0, 191]",191,a,4.292262818198651,colour,0.5
036,69,0,1,5,47,247,476.8567791124806,480.90370900463313,"[73, 0, 181]",181,l,3.5315769906155765,colour,0.5
036,69,0,1,5,48,248,481.41181080881506,482.4477012003772,"[29, 0, 225]",225,a,0.5128760049119592,colour,0.5
036,69,0,1,5,49,249,482.95876393839717,484.0242416104302,"[10, 0, 244]",244,a,0.5424857349134982,colour,0.5
036,69,0,1,5,50,250,484.5369061199017,485.5836642952636,"[91, 0, 163]",163,l,0.5238111368380487,colour,0.5
036,69,0,1,6,1,251,491.2258840263821,491.991653223522,"[42, 0, 212]",212,a,0.24214868154376745,colour,0.5
036,69,0,1,6,2,252,492.5079214228317,494.0796577008441,"[48, 0, 206]",206,a,1.0489054233767092,colour,0.5
036,69,0,1,6,3,253,494.58595805382356,495.71164452750236,"[24, 0, 230]",230,a,0.6026815394870937,colour,0.5
036,69,0,1,6,4,254,496.22665005689487,497.7036596951075,"[52, 0, 202]",202,a,0.9541705134324729,colour,0.5
036,69,0,1,6,5,255,498.212167554535,499.74364056997,"[51, 0, 203]",203,a,1.0086012012325227,colour,0.5
036,69,0,1,6,6,256,500.2590123764239,503.2476739459671,"[89, 0, 165]",165,l,2.4656617557629943,colour,0.5
036,69,0,1,6,7,257,503.75902537303045,505.09581956174225,"[90, 0, 164]",164,l,0.8138495129533112,colour,0.5
036,69,0,1,6,8,258,505.6028308067471,508.1036437051371,"[83, 0, 171]",171,l,1.9779544747434556,colour,0.5
036,69,0,1,6,9,259,508.61966929538175,509.70369907980785,"[33, 0, 221]",221,a,0.5610031886026263,colour,0.5
036,69,0,1,6,10,260,510.2133683906868,511.37565063359216,"[99, 0, 155]",155,l,0.6392725822515786,colour,0.5
036,69,0,1,6,11,261,511.88526677526534,513.095671475865,"[6, 0, 248]",248,a,0.6881472859531641,colour,0.5
036,69,0,1,6,12,262,513.6040265229531,514.6956992815249,"[20, 0, 234]",234,a,0.5687611657194793,colour,0.5
036,69,0,1,6,13,263,515.2132671726868,516.3437002771534,"[14, 0, 240]",240,a,0.6073962692171335,colour,0.5
036,69,0,1,6,14,264,516.8541056863032,518.031953507103,"[11, 0, 243]",243,a,0.6565746273845434,colour,0.5
036,69,0,1,6,15,265,518.5399481854402,520.0956250019372,"[29, 0, 225]",225,a,1.0328290266916156,colour,0.5
036,69,0,1,6,16,266,520.6024357792921,521.9277958334424,"[23, 0, 231]",231,a,0.8023405475541949,colour,0.5
036,69,0,1,6,17,267,522.4338898113929,528.4156657727435,"[63, 0, 191]",191,a,5.458826559595764,colour,0.5
036,69,0,1,6,18,268,528.9338527899235,529.6236223271117,"[84, 0, 170]",170,l,0.1668374645523727,colour,0.5
036,69,0,1,6,19,269,530.1368850884028,531.7116618566215,"[17, 0, 237]",237,a,1.0517123634926975,colour,0.5
036,69,0,1,6,20,270,532.2307775621302,534.3995921332389,"[58, 0, 196]",196,a,1.6459600860252976,colour,0.5
036,69,0,1,6,21,271,534.9181926883757,536.7916834708303,"[53, 0, 201]",201,a,1.350483878981322,colour,0.5
036,69,0,1,6,22,272,537.3100028201006,539.5196395209059,"[61, 0, 193]",193,a,1.6866683945991099,colour,0.5
036,69,0,1,6,23,273,540.0287574478425,542.2396784801967,"[47, 0, 207]",207,a,1.6880236184224486,colour,0.5
036,69,0,1,6,24,274,542.7474935646169,545.8236172855832,"[73, 0, 181]",181,a,2.553299168124795,colour,0.5
036,69,0,1,6,25,275,546.3413186906837,547.6556223081425,"[91, 0, 163]",163,l,0.7913888739421964,colour,0.5
036,69,0,1,6,26,276,548.1693253894337,550.3515996444039,"[76, 0, 178]",178,l,1.659266958013177,colour,0.5
036,69,0,1,6,27,277,550.8725443705916,552.5836004922166,"[93, 0, 161]",161,l,1.188170522917062,colour,0.5
036,69,0,1,6,28,278,553.0923844375648,554.2636085581034,"[26, 0, 228]",228,a,0.6482353340834379,colour,0.5
036,69,0,1,6,29,279,554.7798503702506,556.3036689897999,"[12, 0, 242]",242,a,1.000784934964031,colour,0.5
036,69,0,1,6,30,280,556.8111886898987,558.3916750424542,"[1, 0, 253]",253,a,1.0575826368294656,colour,0.5
036,69,0,1,6,31,281,558.9048417056911,560.2316058198921,"[87, 0, 167]",167,l,0.8037190078757703,colour,0.5
036,69,0,1,6,32,282,560.7442778125405,562.0716701117344,"[34, 0, 220]",220,a,0.804449986666441,colour,0.5
036,69,0,1,6,33,283,562.5777199785225,564.0636391993612,"[81, 0, 173]",173,l,0.9629536713473499,colour,0.5
036,69,0,1,6,34,284,564.5784789198078,565.7036313381977,"[44, 0, 210]",210,a,0.6030399389564991,colour,0.5
036,69,0,1,6,35,285,566.2183635388501,567.5436215866357,"[2, 0, 252]",252,a,0.80229052901268,colour,0.5
036,69,0,1,6,36,286,568.0622052061372,569.5916404626332,"[13, 0, 241]",241,a,1.0065957373008132,colour,0.5
036,69,0,1,6,37,287,570.1089952834882,573.8955812063068,"[65, 0, 189]",189,a,3.2637164718471467,colour,0.5
036,69,0,1,6,38,288,574.407042122446,575.591623921413,"[3, 0, 251]",251,a,0.6615981324575841,colour,0.5
036,69,0,1,6,39,289,576.1101697320119,580.3196425926872,"[71, 0, 183]",183,a,3.6864352375268936,colour,0.5
036,69,0,1,6,40,290,580.8289042734541,582.0075752325356,"[88, 0, 166]",166,l,0.6557719693519175,colour,0.5
036,69,0,1,6,41,291,582.5176305128261,585.0315797473304,"[10, 0, 244]",244,a,1.9910419741645455,colour,0.5
036,69,0,1,6,42,292,585.5488601312973,586.7999849552289,"[9, 0, 245]",245,a,0.728394400794059,colour,0.5
036,69,0,1,6,43,293,587.3145623742603,588.6235927883536,"[86, 0, 168]",168,l,0.7861676583997905,colour,0.5
036,69,0,1,6,44,294,589.142576161772,590.2316058198921,"[25, 0, 229]",229,a,0.5660826191306114,colour,0.5
036,69,0,1,6,45,295,590.7519901036285,592.1999433650635,"[80, 0, 174]",174,l,0.9252984565682709,colour,0.5
036,69,0,1,6,46,296,592.7207856909372,593.8235897165723,"[32, 0, 222]",222,a,0.5799081865698099,colour,0.5
036,69,0,1,6,47,297,594.3300539096817,595.591589262709,"[77, 0, 177]",177,l,0.7385209668427706,colour,0.5
036,69,0,1,6,48,298,596.1113689928316,597.687603384722,"[41, 0, 213]",213,a,1.0533172856085002,colour,0.5
036,69,0,1,6,49,299,598.2063047643751,599.335611469578,"[75, 0, 179]",179,l,0.6064266203902662,colour,0.5
036,69,0,1,6,50,300,599.8468963364139,600.9756118790247,"[74, 0, 180]",180,l,0.6057759867981076,colour,0.5
036,69,0,1,7,1,301,606.2677081003785,607.655565594323,"[87, 0, 167]",167,l,0.8641148866154253,colour,0.5
036,69,0,1,7,2,302,608.1759798098356,611.5915924133733,"[48, 0, 206]",206,a,2.892728580161929,colour,0.5
036,69,0,1,7,3,303,612.0977525576018,616.1835656762123,"[55, 0, 199]",199,a,3.5627687997184694,colour,0.5
036,69,0,1,7,4,304,616.691562323831,617.735881017521,"[72, 0, 182]",182,l,0.5195721727795899,colour,0.5
036,69,0,1,7,5,305,618.2558033196256,619.2239037691616,"[30, 0, 224]",224,a,0.44504549680277705,colour,0.5
036,69,0,1,7,6,306,619.7402527071536,620.9995714956895,"[74, 0, 180]",180,l,0.7363997125066817,colour,0.5
036,69,0,1,7,7,307,621.5058360090479,622.6395778129809,"[22, 0, 232]",232,a,0.6107900394126773,colour,0.5
036,69,0,1,7,8,308,623.1464681471698,628.199886651244,"[59, 0, 195]",195,l,4.530480917543173,colour,0.5
036,69,0,1,7,9,309,628.7102680359967,629.7276216750033,"[9, 0, 245]",245,a,0.49437824357300997,colour,0.5
036,69,0,1,7,10,310,630.2415732727386,632.7916039139964,"[71, 0, 183]",183,l,2.0271659162826836,colour,0.5
036,69,0,1,7,11,311,633.3041293956339,634.487610001117,"[36, 0, 218]",218,a,0.6606670804321766,colour,0.5
036,69,0,1,7,12,312,635.0071683898568,636.3675590688363,"[58, 0, 196]",196,a,0.8376905820332468,colour,0.5
036,69,0,1,7,13,313,636.8821297925897,638.5115861594677,"[44, 0, 210]",210,a,1.10518639953807,colour,0.5
036,69,0,1,7,14,314,639.024022238329,640.2315821894445,"[17, 0, 237]",237,a,0.6846219711005688,colour,0.5
036,69,0,1,7,15,315,640.7426543799229,641.9836030127481,"[29, 0, 225]",225,a,0.7178909233771265,colour,0.5
036,69,0,1,7,16,316,642.4926902195439,643.6716010309756,"[85, 0, 169]",169,l,0.6559492000378668,colour,0.5
036,69,0,1,7,17,317,644.180207352154,651.0475781625137,"[65, 0, 189]",189,a,6.344394627027214,colour,0.5
036,69,0,1,7,18,318,651.5644292542711,652.2315861280076,"[96, 0, 158]",158,l,0.14421062264591455,colour,0.5
036,69,0,1,7,19,319,652.7519255126826,654.567546938546,"[31, 0, 223]",223,a,1.292768516112119,colour,0.5
036,69,0,1,7,20,320,655.0801311032847,656.7995737800375,"[52, 0, 202]",202,a,1.1966051268391311,colour,0.5
036,69,0,1,7,21,321,657.3156749890186,658.0795816881582,"[99, 0, 155]",155,l,0.24110656511038542,colour,0.5
036,69,0,1,7,22,322,658.5969766811468,659.7035596580245,"[93, 0, 161]",161,l,0.5837729964405298,colour,0.5
036,69,0,1,7,23,323,660.2218356844969,661.1435753488913,"[53, 0, 201]",201,a,0.3987670256756246,colour,0.5
036,69,0,1,7,24,324,661.6594536411576,664.5595691953786,"[5, 0, 249]",249,a,2.3776308903470635,colour,0.5
036,69,0,1,7,25,325,665.0656789275818,666.1915820161812,"[4, 0, 250]",250,a,0.6030734162777662,colour,0.5
036,69,0,1,7,26,326,666.7062468691729,667.7675667097792,"[32, 0, 222]",222,a,0.538420457392931,colour,0.5
036,69,0,1,7,27,327,668.2844544290565,669.5275613376871,"[20, 0, 234]",234,a,0.7202709345147014,colour,0.5
036,69,0,1,7,28,328,670.0343882627785,672.1115466170013,"[61, 0, 193]",193,a,1.5542625156231225,colour,0.5
036,69,0,1,7,29,329,672.6294374619611,674.11954326462,"[11, 0, 243]",243,a,0.9672395023517311,colour,0.5
036,69,0,1,7,30,330,674.6293736589141,676.3275565328076,"[45, 0, 209]",209,a,1.1752582844346762,colour,0.5
036,69,0,1,7,31,331,676.8481727913022,678.0635454640724,"[88, 0, 166]",166,l,0.6925244894810021,colour,0.5
036,69,0,1,7,32,332,678.5825059944764,679.6236061793752,"[0, 0, 254]",254,a,0.5183433736674488,colour,0.5
036,69,0,1,7,33,333,680.1294670002535,681.3515732567757,"[90, 0, 164]",164,l,0.699189149774611,colour,0.5
036,69,0,1,7,34,334,681.8638368314132,683.2876114980318,"[60, 0, 194]",194,a,0.8996689333580434,colour,0.5
036,69,0,1,7,35,335,683.8024965105578,685.143540690653,"[1, 0, 253]",253,a,0.8183826794847846,colour,0.5
036,69,0,1,7,36,336,685.6619557444938,687.1037205047905,"[77, 0, 177]",177,l,0.9189027925021946,colour,0.5
036,69,0,1,7,37,337,687.6149675627239,689.0635497961193,"[79, 0, 175]",175,l,0.9256639452651143,colour,0.5
036,69,0,1,7,38,338,689.5838304981589,690.6715691294521,"[24, 0, 230]",230,a,0.5632173903286457,colour,0.5
036,69,0,1,7,39,339,691.1791837466881,693.4235505680554,"[49, 0, 205]",205,a,1.7214855551719666,colour,0.5
036,69,0,1,7,40,340,693.9434244274162,695.1915548406541,"[40, 0, 214]",214,a,0.7252168515697122,colour,0.5
036,69,0,1,7,41,341,695.7090195440687,696.9355506594293,"[25, 0, 229]",229,a,0.7035761997103691,colour,0.5
036,69,0,1,7,42,342,697.4434657809325,698.7035541445948,"[43, 0, 211]",211,a,0.7373606967739761,colour,0.5
036,69,0,1,7,43,343,699.2246512887068,701.7835237709805,"[73, 0, 181]",181,l,2.036027843132615,colour,0.5
036,69,0,1,7,44,344,702.3027525101788,703.3675413457677,"[21, 0, 233]",233,a,0.5418386459350586,colour,0.5
036,69,0,1,7,45,345,703.8808600334451,705.6155610885471,"[57, 0, 197]",197,a,1.2118958006612957,colour,0.5
036,69,0,1,7,46,346,706.1308072581887,707.1678244424984,"[86, 0, 168]",168,l,0.5139976781792939,colour,0.5
036,69,0,1,7,47,347,707.6789383804426,708.7195175071247,"[14, 0, 240]",240,a,0.5176257863640785,colour,0.5
036,69,0,1,7,48,348,709.2258718172088,712.8715408514254,"[66, 0, 188]",188,l,3.1227881615050137,colour,0.5
036,69,0,1,7,49,349,713.382046691142,715.2475077430718,"[51, 0, 203]",203,l,1.3426747024059296,colour,0.5
036,69,0,1,7,50,350,715.7570494483225,716.7995403031819,"[12, 0, 242]",242,a,0.5195363331586123,colour,0.5
036,69,0,1,8,1,351,725.537498857826,728.1435139090754,"[2, 0, 252]",252,a,2.0827903510071337,colour,0.5
036,69,0,1,8,2,352,728.6632790667936,730.5675229141489,"[78, 0, 176]",176,l,1.3813027166761458,colour,0.5
036,69,0,1,8,3,353,731.0851258574985,732.2795049673878,"[83, 0, 171]",171,l,0.6715250187553465,colour,0.5
036,69,0,1,8,4,354,732.7882227464579,734.1035381541587,"[92, 0, 162]",162,l,0.7965785814449191,colour,0.5
036,69,0,1,8,5,355,734.6120357736945,735.5755538260564,"[90, 0, 164]",164,l,0.4404315920546651,colour,0.5
036,69,0,1,8,6,356,736.0965186385438,737.4395466204733,"[85, 0, 169]",169,l,0.8201026050373912,colour,0.5
036,69,0,1,8,7,357,737.9558297861367,739.3754895506427,"[68, 0, 186]",186,l,0.8966650702059269,colour,0.5
036,69,0,1,8,8,358,739.8934831889346,741.143506819848,"[91, 0, 163]",163,l,0.7279178467579186,colour,0.5
036,69,0,1,8,9,359,741.6590373460203,742.7755302740261,"[0, 0, 254]",254,a,0.5935813351534307,colour,0.5
036,69,0,1,8,10,360,743.284064127598,744.4955282732844,"[31, 0, 223]",223,a,0.6886120238341391,colour,0.5
036,69,0,1,8,11,361,745.0027112355456,746.2635006443597,"[4, 0, 250]",250,a,0.7378348871134222,colour,0.5
036,69,0,1,8,12,362,746.7840271061286,748.6315047591925,"[63, 0, 191]",191,a,1.3228662214241922,colour,0.5
036,69,0,1,8,13,363,749.1450109174475,750.4715962260962,"[32, 0, 222]",222,a,0.803629211615771,colour,0.5
036,69,0,1,8,14,364,750.9887289176695,752.3355622389354,"[26, 0, 228]",228,a,0.823775218334049,colour,0.5
036,69,0,1,8,15,365,752.8481905143708,754.9995061173104,"[80, 0, 174]",174,l,1.6285532778128982,colour,0.5
036,69,0,1,8,16,366,755.5200231266208,756.2714649965055,"[24, 0, 230]",230,a,0.22855390794575214,colour,0.5
036,69,0,1,8,17,367,756.7855938249268,757.9195093153976,"[33, 0, 221]",221,a,0.6110421004705131,colour,0.5
036,69,0,1,8,18,368,758.4260660619475,759.959533513058,"[34, 0, 220]",220,a,1.0103557845577598,colour,0.5
036,69,0,1,8,19,369,760.4731562496163,761.6234840871766,"[96, 0, 158]",158,l,0.6274895002134144,colour,0.5
036,69,0,1,8,20,370,762.1293768095784,763.2715122578666,"[6, 0, 248]",248,a,0.6192155848257244,colour,0.5
036,69,0,1,8,21,371,763.7855800404213,765.2154916143045,"[28, 0, 226]",226,a,0.9069743813015521,colour,0.5
036,69,0,1,8,22,372,765.7231018990278,771.3515299339779,"[70, 0, 184]",184,l,5.10554322367534,colour,0.5
036,69,0,1,8,23,373,771.8650187626481,772.9914850513451,"[19, 0, 235]",235,a,0.6036035330034792,colour,0.5
036,69,0,1,8,24,374,773.5056249075569,774.6476374757476,"[30, 0, 224]",224,a,0.6191084585152566,colour,0.5
036,69,0,1,8,25,375,775.1618616152555,776.8634910346009,"[84, 0, 170]",170,l,1.178653629962355,colour,0.5
036,69,0,1,8,26,376,777.3815654115751,778.6955165369436,"[95, 0, 159]",159,l,0.7911175144836307,colour,0.5
036,69,0,1,8,27,377,779.2096871132962,781.3114876192994,"[67, 0, 187]",187,l,1.5788440150208771,colour,0.5
036,69,0,1,8,28,378,781.8190904208459,783.5434719249606,"[69, 0, 185]",185,l,1.2014624285511672,colour,0.5
036,69,0,1,8,29,379,784.0534756113775,785.1354932370596,"[21, 0, 233]",233,a,0.5591292697936296,colour,0.5
036,69,0,1,8,30,380,785.6472105467692,786.8795063849539,"[98, 0, 156]",156,l,0.7094192975200713,colour,0.5
036,69,0,1,8,31,381,787.3971569840796,788.6634842604399,"[35, 0, 219]",219,a,0.743313284125179,colour,0.5
036,69,0,1,8,32,382,789.178500817623,792.3515189061873,"[65, 0, 189]",189,l,2.6501427297480404,colour,0.5
036,69,0,1,8,33,383,792.8659773836844,794.6634748079814,"[38, 0, 216]",216,a,1.274774877820164,colour,0.5
036,69,0,1,8,34,384,795.1784559190273,803.0155021692626,"[71, 0, 183]",183,a,7.314152774401009,colour,0.5
036,69,0,1,8,35,385,803.5234448602423,804.8234601411968,"[74, 0, 180]",180,a,0.7772537437267601,colour,0.5
036,69,0,1,8,36,386,805.335854078643,807.4794888980687,"[22, 0, 232]",232,a,1.6206802977249026,colour,0.5
036,69,0,1,8,37,387,807.9920494323596,809.2954655732028,"[20, 0, 234]",234,a,0.780422234442085,colour,0.5
036,69,0,1,8,38,388,809.8046161890961,811.5914770169184,"[11, 0, 243]",243,a,1.263913788832724,colour,0.5
036,69,0,1,8,39,389,812.1014767647721,813.3836358594708,"[66, 0, 188]",188,a,0.7592270220629871,colour,0.5
036,69,0,1,8,40,390,813.898382238578,814.9195427922532,"[37, 0, 217]",217,a,0.49831906566396356,colour,0.5
036,69,0,1,8,41,391,815.4296315493993,816.7275086408481,"[41, 0, 213]",213,a,0.7749517145566642,colour,0.5
036,69,0,1,8,42,392,817.2442262186669,818.5516473785974,"[93, 0, 161]",161,l,0.7843992901034653,colour,0.5
036,69,0,1,8,43,393,819.0723979389295,820.1274737464264,"[64, 0, 190]",190,a,0.543353377841413,colour,0.5
036,69,0,1,8,44,394,820.6394230313599,822.0074495957233,"[25, 0, 229]",229,a,0.8450787379406393,colour,0.5
036,69,0,1,8,45,395,822.5144935301505,823.6474251928739,"[27, 0, 227]",227,a,0.6100763902068138,colour,0.5
036,69,0,1,8,46,396,824.1550532006659,825.3514629802667,"[54, 0, 200]",200,a,0.6734493500553071,colour,0.5
036,69,0,1,8,47,397,825.8581516654231,827.1276450692676,"[39, 0, 215]",215,a,0.7465121005661786,colour,0.5
036,69,0,1,8,48,398,827.6406884584576,828.7196439318359,"[14, 0, 240]",240,a,0.5559985884465277,colour,0.5
036,69,0,1,8,49,399,829.234474199824,830.3674936904572,"[56, 0, 198]",198,a,0.6101732761599123,colour,0.5
036,69,0,1,8,50,400,830.8750980678014,833.2556453873403,"[75, 0, 179]",179,a,1.8577070133760571,colour,0.5
036,69,0,1,9,1,401,867.8476619729772,878.5754309464246,"[0, 0, 254]",254,l,10.204185873270035,colour,0.5
036,69,0,1,9,2,402,879.0839612549171,881.2233945266344,"[84, 0, 170]",170,a,1.6164196729660034,colour,0.5
036,69,0,1,9,3,403,881.7402637349442,882.4554430292919,"[9, 0, 245]",245,a,0.19240712327882648,colour,0.5
036,69,0,1,9,4,404,882.9746185997501,883.7354190363549,"[19, 0, 235]",235,a,0.23782582860440016,colour,0.5
036,69,0,1,9,5,405,884.2558746058494,884.9194136108272,"[30, 0, 224]",224,a,0.14058330189436674,colour,0.5
036,69,0,1,9,6,406,885.4277154887095,886.4473979389295,"[54, 0, 200]",200,a,0.4967606174759567,colour,0.5
036,69,0,1,9,7,407,886.9589584982023,887.999437588267,"[24, 0, 230]",230,a,0.5165588581003249,colour,0.5
036,69,0,1,9,8,408,888.5072739403695,889.5114333471283,"[53, 0, 201]",201,a,0.48144276812672615,colour,0.5
036,69,0,1,9,9,409,890.0227914694697,894.4554138849489,"[80, 0, 174]",174,l,3.9096899488940835,colour,0.5
036,69,0,1,9,10,410,894.9759123832919,895.8074412462302,"[93, 0, 161]",161,l,0.30859009455889463,colour,0.5
036,69,0,1,9,11,411,896.3195539773442,896.8715562112629,"[3, 0, 251]",251,a,0.028977607376873493,colour,0.5
036,69,0,1,9,12,412,897.3821565741673,898.4394580051303,"[55, 0, 199]",199,a,0.5345241399481893,colour,0.5
036,69,0,1,9,13,413,898.9602692173794,899.9434000090696,"[61, 0, 193]",193,a,0.4602365284226835,colour,0.5
036,69,0,1,9,14,414,900.460200688336,901.0873672347516,"[21, 0, 233]",233,a,0.10451213549822569,colour,0.5
036,69,0,1,9,15,415,901.600860001985,904.3517189798877,"[68, 0, 186]",186,l,2.2279052436351776,colour,0.5
036,69,0,1,9,16,416,904.8665185282007,908.7194190458395,"[34, 0, 220]",220,l,3.330354807898402,colour,0.5
036,69,0,1,9,17,417,909.2380822226405,910.7434018994682,"[74, 0, 180]",180,l,0.9823734257370234,colour,0.5
036,69,0,1,9,18,418,911.2537273578346,912.0073889433406,"[99, 0, 155]",155,l,0.2306609838269651,colour,0.5
036,69,0,1,9,19,419,912.5193354715593,913.055935179349,"[46, 0, 208]",208,a,0.013706625904887915,colour,0.5
036,69,0,1,9,20,420,913.5662736347876,914.167447138112,"[31, 0, 223]",223,a,0.07861597836017609,colour,0.5
036,69,0,1,9,21,421,914.6756194410846,915.9673962532543,"[50, 0, 204]",204,a,0.7689309921115637,colour,0.5
036,69,0,1,9,22,422,916.4881818653084,917.1033900682814,"[82, 0, 172]",172,l,0.09238010551780462,colour,0.5
036,69,0,1,9,23,423,917.6143771880306,918.1674408363178,"[58, 0, 196]",196,a,0.030265089590102434,colour,0.5
036,69,0,1,9,24,424,918.6767871938646,919.3113915207796,"[32, 0, 222]",222,a,0.11169076478108764,colour,0.5
036,69,0,1,9,25,425,919.8173984587193,920.4794451813214,"[90, 0, 164]",164,l,0.13908077916130424,colour,0.5
036,69,0,1,9,26,426,920.9893578891642,921.7914069909602,"[26, 0, 228]",228,a,0.27900635823607445,colour,0.5
036,69,0,1,9,27,427,922.3018238218501,923.103421181906,"[39, 0, 215]",215,a,0.27879053074866533,colour,0.5
036,69,0,1,9,28,428,923.6143102338538,926.4873977182433,"[48, 0, 206]",206,l,2.3501097252592444,colour,0.5
036,69,0,1,9,29,429,927.0050747045316,928.3593879477121,"[33, 0, 221]",221,l,0.8309057983569801,colour,0.5
036,69,0,1,9,30,430,928.8657107502222,930.5593974785879,"[94, 0, 160]",160,l,1.1710689449682832,colour,0.5
036,69,0,1,9,31,431,931.0687198117375,932.1033558035269,"[37, 0, 217]",217,a,0.5118539743125439,colour,0.5
036,69,0,1,9,32,432,932.6155878701247,933.2313691186719,"[13, 0, 241]",241,a,0.0929830833338201,colour,0.5
036,69,0,1,9,33,433,933.7404980733991,934.855411679484,"[23, 0, 231]",231,a,0.5919693242758512,colour,0.5
036,69,0,1,9,34,434,935.3655603011139,936.0313867628574,"[7, 0, 247]",247,a,0.14306886307895184,colour,0.5
036,69,0,1,9,35,435,936.5374468700029,937.255388205871,"[75, 0, 179]",179,l,0.19504313403740525,colour,0.5
036,69,0,1,9,36,436,937.7717816485092,939.8153926013038,"[2, 0, 252]",252,l,1.5207245661877096,colour,0.5
036,69,0,1,9,37,437,940.3343031131662,941.0714034778066,"[96, 0, 158]",158,l,0.21426557190716267,colour,0.5
036,69,0,1,9,38,438,941.5844035441987,942.2073933542706,"[89, 0, 165]",165,l,0.10025623580440879,colour,0.5
036,69,0,1,9,39,439,942.7248899596743,945.1273772539571,"[4, 0, 250]",250,l,1.8795717633329332,colour,0.5
036,69,0,1,9,40,440,945.6468167011626,946.4073536549695,"[29, 0, 225]",225,a,0.23767459206283092,colour,0.5
036,69,0,1,9,41,441,946.9280908238143,947.5594837311655,"[8, 0, 246]",246,a,0.10800673021003604,colour,0.5
036,69,0,1,9,42,442,948.0698221866041,948.7593613239005,"[78, 0, 176]",176,l,0.1664428310468793,colour,0.5
036,69,0,1,9,43,443,949.273090004921,950.095387512818,"[69, 0, 185]",185,l,0.30672641564160585,colour,0.5
036,69,0,1,9,44,444,950.6095781754702,951.4633593326434,"[1, 0, 253]",253,l,0.33084947848692536,colour,0.5
036,69,0,1,9,45,445,951.9689271324314,952.5113951442763,"[6, 0, 248]",248,a,0.019587927032262087,colour,0.5
036,69,0,1,9,46,446,953.0314344181679,953.6393994009122,"[56, 0, 198]",198,a,0.08504866389557719,colour,0.5
036,69,0,1,9,47,447,954.1564741968177,954.8474043980241,"[92, 0, 162]",162,l,0.168038300704211,colour,0.5
036,69,0,1,9,48,448,955.3595391847193,956.1433835462667,"[70, 0, 184]",184,l,0.2609241046011448,colour,0.5
036,69,0,1,9,49,449,956.6564403260127,957.3033653348684,"[60, 0, 194]",194,a,0.12409494211897254,colour,0.5
036,69,0,1,9,50,450,957.8127353228629,958.4314377265982,"[64, 0, 190]",190,a,0.09593732189387083,colour,0.5
036,69,0,1,10,1,451,963.8599696583115,966.4394162571989,"[25, 0, 229]",229,a,2.055704779457301,colour,0.5
036,69,0,1,10,2,452,966.9545659343712,967.5353819360025,"[64, 0, 190]",190,a,0.057956790551543236,colour,0.5
036,69,0,1,10,3,453,968.0482953563333,968.8873608540744,"[67, 0, 187]",187,a,0.3163078990764916,colour,0.5
036,69,0,1,10,4,454,969.407593506854,970.0953276483342,"[27, 0, 227]",227,a,0.16478434577584267,colour,0.5
036,69,0,1,10,5,455,970.610722691752,971.1594063797966,"[21, 0, 233]",233,a,0.02608559699729085,colour,0.5
036,69,0,1,10,6,456,971.6732918117195,973.4713930017315,"[85, 0, 169]",169,l,1.275302631314844,colour,0.5
036,69,0,1,10,7,457,973.9857163899578,974.5673476527445,"[39, 0, 215]",215,a,0.05873975623399019,colour,0.5
036,69,0,1,10,8,458,975.0794458114542,975.6713599972427,"[53, 0, 201]",201,a,0.06897423602640629,colour,0.5
036,69,0,1,10,9,459,976.1887636547908,976.7513481345959,"[62, 0, 192]",192,a,0.03956930572167039,colour,0.5
036,69,0,1,10,10,460,977.2691298839636,977.9673710470088,"[60, 0, 194]",194,a,0.17536934884265065,colour,0.5
036,69,0,1,10,11,461,978.4878931762651,979.8953846772201,"[78, 0, 176]",176,l,0.8846129914745688,colour,0.5
036,69,0,1,10,12,462,980.4097466627136,981.0233952356502,"[37, 0, 217]",217,a,0.09070350369438529,colour,0.5
036,69,0,1,10,13,463,981.5347439055331,982.735391467344,"[52, 0, 202]",202,a,0.6777481781318784,colour,0.5
036,69,0,1,10,14,464,983.2534780534916,983.8553526024334,"[44, 0, 210]",210,a,0.07896216865628958,colour,0.5
036,69,0,1,10,15,465,984.3628372503445,986.7993618906476,"[34, 0, 220]",220,l,1.913656764663756,colour,0.5
036,69,0,1,10,16,466,987.3159424103796,988.0474663106725,"[33, 0, 221]",221,l,0.20874424604699016,colour,0.5
036,69,0,1,10,17,467,988.5659778565168,990.4793671998195,"[1, 0, 253]",253,a,1.3910330734215677,colour,0.5
036,69,0,1,10,18,468,990.9878849056549,991.6153432917781,"[20, 0, 234]",234,a,0.10456806141883135,colour,0.5
036,69,0,1,10,19,469,992.1305150245316,994.6233454532921,"[45, 0, 209]",209,l,1.9711945033632219,colour,0.5
036,69,0,1,10,20,470,995.1291968221776,996.4233827898279,"[57, 0, 197]",197,a,0.771632774733007,colour,0.5
036,69,0,1,10,21,471,996.941653302405,1000.2713984367438,"[31, 0, 223]",223,l,2.8045279677025974,colour,0.5
036,69,0,1,10,22,472,1000.7878289008513,1002.0553507120349,"[70, 0, 184]",184,a,0.7446732339449227,colour,0.5
036,69,0,1,10,23,473,1002.568944697734,1003.1753500504419,"[23, 0, 231]",231,a,0.08352644927799702,colour,0.5
036,69,0,1,10,24,474,1003.6939143715426,1004.2873897626996,"[89, 0, 165]",165,l,0.07049526926130056,colour,0.5
036,69,0,1,10,25,475,1004.8033291008323,1005.4155039023608,"[3, 0, 251]",251,a,0.08938727015629411,colour,0.5
036,69,0,1,10,26,476,1005.9282889286987,1006.6153090274893,"[65, 0, 189]",189,l,0.16405179258435965,colour,0.5
036,69,0,1,10,27,477,1007.131448045373,1007.7753601325676,"[5, 0, 249]",249,a,0.12106272205710411,colour,0.5
036,69,0,1,10,28,478,1008.2877154732123,1009.0313587998971,"[63, 0, 191]",191,l,0.2207340970635414,colour,0.5
036,69,0,1,10,29,479,1009.5377398915589,1010.071685471572,"[66, 0, 188]",188,a,0.011007206048816442,colour,0.5
036,69,0,1,10,30,480,1010.5845216978341,1012.5193197177723,"[72, 0, 182]",182,l,1.4119171472266316,colour,0.5
036,69,0,1,10,31,481,1013.0389233985916,1015.9433948886581,"[51, 0, 203]",203,a,2.381467343773693,colour,0.5
036,69,0,1,10,32,482,1016.4608749523759,1017.679378699977,"[58, 0, 196]",196,a,0.6955488319508731,colour,0.5
036,69,0,1,10,33,483,1018.1952707767487,1018.9913314511068,"[11, 0, 243]",243,a,0.273165229242295,colour,0.5
036,69,0,1,10,34,484,1019.5077532506548,1020.2153561310843,"[98, 0, 156]",156,l,0.18472043238580227,colour,0.5
036,69,0,1,10,35,485,1020.7264960631728,1021.3993597640656,"[87, 0, 167]",167,l,0.14992532692849636,colour,0.5
036,69,0,1,10,36,486,1021.914048247505,1022.6793692479841,"[71, 0, 183]",183,l,0.24246769677847624,colour,0.5
036,69,0,1,10,37,487,1023.1952526601963,1024.5753352418542,"[50, 0, 204]",204,a,0.8571477523073554,colour,0.5
036,69,0,1,10,38,488,1025.0859202444553,1025.711339296773,"[46, 0, 208]",208,l,0.10262758238241076,colour,0.5
036,69,0,1,10,39,489,1026.226476764772,1026.79929848155,"[47, 0, 207]",207,a,0.04990815510973334,colour,0.5
036,69,0,1,10,40,490,1027.322320744861,1027.8559331311844,"[24, 0, 230]",230,a,0.010713396593928337,colour,0.5
036,69,0,1,10,41,491,1028.369188803248,1029.079378857743,"[81, 0, 173]",173,l,0.18723316956311464,colour,0.5
036,69,0,1,10,42,492,1029.5879883295856,1030.3593489569612,"[14, 0, 240]",240,a,0.2484939331188798,colour,0.5
036,69,0,1,10,43,493,1030.8692262186669,1031.6153239933774,"[90, 0, 164]",164,l,0.22321099415421486,colour,0.5
036,69,0,1,10,44,494,1032.1348429974169,1032.7353256950155,"[30, 0, 224]",224,a,0.0776128526777029,colour,0.5
036,69,0,1,10,45,495,1033.2441864404827,1034.0793260824867,"[10, 0, 244]",244,l,0.3121784250251949,colour,0.5
036,69,0,1,10,46,496,1034.587963911239,1037.6073612165637,"[16, 0, 238]",238,l,2.496895706281066,colour,0.5
036,69,0,1,10,47,497,1038.122839754913,1039.2713417229243,"[9, 0, 245]",245,a,0.625571470707655,colour,0.5
036,69,0,1,10,48,498,1039.7790355030447,1040.495351436548,"[18, 0, 236]",236,a,0.19339922117069364,colour,0.5
036,69,0,1,10,49,499,1041.013397850562,1042.8473212965764,"[91, 0, 163]",163,l,1.3109783763065934,colour,0.5
036,69,0,1,10,50,500,1043.358369462192,1044.631431503687,"[82, 0, 172]",172,l,0.7501027933321893,colour,0.5
036,69,0,1,11,1,501,1049.4044065056369,1050.1113040079363,"[84, 0, 170]",170,l,0.18323799641802907,colour,0.5
036,69,0,1,11,2,502,1050.6239775759168,1051.175281520933,"[89, 0, 165]",165,l,0.02839944139122963,colour,0.5
036,69,0,1,11,3,503,1051.6864974652417,1052.4393674205057,"[2, 0, 252]",252,a,0.23002964863553643,colour,0.5
036,69,0,1,11,4,504,1052.9520886437967,1053.5593080758117,"[69, 0, 185]",185,a,0.08428735937923193,colour,0.5
036,69,0,1,11,5,505,1054.077148114331,1054.6793361646123,"[24, 0, 230]",230,a,0.0793792512267828,colour,0.5
036,69,0,1,11,6,506,1055.1864813175052,1055.943359442521,"[97, 0, 157]",157,l,0.23394605237990618,colour,0.5
036,69,0,1,11,7,507,1056.4520059362985,1057.0954454080202,"[61, 0, 193]",193,a,0.12045659311115742,colour,0.5
036,69,0,1,11,8,508,1057.6096384339035,1059.5115144792944,"[37, 0, 217]",217,l,1.3788766250945628,colour,0.5
036,69,0,1,11,9,509,1060.03154351376,1060.5593628203496,"[45, 0, 209]",209,a,0.004904563073068857,colour,0.5
036,69,0,1,11,10,510,1061.0784218120389,1062.1913291667588,"[58, 0, 196]",196,a,0.5903592817485332,colour,0.5
036,69,0,1,11,11,511,1062.7033387105912,1063.303330282215,"[34, 0, 220]",220,a,0.07704768376424909,colour,0.5
036,69,0,1,11,12,512,1063.8127908552997,1064.3912713504396,"[79, 0, 175]",175,l,0.055563782807439566,colour,0.5
036,69,0,1,11,13,513,1064.9065116122365,1066.83928644564,"[14, 0, 240]",240,l,1.4098817515186965,colour,0.5
036,69,0,1,11,14,514,1067.3595911720768,1068.0713235270232,"[80, 0, 174]",174,l,0.18875538371503353,colour,0.5
036,69,0,1,11,15,515,1068.5784631660208,1069.1832742299885,"[87, 0, 167]",167,l,0.0819120742380619,colour,0.5
036,69,0,1,11,16,516,1069.7034706491977,1070.3513810602017,"[86, 0, 168]",168,l,0.12495510187000036,colour,0.5
036,69,0,1,11,17,517,1070.8596337074414,1071.503327997867,"[5, 0, 249]",249,a,0.12078821146860719,colour,0.5
036,69,0,1,11,18,518,1072.0158979846165,1073.2472580447793,"[74, 0, 180]",180,a,0.7073019822128117,colour,0.5
036,69,0,1,11,19,519,1073.7671342669055,1074.31131511461,"[22, 0, 232]",232,a,0.021325181238353252,colour,0.5
036,69,0,1,11,20,520,1074.8295525438152,1075.4153144625016,"[31, 0, 223]",223,a,0.06284441845491529,colour,0.5
036,69,0,1,11,21,521,1075.9233863344416,1077.9032982233912,"[32, 0, 222]",222,l,1.4570341669023037,colour,0.5
036,69,0,1,11,22,522,1078.4233745192178,1079.1192880524322,"[7, 0, 247]",247,a,0.1730700759217143,colour,0.5
036,69,0,1,11,23,523,1079.6237341794185,1081.223316151183,"[72, 0, 182]",182,l,1.077318649739027,colour,0.5
036,69,0,1,11,24,524,1081.7331114932895,1083.791285686195,"[60, 0, 194]",194,l,1.5468133138492703,colour,0.5
036,69,0,1,11,25,525,1084.2997395889834,1084.9433031226508,"[82, 0, 172]",172,a,0.12092015007510781,colour,0.5
036,69,0,1,11,26,526,1085.4559294292703,1088.4232669994235,"[28, 0, 226]",226,l,2.444113657809794,colour,0.5
036,69,0,1,11,27,527,1088.9404087490402,1089.6233352134004,"[19, 0, 235]",235,a,0.16011884715408087,colour,0.5
036,69,0,1,11,28,528,1090.1435005185194,1090.7114822627045,"[50, 0, 204]",204,a,0.04515246534720063,colour,0.5
036,69,0,1,11,29,529,1091.221626946237,1093.8312764074653,"[36, 0, 218]",218,l,2.0869087977334857,colour,0.5
036,69,0,1,11,30,530,1094.346640336793,1094.9192663123831,"[55, 0, 199]",199,a,0.0497864568606019,colour,0.5
036,69,0,1,11,31,531,1095.4403933892027,1097.5593147710897,"[76, 0, 178]",178,a,1.596111401449889,colour,0.5
036,69,0,1,11,32,532,1098.0665863482282,1098.591317509301,"[30, 0, 224]",224,a,0.0020854142494499683,colour,0.5
036,69,0,1,11,33,533,1099.1134713422507,1099.7432998931035,"[16, 0, 238]",238,a,0.10691853379830718,colour,0.5
036,69,0,1,11,34,534,1100.2540849698707,1100.8633441301063,"[88, 0, 166]",166,l,0.08638773998245597,colour,0.5
036,69,0,1,11,35,535,1101.379029437434,1101.9273157352582,"[17, 0, 237]",237,a,0.025366828311234713,colour,0.5
036,69,0,1,11,36,536,1102.4414973394014,1102.983299357351,"[27, 0, 227]",227,a,0.018858524039387703,colour,0.5
036,69,0,1,11,37,537,1103.504015258979,1104.6953160692938,"[63, 0, 191]",191,a,0.6684301774948835,colour,0.5
036,69,0,1,11,38,538,1105.2071468066424,1107.8872694820166,"[33, 0, 221]",221,l,2.157253223937005,colour,0.5
036,69,0,1,11,39,539,1108.3959151878953,1108.999274536036,"[25, 0, 229]",229,a,0.0811373800970614,colour,0.5
036,69,0,1,11,40,540,1109.5051680463366,1110.1993017899804,"[95, 0, 159]",159,l,0.17119497573003173,colour,0.5
036,69,0,1,11,41,541,1110.7083066832274,1111.791419594083,"[23, 0, 231]",231,a,0.5600930107757449,colour,0.5
036,69,0,1,11,42,542,1112.30211723689,1112.9832713943906,"[93, 0, 161]",161,l,0.15829967241734266,colour,0.5
036,69,0,1,11,43,543,1113.4895603260957,1114.1033128742129,"[96, 0, 158]",158,l,0.09084922634065151,colour,0.5
036,69,0,1,11,44,544,1114.6146969906986,1115.2232767664827,"[4, 0, 250]",250,a,0.08587573980912566,colour,0.5
036,69,0,1,11,45,545,1115.7395575693808,1116.6392658869736,"[0, 0, 254]",254,a,0.37672622688114643,colour,0.5
036,69,0,1,11,46,546,1117.1481211185455,1117.7992980876006,"[42, 0, 212]",212,a,0.12831618264317513,colour,0.5
036,69,0,1,11,47,547,1118.31989504816,1119.375285538379,"[13, 0, 241]",241,a,0.5325135560706258,colour,0.5
036,69,0,1,11,48,548,1119.8826008322649,1120.5832818709314,"[62, 0, 192]",192,a,0.17869852855801582,colour,0.5
036,69,0,1,11,49,549,1121.1011305740103,1122.711307789199,"[71, 0, 183]",183,a,1.0872211176902056,colour,0.5
036,69,0,1,11,50,550,1123.2238183049485,1124.5993318799883,"[77, 0, 177]",177,a,0.8526953239925206,colour,0.5
036,69,0,1,12,1,551,1130.0667557022534,1130.7512559746392,"[49, 0, 205]",205,a,0.160790354013443,colour,0.5
036,69,0,1,12,2,552,1131.2706591878086,1134.9992820187472,"[32, 0, 222]",222,l,3.2060440382920206,colour,0.5
036,69,0,1,12,3,553,1135.5062692393549,1137.6792550324462,"[15, 0, 239]",239,a,1.6500875912606716,colour,0.5
036,69,0,1,12,4,554,1138.1936835777014,1139.407263070345,"[43, 0, 211]",211,a,0.6906915307044983,colour,0.5
036,69,0,1,12,5,555,1139.9280163873918,1140.9832698190585,"[3, 0, 251]",251,a,0.5322642517276108,colour,0.5
036,69,0,1,12,6,556,1141.4905587257817,1142.591292697005,"[68, 0, 186]",186,a,0.5778743666596711,colour,0.5
036,69,0,1,12,7,557,1143.0999502181076,1144.4632553569973,"[84, 0, 170]",170,l,0.8405900755897164,colour,0.5
036,69,0,1,12,8,558,1144.974897836335,1145.5912501616403,"[98, 0, 156]",156,l,0.09341867733746767,colour,0.5
036,69,0,1,12,9,559,1146.0999108334072,1146.839309682604,"[13, 0, 241]",241,a,0.2167968195863068,colour,0.5
036,69,0,1,12,10,560,1147.349884445779,1148.8394498918205,"[77, 0, 177]",177,a,0.9668342350050807,colour,0.5
036,69,0,1,12,11,561,1149.3498738119379,1149.9112960523926,"[17, 0, 237]",237,a,0.03866858035326004,colour,0.5
036,69,0,1,12,12,562,1150.4280049656518,1151.071397176478,"[92, 0, 162]",162,l,0.12045068573206663,colour,0.5
036,69,0,1,12,13,563,1151.5842763315886,1152.239302357193,"[73, 0, 181]",181,l,0.1321506667882204,colour,0.5
036,69,0,1,12,14,564,1152.7578741614707,1153.9112676954828,"[53, 0, 201]",201,a,0.6304555535316467,colour,0.5
036,69,0,1,12,15,565,1154.429773727432,1156.375288295094,"[31, 0, 223]",223,a,1.422658507246524,colour,0.5
036,69,0,1,12,16,566,1156.8828335953876,1157.4713398325257,"[87, 0, 167]",167,l,0.06614209013059735,colour,0.5
036,69,0,1,12,17,567,1157.9765874352306,1158.7193528795615,"[54, 0, 200]",200,a,0.21978059643879533,colour,0.5
036,69,0,1,12,18,568,1159.226595312357,1159.871317540761,"[48, 0, 206]",206,a,0.12176967598497868,colour,0.5
036,69,0,1,12,19,569,1160.3828513184562,1161.0232636909932,"[60, 0, 194]",194,a,0.11801474867388606,colour,0.5
036,69,0,1,12,20,570,1161.5390836936422,1162.9912215680815,"[76, 0, 178]",178,a,0.9293605829589069,colour,0.5
036,69,0,1,12,21,571,1163.5077989371493,1166.559263965115,"[46, 0, 208]",208,l,2.5282765617594123,colour,0.5
036,69,0,1,12,22,572,1167.064910533838,1167.5912233800627,"[33, 0, 221]",221,a,0.003704120870679617,colour,0.5
036,69,0,1,12,23,573,1168.1117632323876,1169.2472730106674,"[59, 0, 195]",195,a,0.6126730162650347,colour,0.5
036,69,0,1,12,24,574,1169.7679999400862,1170.295250927098,"[44, 0, 210]",210,a,0.0043472712859511375,colour,0.5
036,69,0,1,12,25,575,1170.814872330986,1171.463236452546,"[97, 0, 157]",157,l,0.12546867690980434,colour,0.5
036,69,0,1,12,26,576,1171.9711897769012,1172.6072332165204,"[4, 0, 250]",250,a,0.11306410515680909,colour,0.5
036,69,0,1,12,27,577,1173.127357561607,1173.8392647840083,"[45, 0, 209]",209,a,0.1888833837583661,colour,0.5
036,69,0,1,12,28,578,1174.3461834755726,1175.0072885127738,"[86, 0, 168]",168,l,0.1383427120745182,colour,0.5
036,69,0,1,12,29,579,1175.5181362107396,1176.175269705709,"[64, 0, 190]",190,a,0.1342766466550529,colour,0.5
036,69,0,1,12,30,580,1176.6899381033145,1177.2632253458723,"[70, 0, 184]",184,a,0.050476474687457085,colour,0.5
036,69,0,1,12,31,581,1177.7836982449517,1178.4712921767496,"[10, 0, 244]",244,a,0.1649627578444779,colour,0.5
036,69,0,1,12,32,582,1178.9867246355861,1180.0322784301825,"[82, 0, 172]",172,l,0.522642595693469,colour,0.5
036,69,0,1,12,33,583,1180.5419859443791,1181.079240617808,"[55, 0, 199]",199,a,0.014343080576509237,colour,0.5
036,69,0,1,12,34,584,1181.5888114674017,1182.2792702349834,"[85, 0, 169]",169,l,0.16754323616623878,colour,0.5
036,69,0,1,12,35,585,1182.8002874287777,1183.3832187769003,"[9, 0, 245]",245,a,0.06061131227761507,colour,0.5
036,69,0,1,12,36,586,1183.8940861672163,1184.6232690471224,"[57, 0, 197]",197,a,0.20712396362796426,colour,0.5
036,69,0,1,12,37,587,1185.1440656874329,1185.7912644185126,"[83, 0, 171]",171,l,0.12437851075083017,colour,0.5
036,69,0,1,12,38,588,1186.3003142103553,1187.0872305701487,"[41, 0, 213]",213,a,0.26430999767035246,colour,0.5
036,69,0,1,12,39,589,1187.5971550932154,1188.3196705556475,"[66, 0, 188]",188,a,0.19960583886131644,colour,0.5
036,69,0,1,12,40,590,1188.831520985812,1189.3912343289703,"[8, 0, 246]",246,a,0.03679938754066825,colour,0.5
036,69,0,1,12,41,591,1189.9096864042804,1190.5432210452855,"[89, 0, 165]",165,l,0.11071638995781541,colour,0.5
036,69,0,1,12,42,592,1191.0502803395502,1191.6873107571155,"[52, 0, 202]",202,a,0.1143744308501482,colour,0.5
036,69,0,1,12,43,593,1192.2065702164546,1193.0153017016128,"[24, 0, 230]",230,a,0.2859589201398194,colour,0.5
036,69,0,1,12,44,594,1193.5346194505692,1194.0952705405653,"[1, 0, 253]",253,a,0.03777376236394048,colour,0.5
036,69,0,1,12,45,595,1194.6127100382,1195.1912511857226,"[7, 0, 247]",247,a,0.05561340739950538,colour,0.5
036,69,0,1,12,46,596,1195.7065461920574,1196.3196469251998,"[88, 0, 166]",166,l,0.09030178049579263,colour,0.5
036,69,0,1,12,47,597,1196.8315091701224,1197.3993101394735,"[12, 0, 242]",242,a,0.04311194969341159,colour,0.5
036,69,0,1,12,48,598,1197.9143873490393,1198.5352692962624,"[39, 0, 215]",215,a,0.10101596498861909,colour,0.5
036,69,0,1,12,49,599,1199.0522948615253,1199.6472538700327,"[27, 0, 227]",227,a,0.0720214219763875,colour,0.5
036,69,0,1,12,50,600,1200.1616753260605,1200.775214803405,"[25, 0, 229]",229,a,0.09065466606989503,colour,0.5
036,69,0,1,13,1,601,1205.3171097696759,1208.2152048945427,"[82, 0, 172]",172,l,2.3744202591478825,colour,0.5
036,69,0,1,13,2,602,1208.7254370115697,1209.2952135116793,"[28, 0, 226]",226,a,0.046953917015343904,colour,0.5
036,69,0,1,13,3,603,1209.8028647564352,1212.183222242631,"[51, 0, 203]",203,a,1.8576676286756992,colour,0.5
036,69,0,1,13,4,604,1212.6935595162213,1213.8872430943884,"[73, 0, 181]",181,a,0.6708259424194694,colour,0.5
036,69,0,1,13,5,605,1214.3966048117727,1214.9592420672998,"[25, 0, 229]",229,a,0.039704001508653164,colour,0.5
036,69,0,1,13,6,606,1215.4747202116996,1216.0473024705425,"[39, 0, 215]",215,a,0.049705324694514275,colour,0.5
036,69,0,1,13,7,607,1216.5684598735534,1217.647216454614,"[67, 0, 187]",187,a,0.5558914626017213,colour,0.5
036,69,0,1,13,8,608,1218.163544518873,1220.6314354422502,"[77, 0, 177]",177,a,1.9449891769327223,colour,0.5
036,69,0,1,13,9,609,1221.147930891253,1221.7352311718278,"[23, 0, 231]",231,a,0.06442374037578702,colour,0.5
036,69,0,1,13,10,610,1222.241610294208,1222.9752377253026,"[69, 0, 185]",185,a,0.21103761065751314,colour,0.5
036,69,0,1,13,11,611,1223.4917182079516,1225.4713043863885,"[33, 0, 221]",221,a,1.4566698595881462,colour,0.5
036,69,0,1,13,12,612,1225.991637469735,1226.575250171125,"[8, 0, 246]",246,a,0.060760185588151217,colour,0.5
036,69,0,1,13,13,613,1227.085438570939,1228.1512419539504,"[44, 0, 210]",210,a,0.5429292055778205,colour,0.5
036,69,0,1,13,14,614,1228.6635657865554,1229.3752233106643,"[61, 0, 193]",193,a,0.18887590058147907,colour,0.5
036,69,0,1,13,15,615,1229.88227354642,1230.4232433685102,"[47, 0, 207]",207,a,0.01878763223066926,colour,0.5
036,69,0,1,13,16,616,1230.929208952468,1231.4712764229625,"[1, 0, 253]",253,a,0.01916178548708558,colour,0.5
036,69,0,1,13,17,617,1231.9916784297675,1232.6952766845934,"[55, 0, 199]",199,a,0.1807059608399868,colour,0.5
036,69,0,1,13,18,618,1233.2103999741375,1233.7992169554345,"[91, 0, 163]",163,l,0.06593256397172809,colour,0.5
036,69,0,1,13,19,619,1234.3198009189218,1236.2872259225696,"[27, 0, 227]",227,a,1.4446047833189368,colour,0.5
036,69,0,1,13,20,620,1236.8041364848614,1237.9832438253798,"[24, 0, 230]",230,a,0.6561323385685682,colour,0.5
036,69,0,1,13,21,621,1238.491612657439,1239.5831964062527,"[30, 0, 224]",224,a,0.5685843285173178,colour,0.5
036,69,0,1,13,22,622,1240.1009368021041,1241.0552085335366,"[45, 0, 209]",209,a,0.4319304279051721,colour,0.5
036,69,0,1,13,23,623,1241.5697473557666,1242.327232397627,"[80, 0, 174]",174,l,0.23459274787455797,colour,0.5
036,69,0,1,13,24,624,1242.8366520102136,1244.0232451800257,"[71, 0, 183]",183,a,0.6638540816493332,colour,0.5
036,69,0,1,13,25,625,1244.539755988866,1245.3433032804169,"[21, 0, 233]",233,a,0.28073061583563685,colour,0.5
036,69,0,1,13,26,626,1245.8521986841224,1246.6552056190558,"[60, 0, 194]",194,a,0.280148905236274,colour,0.5
036,69,0,1,13,27,627,1247.1646898225881,1247.7831886080094,"[15, 0, 239]",239,a,0.09598458325490355,colour,0.5
036,69,0,1,13,28,628,1248.2896992750466,1248.8791897329502,"[46, 0, 208]",208,a,0.06653436087071896,colour,0.5
036,69,0,1,13,29,629,1249.3991143982857,1249.9832134991884,"[66, 0, 188]",188,a,0.06137852370738983,colour,0.5
036,69,0,1,13,30,630,1250.4928560289554,1251.0392176015303,"[12, 0, 242]",242,a,0.023854066152125597,colour,0.5
036,69,0,1,13,31,631,1251.5553759182803,1253.895251557231,"[74, 0, 180]",180,a,1.8170979539863765,colour,0.5
036,69,0,1,13,32,632,1254.405311170034,1255.0952185532078,"[54, 0, 200]",200,a,0.16716396296396852,colour,0.5
036,69,0,1,13,33,633,1255.6084289327264,1256.151186815463,"[38, 0, 216]",216,a,0.01999870827421546,colour,0.5
036,69,0,1,13,34,634,1256.6709602437913,1258.6874017356895,"[41, 0, 213]",213,a,1.4934420716017485,colour,0.5
036,69,0,1,13,35,635,1259.2021272405982,1260.0392944016494,"[84, 0, 170]",170,a,0.31431464524939656,colour,0.5
036,69,0,1,13,36,636,1260.5459047113545,1261.1031939326786,"[3, 0, 251]",251,a,0.03438274888321757,colour,0.5
036,69,0,1,13,37,637,1261.6239941176027,1262.1672171321698,"[34, 0, 220]",220,a,0.02035198826342821,colour,0.5
036,69,0,1,13,38,638,1262.6877435939386,1273.487192524597,"[78, 0, 176]",176,l,10.276506618130952,colour,0.5
036,69,0,1,13,39,639,1274.0014985837042,1274.6631676084362,"[9, 0, 245]",245,a,0.13881887216120958,colour,0.5
036,69,0,1,13,40,640,1275.1733587654307,1278.6712020649575,"[92, 0, 162]",162,l,2.975018353201449,colour,0.5
036,69,0,1,13,41,641,1279.1889227684587,1280.3591827540658,"[4, 0, 250]",250,a,0.647394866682589,colour,0.5
036,69,0,1,13,42,642,1280.8764375378378,1281.6231662533246,"[70, 0, 184]",184,l,0.22391558438539505,colour,0.5
036,69,0,1,13,43,643,1282.1420744024217,1282.8791893390007,"[57, 0, 197]",197,l,0.21304149879142642,colour,0.5
036,69,0,1,13,44,644,1283.3933102907613,1284.1192786004394,"[97, 0, 157]",157,l,0.20312367100268602,colour,0.5
036,69,0,1,13,45,645,1284.6276801214553,1285.1912035299465,"[16, 0, 238]",238,a,0.04059448651969433,colour,0.5
036,69,0,1,13,46,646,1285.7057332936674,1288.9831638745964,"[96, 0, 158]",158,l,2.754463062155992,colour,0.5
036,69,0,1,13,47,647,1289.5026446753182,1290.1431716568768,"[52, 0, 202]",202,a,0.11765831802040339,colour,0.5
036,69,0,1,13,48,648,1290.658925099764,1291.9112188587897,"[32, 0, 222]",222,a,0.7294211569242179,colour,0.5
036,69,0,1,13,49,649,1292.4245166722685,1293.4871452627704,"[62, 0, 192]",192,a,0.5397059703245759,colour,0.5
036,69,0,1,13,50,650,1294.0026580663398,1294.6631550053135,"[59, 0, 195]",195,a,0.13764796825125813,colour,0.5
036,69,0,1,14,1,651,1300.3942058961838,1303.4551657619886,"[88, 0, 166]",166,l,2.537462624255568,colour,0.5
036,69,0,1,14,2,652,1303.9731995728798,1305.8232577042654,"[3, 0, 251]",251,a,1.3271646555513144,colour,0.5
036,69,0,1,14,3,653,1306.3324992991984,1308.1751767578535,"[64, 0, 190]",190,a,1.3198863831348717,colour,0.5
036,69,0,1,14,4,654,1308.6918356530368,1309.3431607079692,"[72, 0, 182]",182,a,0.12840164732187986,colour,0.5
036,69,0,1,14,5,655,1309.8637753911316,1310.6391394622624,"[95, 0, 159]",159,l,0.25256511848419905,colour,0.5
036,69,0,1,14,6,656,1311.1449014283717,1311.8231600304134,"[65, 0, 189]",189,a,0.1552020744420588,colour,0.5
036,69,0,1,14,7,657,1312.3324591265991,1312.951154441107,"[54, 0, 200]",200,a,0.09591447841376066,colour,0.5
036,69,0,1,14,8,658,1313.4574646404944,1313.999181194231,"[31, 0, 223]",223,a,0.018809293396770954,colour,0.5
036,69,0,1,14,9,659,1314.5200109174475,1315.0791831160896,"[43, 0, 211]",211,a,0.03629290126264095,colour,0.5
036,69,0,1,14,10,660,1315.598101111129,1316.1431964691728,"[17, 0, 237]",237,a,0.022306645289063454,colour,0.5
036,69,0,1,14,11,661,1316.6606206065044,1317.231185192708,"[2, 0, 252]",252,a,0.04762463644146919,colour,0.5
036,69,0,1,14,12,662,1317.7400971380994,1320.0631468920037,"[37, 0, 217]",217,a,1.8001271337270737,colour,0.5
036,69,0,1,14,13,663,1320.5838596429676,1321.2871739352122,"[90, 0, 164]",164,l,0.18051061360165477,colour,0.5
036,69,0,1,14,14,664,1321.802556768991,1322.6311471471563,"[23, 0, 231]",231,a,0.30622977623715997,colour,0.5
036,69,0,1,14,15,665,1323.1463665352203,1326.1591759799048,"[52, 0, 202]",202,a,2.489936843048781,colour,0.5
036,69,0,1,14,16,666,1326.6774807567708,1327.4631765880622,"[12, 0, 242]",242,a,0.2626641155220568,colour,0.5
036,69,0,1,14,17,667,1327.976697318256,1329.9832012900151,"[92, 0, 162]",162,l,1.4835766251198947,colour,0.5
036,69,0,1,14,18,668,1330.4923298507929,1331.0632075443864,"[42, 0, 212]",212,a,0.04800272872671485,colour,0.5
036,69,0,1,14,19,669,1331.5704090166837,1332.1991186514497,"[94, 0, 160]",160,l,0.10567358648404479,colour,0.5
036,69,0,1,14,20,670,1332.711047063116,1333.527148981113,"[10, 0, 244]",244,a,0.29318796237930655,colour,0.5
036,69,0,1,14,21,671,1334.0390903893858,1334.7431329023093,"[15, 0, 239]",239,a,0.1810553022660315,colour,0.5
036,69,0,1,14,22,672,1335.2577808201313,1335.8311578598805,"[62, 0, 192]",192,a,0.0507249915972352,colour,0.5
036,69,0,1,14,23,673,1336.3516398170032,1336.919130829163,"[56, 0, 198]",198,a,0.044597930274903774,colour,0.5
036,69,0,1,14,24,674,1337.4297402505763,1337.9991500806063,"[83, 0, 171]",171,l,0.04648839123547077,colour,0.5
036,69,0,1,14,25,675,1338.507929299958,1339.119143905118,"[4, 0, 250]",250,a,0.08830301277339458,colour,0.5
036,69,0,1,14,26,676,1339.6328765247017,1340.223155462183,"[9, 0, 245]",245,a,0.06749258795753121,colour,0.5
036,69,0,1,14,27,677,1340.736058248207,1341.3351896605454,"[16, 0, 238]",238,a,0.07615365367382765,colour,0.5
036,69,0,1,14,28,678,1341.8455651374534,1342.431151400786,"[1, 0, 253]",253,a,0.06281960615888238,colour,0.5
036,69,0,1,14,29,679,1342.9390944852494,1343.551145619247,"[85, 0, 169]",169,l,0.08896506763994694,colour,0.5
036,69,0,1,14,30,680,1344.0641870391555,1344.6472003068775,"[36, 0, 218]",218,a,0.06051442585885525,colour,0.5
036,69,0,1,14,31,681,1345.157763254363,1346.783138195984,"[71, 0, 183]",183,a,1.1022908445447683,colour,0.5
036,69,0,1,14,32,682,1347.2985170911998,1347.9592412794009,"[32, 0, 222]",222,a,0.13617459032684565,colour,0.5
036,69,0,1,14,33,683,1348.4721905393526,1349.095140571706,"[57, 0, 197]",197,a,0.09997463645413518,colour,0.5
036,69,0,1,14,34,684,1349.612854973413,1350.1511698798276,"[98, 0, 156]",156,l,0.015525012277066708,colour,0.5
036,69,0,1,14,35,685,1350.6596946748905,1351.2231389204971,"[51, 0, 203]",203,a,0.04051650548353791,colour,0.5
036,69,0,1,14,36,686,1351.7378707272,1352.3351388545707,"[25, 0, 229]",229,a,0.0746751562692225,colour,0.5
036,69,0,1,14,37,687,1352.847161788959,1353.4231433314271,"[29, 0, 225]",225,a,0.053011266980320215,colour,0.5
036,69,0,1,14,38,688,1353.940958558116,1356.167194682639,"[75, 0, 179]",179,l,1.7033158675767481,colour,0.5
036,69,0,1,14,39,689,1356.675325238146,1357.3031475376338,"[93, 0, 161]",161,l,0.1049430025741458,colour,0.5
036,69,0,1,14,40,690,1357.8172491909936,1358.4391669528559,"[47, 0, 207]",207,l,0.09906406467780471,colour,0.5
036,69,0,1,14,41,691,1358.9578576986678,1361.1831990056671,"[0, 0, 254]",254,a,1.7023954498581588,colour,0.5
036,69,0,1,14,42,692,1361.6922263479792,1363.8551580426283,"[74, 0, 180]",180,a,1.6408696277067065,colour,0.5
036,69,0,1,14,43,693,1364.3640967695974,1365.031121310778,"[89, 0, 165]",165,l,0.14411373622715473,colour,0.5
036,69,0,1,14,44,694,1365.5515768802725,1366.1511706677265,"[27, 0, 227]",227,a,0.0766936163417995,colour,0.5
036,69,0,1,14,45,695,1366.6609857017174,1367.9911951804534,"[55, 0, 199]",199,a,0.8073297874070704,colour,0.5
036,69,0,1,14,46,696,1368.5058631841093,1369.0396933672018,"[53, 0, 201]",201,a,0.010895353276282549,colour,0.5
036,69,0,1,14,47,697,1369.5527824428864,1370.4471328803338,"[26, 0, 228]",228,a,0.3713419591076672,colour,0.5
036,69,0,1,14,48,698,1370.9590518395416,1371.6391221331432,"[49, 0, 205]",205,a,0.15713152568787336,colour,0.5
036,69,0,1,14,49,699,1372.1465650335886,1372.799140155781,"[8, 0, 246]",246,a,0.1296836156398058,colour,0.5
036,69,0,1,14,50,700,1373.3183870119974,1374.727154967375,"[63, 0, 191]",191,a,0.8859048057347536,colour,0.5
036,69,0,1,15,1,701,1381.1925843539648,1383.935207225848,"[21, 0, 233]",233,a,2.218974787276238,colour,0.5
036,69,0,1,15,2,702,1384.4483372610994,1385.0551199181937,"[31, 0, 223]",223,a,0.0839269901625812,colour,0.5
036,69,0,1,15,3,703,1385.5732793658972,1390.6231453795917,"[74, 0, 180]",180,a,4.526976082473993,colour,0.5
036,69,0,1,15,4,704,1391.1357937413268,1392.4311510068364,"[30, 0, 224]",224,a,0.7724956911988556,colour,0.5
036,69,0,1,15,5,705,1392.9482112308033,1393.5431489716284,"[4, 0, 250]",250,a,0.07198912696912885,colour,0.5
036,69,0,1,15,6,706,1394.0575960273854,1395.1911314562894,"[58, 0, 196]",196,a,0.6112146051600575,colour,0.5
036,69,0,1,15,7,707,1395.6982234399766,1397.34313195711,"[98, 0, 156]",156,l,1.1219807770103216,colour,0.5
036,69,0,1,15,8,708,1397.855769685004,1399.6631475221366,"[83, 0, 171]",171,a,1.2844414319843054,colour,0.5
036,69,0,1,15,9,709,1400.1839047777466,1402.7031039786525,"[39, 0, 215]",215,a,1.9964069440029562,colour,0.5
036,69,0,1,15,10,710,1403.2152490052395,1404.3271559914574,"[73, 0, 181]",181,a,0.5890981876291335,colour,0.5
036,69,0,1,15,11,711,1404.8401588145643,1410.3991285767406,"[84, 0, 170]",170,a,5.036144815851003,colour,0.5
036,69,0,1,15,12,712,1410.919480170589,1411.8470719917677,"[76, 0, 178]",178,a,0.4046392682939768,colour,0.5
036,69,0,1,15,13,713,1412.3569208970293,1412.9991047880612,"[59, 0, 195]",195,a,0.11921794805675745,colour,0.5
036,69,0,1,15,14,714,1413.513340742793,1414.1350942710415,"[32, 0, 222]",222,a,0.0989522123709321,colour,0.5
036,69,0,1,15,15,715,1414.6538819028065,1415.223205480259,"[9, 0, 245]",245,a,0.046660895459353924,colour,0.5
036,69,0,1,15,16,716,1415.7320122690871,1417.711095112376,"[35, 0, 219]",219,a,1.4562492319382727,colour,0.5
036,69,0,1,15,17,717,1418.2175715146586,1418.9830811670981,"[63, 0, 191]",191,a,0.24247084790840745,colour,0.5
036,69,0,1,15,18,718,1419.4988243700936,1420.0390813308768,"[52, 0, 202]",202,a,0.017377663869410753,colour,0.5
036,69,0,1,15,19,719,1420.5457389024086,1422.9351725676097,"[54, 0, 200]",200,a,1.8665378266014159,colour,0.5
036,69,0,1,15,20,720,1423.4519767914899,1424.0870647607371,"[1, 0, 253]",253,a,0.11258125025779009,colour,0.5
036,69,0,1,15,21,721,1424.608289905358,1425.6951805860735,"[64, 0, 190]",190,a,0.5640657343901694,colour,0.5
036,69,0,1,15,22,722,1426.201906293165,1426.831101146061,"[66, 0, 188]",188,a,0.1062998017296195,colour,0.5
036,69,0,1,15,23,723,1427.3381588649936,1427.8711021067575,"[11, 0, 243]",243,a,0.005022323224693537,colour,0.5
036,69,0,1,15,24,724,1428.3900338863023,1428.9590825596824,"[27, 0, 227]",227,a,0.046209154184907675,colour,0.5
036,69,0,1,15,25,725,1429.46814337885,1430.0550671429373,"[34, 0, 220]",220,a,0.06440286664292216,colour,0.5
036,69,0,1,15,26,726,1430.561892886646,1431.3190880576149,"[71, 0, 183]",183,a,0.23454548604786396,colour,0.5
036,69,0,1,15,27,727,1431.827461221721,1434.183165134862,"[12, 0, 242]",242,a,1.8323720865882933,colour,0.5
036,69,0,1,15,28,728,1434.70246200962,1435.327107548248,"[70, 0, 184]",184,a,0.10174654889851809,colour,0.5
036,69,0,1,15,29,729,1435.8430736679584,1437.9910620604642,"[3, 0, 251]",251,a,1.6250019688159227,colour,0.5
036,69,0,1,15,30,730,1438.5006163688377,1441.2151190359145,"[48, 0, 206]",206,a,2.1921558496542275,colour,0.5
036,69,0,1,15,31,731,1441.7350551225245,1444.0630744243972,"[23, 0, 231]",231,a,1.8052727305330336,colour,0.5
036,69,0,1,15,32,732,1444.5786679657176,1445.1430665003136,"[24, 0, 230]",230,a,0.04139675106853247,colour,0.5
036,69,0,1,15,33,733,1445.656817630399,1446.8070635478944,"[49, 0, 205]",205,a,0.6273559862747788,colour,0.5
036,69,0,1,15,34,734,1447.3131795809604,1447.8710761130787,"[36, 0, 218]",218,a,0.03506252681836486,colour,0.5
036,69,0,1,15,35,735,1448.3911201134324,1450.2631457890384,"[28, 0, 226]",226,a,1.3490427965298295,colour,0.5
036,69,0,1,15,36,736,1450.7817916367203,1452.8471810873598,"[56, 0, 198]",198,a,1.542528664227575,colour,0.5
036,69,0,1,15,37,737,1453.3611252019182,1454.1030667205341,"[65, 0, 189]",189,a,0.21897793840616941,colour,0.5
036,69,0,1,15,38,738,1454.6111878235824,1455.1351537415758,"[7, 0, 247]",247,a,0.0014056358486413956,colour,0.5
036,69,0,1,15,39,739,1455.6579932603054,1457.127085808199,"[82, 0, 172]",172,l,0.9461104567162693,colour,0.5
036,69,0,1,15,40,740,1457.6423619096167,1458.3111796313897,"[86, 0, 168]",168,l,0.1459108553826809,colour,0.5
036,69,0,1,15,41,741,1458.8298479281366,1459.455081872642,"[19, 0, 235]",235,a,0.10233928728848696,colour,0.5
036,69,0,1,15,42,742,1459.9705915250815,1460.8154449830763,"[91, 0, 163]",163,l,0.3220214224420488,colour,0.5
036,69,0,1,15,43,743,1461.3298219344579,1462.0711376317777,"[85, 0, 169]",169,l,0.21827925555408,colour,0.5
036,69,0,1,15,44,744,1462.5798250851221,1463.4071185286157,"[45, 0, 209]",209,a,0.3043330139480531,colour,0.5
036,69,0,1,15,45,745,1463.9235927099362,1464.479099384509,"[29, 0, 225]",225,a,0.03260729135945439,colour,0.5
036,69,0,1,15,46,746,1464.9861157499254,1465.5511152930558,"[81, 0, 173]",173,l,0.04217499075457454,colour,0.5
036,69,0,1,15,47,747,1466.0642441464588,1466.7351271966472,"[47, 0, 207]",207,a,0.14798248512670398,colour,0.5
036,69,0,1,15,48,748,1467.2518495004624,1467.8954185480252,"[57, 0, 197]",197,a,0.11970749869942665,colour,0.5
036,69,0,1,15,49,749,1468.4094000780024,1469.0310854706913,"[97, 0, 157]",157,l,0.0986650986596942,colour,0.5
036,69,0,1,15,50,750,1469.550049545709,1470.199076116085,"[96, 0, 158]",158,l,0.12639933452010155,colour,0.5
036,69,0,1,16,1,751,1474.9878250411712,1476.7350614243187,"[91, 0, 163]",163,l,1.2236296525225043,colour,0.5
036,69,0,1,16,2,752,1477.2541401083581,1477.8310861797072,"[19, 0, 235]",235,a,0.05428063264116645,colour,0.5
036,69,0,1,16,3,753,1478.3479341208003,1480.1830733688548,"[60, 0, 194]",194,a,1.3122075693681836,colour,0.5
036,69,0,1,16,4,754,1480.6916958377697,1481.2790713426657,"[40, 0, 214]",214,a,0.0644804541952908,colour,0.5
036,69,0,1,16,5,755,1481.7853267975152,1482.5350467730314,"[9, 0, 245]",245,a,0.2267284318804741,colour,0.5
036,69,0,1,16,6,756,1483.0510266777128,1483.695077398792,"[12, 0, 242]",242,a,0.12112298095598817,colour,0.5
036,69,0,1,16,7,757,1484.2072972562164,1484.7750529330224,"[29, 0, 225]",225,a,0.044923247303813696,colour,0.5
036,69,0,1,16,8,758,1485.285439437721,1486.7590832686983,"[53, 0, 201]",201,a,0.9507338139228523,colour,0.5
036,69,0,1,16,9,759,1487.2697572805919,1487.7990621742792,"[22, 0, 232]",232,a,0.0051826187409460545,colour,0.5
036,69,0,1,16,10,760,1488.317816723138,1488.855200577993,"[25, 0, 229]",229,a,0.014492348302155733,colour,0.5
036,69,0,1,16,11,761,1489.3647351935506,1489.9510437706485,"[13, 0, 241]",241,a,0.06339974096044898,colour,0.5
036,69,0,1,16,12,762,1490.458383089397,1491.5830577723682,"[69, 0, 185]",185,l,0.6017075581476092,colour,0.5
036,69,0,1,16,13,763,1492.0991081753746,1492.6471207500435,"[96, 0, 158]",158,l,0.025246704928576946,colour,0.5
036,69,0,1,16,14,764,1493.1615461446345,1494.503078693524,"[90, 0, 164]",164,l,0.8189021623693407,colour,0.5
036,69,0,1,16,15,765,1495.0209045540541,1495.5990786370821,"[31, 0, 223]",223,a,0.05516914930194616,colour,0.5
036,69,0,1,16,16,766,1496.1147572491318,1497.3510218728334,"[87, 0, 167]",167,l,0.7133742985315621,colour,0.5
036,69,0,1,16,17,767,1497.8659167317674,1499.1670383261517,"[47, 0, 207]",207,a,0.7785038109868765,colour,0.5
036,69,0,1,16,18,768,1499.678397236392,1500.9590112734586,"[67, 0, 187]",187,a,0.7576236752793193,colour,0.5
036,69,0,1,16,19,769,1501.4752668701112,1502.11911436636,"[62, 0, 192]",192,a,0.1208480759523809,colour,0.5
036,69,0,1,16,20,770,1502.6315370546654,1503.1910719857551,"[38, 0, 216]",216,a,0.03667256934568286,colour,0.5
036,69,0,1,16,21,771,1503.7097741528414,1504.447045840323,"[27, 0, 227]",227,a,0.21446682699024677,colour,0.5
036,69,0,1,16,22,772,1504.9596166145056,1506.2390609295107,"[82, 0, 172]",172,l,0.756435836199671,colour,0.5
036,69,0,1,16,23,773,1506.7564614363946,1507.3030400178395,"[37, 0, 217]",217,a,0.023645327426493168,colour,0.5
036,69,0,1,16,24,774,1507.82025305368,1508.5270639103837,"[3, 0, 251]",251,a,0.18390714097768068,colour,0.5
036,69,0,1,16,25,775,1509.038976173848,1509.5670885019936,"[7, 0, 247]",247,a,0.005110544618219137,colour,0.5
036,69,0,1,16,26,776,1510.085793032311,1511.975043559447,"[59, 0, 195]",195,a,1.366220386698842,colour,0.5
036,69,0,1,16,27,777,1512.4921581340022,1513.5190444197506,"[97, 0, 157]",157,l,0.5039872964844108,colour,0.5
036,69,0,1,16,28,778,1514.0391971212812,1514.6712757144123,"[95, 0, 159]",159,l,0.10845532082021236,colour,0.5
036,69,0,1,16,29,779,1515.1805106136017,1515.7431084839627,"[17, 0, 237]",237,a,0.039622080978006124,colour,0.5
036,69,0,1,16,30,780,1516.258672093507,1516.887015845161,"[1, 0, 253]",253,a,0.10536993155255914,colour,0.5
036,69,0,1,16,31,781,1517.39928965969,1518.031035058666,"[43, 0, 211]",211,a,0.10893423715606332,colour,0.5
036,69,0,1,16,32,782,1518.5399663024582,1519.0870336471125,"[79, 0, 175]",175,l,0.024187259376049042,colour,0.5
036,69,0,1,16,33,783,1519.602438930422,1525.29508354282,"[76, 0, 178]",178,l,5.170015407260507,colour,0.5
036,69,0,1,16,34,784,1525.8069855663925,1527.0230277772062,"[74, 0, 180]",180,a,0.6931503103114665,colour,0.5
036,69,0,1,16,35,785,1527.5412734770216,1528.7110443059355,"[72, 0, 182]",182,a,0.6467824364081025,colour,0.5
036,69,0,1,16,36,786,1529.2288579572923,1529.7830578512512,"[99, 0, 155]",155,l,0.03122607385739684,colour,0.5
036,69,0,1,16,37,787,1530.2914290465415,1530.927040043287,"[26, 0, 228]",228,a,0.11269389046356082,colour,0.5
036,69,0,1,16,38,788,1531.4476665416732,1533.0553140840493,"[85, 0, 169]",169,l,1.084718620404601,colour,0.5
036,69,0,1,16,39,789,1533.5738661964424,1536.543011913076,"[30, 0, 224]",224,a,2.4462739024311304,colour,0.5
036,69,0,1,16,40,790,1537.0582186980173,1537.6230339212343,"[45, 0, 209]",209,a,0.041909932158887386,colour,0.5
036,69,0,1,16,41,791,1538.1362443012185,1538.751052356325,"[50, 0, 204]",204,a,0.09177791513502598,colour,0.5
036,69,0,1,16,42,792,1539.2612486332655,1539.8470164597966,"[10, 0, 244]",244,a,0.0630862396210432,colour,0.5
036,69,0,1,16,43,793,1540.3550725779496,1541.8872785405256,"[75, 0, 179]",179,a,1.0091789732687175,colour,0.5
036,69,0,1,16,44,794,1542.4032092140988,1543.2070314101875,"[73, 0, 181]",181,a,0.2808015081100166,colour,0.5
036,69,0,1,16,45,795,1543.7157484018244,1544.3030392304063,"[57, 0, 197]",197,a,0.06440286664292216,colour,0.5
036,69,0,1,16,46,796,1544.809490820393,1545.3590445141308,"[48, 0, 206]",206,a,0.026614138390868902,colour,0.5
036,69,0,1,16,47,797,1545.87195281405,1546.4070255812258,"[61, 0, 193]",193,a,0.012144239153712988,colour,0.5
036,69,0,1,16,48,798,1546.918853955809,1547.5030767242424,"[51, 0, 203]",203,a,0.061221379321068525,colour,0.5
036,69,0,1,16,49,799,1548.0126282754354,1548.5590603468008,"[42, 0, 212]",212,a,0.02350393682718277,colour,0.5
036,69,0,1,16,50,800,1549.0750910569914,1549.6550358715467,"[6, 0, 248]",248,a,0.05692806467413902,colour,0.5
