id,age,condition,counterbalance,block,trialinblock,trial,tstart,tend,trialstim,trialintensity,response,RT,trialtype,colourfreq
109,19,0,1,Practice,1,NA,5.132831574883312e-06,0.9557042794403969,"[78, 0, 176]",176,l,0.4198523925151676,colour,0.5
109,19,0,1,Practice,2,NA,1.4695420805801405,43.15562401474017,"[81, 0, 173]",173,l,41.15311758746975,colour,0.5
109,19,0,1,Practice,3,NA,43.66977876841702,44.211646337433194,"[89, 0, 165]",165,l,0.009324756363639608,colour,0.5
109,19,0,1,Practice,4,NA,44.71931607546139,45.33966147672618,"[50, 0, 204]",204,l,0.08735924003121909,colour,0.5
109,19,0,1,Practice,5,NA,45.857593355030986,49.1157168677164,"[28, 0, 226]",226,l,2.7300735342723783,colour,0.5
109,19,0,1,Practice,6,NA,49.61971823305066,50.37163711116591,"[5, 0, 249]",249,l,0.21932858674699673,colour,0.5
109,19,0,1,Practice,7,NA,50.886749138488085,51.4916828832138,"[42, 0, 212]",212,l,0.07269601492589572,colour,0.5
109,19,0,1,Practice,8,NA,52.00299725457444,58.051677057446796,"[36, 0, 218]",218,l,5.516048128018156,colour,0.5
109,19,0,1,Practice,9,NA,58.56946938681358,59.69975612619601,"[30, 0, 224]",224,l,0.5974459015269531,colour,0.5
109,19,0,1,Practice,10,NA,60.20244958112744,61.80360491802276,"[84, 0, 170]",170,a,1.0680289851152338,colour,0.5
109,19,0,1,1,1,1,5.019393773742195,8.25594911564258,"[21, 0, 233]",233,l,2.7034456718320143,colour,0.5
109,19,0,1,1,2,2,8.769937052202295,11.047994248656323,"[66, 0, 188]",188,a,1.7455015517189167,colour,0.5
109,19,0,1,1,3,3,11.553414201138366,12.760008546167228,"[76, 0, 178]",178,a,0.6741939685307443,colour,0.5
109,19,0,1,1,4,4,13.268821302292054,14.184074033437355,"[81, 0, 173]",173,a,0.3816201535591972,colour,0.5
109,19,0,1,1,5,5,14.686073914097506,15.53597988699039,"[99, 0, 155]",155,a,0.3168460271554068,colour,0.5
109,19,0,1,1,6,6,16.05335132392065,17.16803969990724,"[34, 0, 220]",220,l,0.5822671473579248,colour,0.5
109,19,0,1,1,7,7,17.686457272677217,18.632129426987376,"[35, 0, 219]",219,l,0.41245341150352033,colour,0.5
109,19,0,1,1,8,8,19.136650171021756,19.78401417175337,"[46, 0, 208]",208,l,0.11489144375809701,colour,0.5
109,19,0,1,1,9,9,20.286433340836084,22.06401029646804,"[80, 0, 174]",174,a,1.244905501313042,colour,0.5
109,19,0,1,1,10,10,22.570305718043528,23.73610557727079,"[98, 0, 156]",156,a,0.6336782598154969,colour,0.5
109,19,0,1,1,11,11,24.25324090381764,25.33611917928647,"[28, 0, 226]",226,l,0.5503604853875004,colour,0.5
109,19,0,1,1,12,12,25.853622465903754,26.856038426965824,"[41, 0, 213]",213,l,0.4703010984885623,colour,0.5
109,19,0,1,1,13,13,27.3694498820405,28.37616395043733,"[0, 0, 254]",254,l,0.47374908010533545,colour,0.5
109,19,0,1,1,14,14,28.886484797505545,29.82415710836358,"[50, 0, 204]",204,l,0.4050868315171101,colour,0.5
109,19,0,1,1,15,15,30.336419450104586,31.37608984513645,"[23, 0, 231]",231,l,0.5070284545145114,colour,0.5
109,19,0,1,1,16,16,31.88619222593843,32.92011160065158,"[55, 0, 199]",199,l,0.5005437596555566,colour,0.5
109,19,0,1,1,17,17,33.43577989892219,34.92002722968755,"[67, 0, 187]",187,a,0.9509779012223589,colour,0.5
109,19,0,1,1,18,18,35.437194315643865,37.72820550329925,"[94, 0, 160]",160,a,1.7591487963873078,colour,0.5
109,19,0,1,1,19,19,38.23645685563679,39.152075942853116,"[5, 0, 249]",249,l,0.38300377327686874,colour,0.5
109,19,0,1,1,20,20,39.669708833542245,40.81609406688949,"[69, 0, 185]",185,a,0.6137221198805491,colour,0.5
109,19,0,1,1,21,21,41.31947852967278,42.14401354298025,"[52, 0, 202]",202,l,0.2916508671551128,colour,0.5
109,19,0,1,1,22,22,42.65330236950831,43.47213672844373,"[12, 0, 242]",242,l,0.2864612506236881,colour,0.5
109,19,0,1,1,23,23,43.986391572398134,44.93602017973899,"[13, 0, 241]",241,l,0.41699821569636697,colour,0.5
109,19,0,1,1,24,24,45.452533791692986,46.40011439804948,"[63, 0, 191]",191,a,0.4144221743554226,colour,0.5
109,19,0,1,1,25,25,46.903074439571355,48.37602953433088,"[59, 0, 195]",195,a,0.9399695751271793,colour,0.5
109,19,0,1,1,26,26,48.8862162860969,49.70406963203277,"[1, 0, 253]",253,l,0.2850686484525795,colour,0.5
109,19,0,1,1,27,27,50.219647784892004,51.06402794058522,"[9, 0, 245]",245,l,0.3116977941026562,colour,0.5
109,19,0,1,1,28,28,51.569163662352366,52.392002594649966,"[40, 0, 214]",214,l,0.2896779338843771,colour,0.5
109,19,0,1,1,29,29,52.903003221494146,53.704154644605296,"[92, 0, 162]",162,a,0.2684754775618785,colour,0.5
109,19,0,1,1,30,30,54.219771935328026,56.12016446884809,"[51, 0, 203]",203,a,1.3678612697476638,colour,0.5
109,19,0,1,1,31,31,56.63609582488425,57.512021419315715,"[72, 0, 182]",182,a,0.3430510723410407,colour,0.5
109,19,0,1,1,32,32,58.01923914709914,58.85616931424738,"[43, 0, 211]",211,l,0.3038682965998305,colour,0.5
109,19,0,1,1,33,33,59.369661932265444,61.608037184822024,"[75, 0, 179]",179,a,1.7057564097922295,colour,0.5
109,19,0,1,1,34,34,62.11951131565729,63.05601943547663,"[77, 0, 177]",177,a,0.4032608256311505,colour,0.5
109,19,0,1,1,35,35,63.570033998614235,64.52015792448947,"[38, 0, 216]",216,l,0.41787432639830513,colour,0.5
109,19,0,1,1,36,36,65.03638409770792,65.90404326209682,"[68, 0, 186]",186,a,0.3351009532343596,colour,0.5
109,19,0,1,1,37,37,66.4190282517593,67.32815494487295,"[30, 0, 224]",224,l,0.3758838901485433,colour,0.5
109,19,0,1,1,38,38,67.83588242729456,68.72806691676669,"[47, 0, 207]",207,l,0.3591335262026405,colour,0.5
109,19,0,1,1,39,39,69.23616075524478,70.16004178127332,"[44, 0, 210]",210,l,0.3910719475825317,colour,0.5
109,19,0,1,1,40,40,70.66964082348568,71.52804997841304,"[45, 0, 209]",209,l,0.32579255777818616,colour,0.5
109,19,0,1,1,41,41,72.036326994923,73.32021316661849,"[65, 0, 189]",189,a,0.7512718201614916,colour,0.5
109,19,0,1,1,42,42,73.83624653774314,74.64802902361407,"[70, 0, 184]",184,a,0.27909723706397926,colour,0.5
109,19,0,1,1,43,43,75.15382784344547,76.0880451150515,"[15, 0, 239]",239,l,0.40198050421167864,colour,0.5
109,19,0,1,1,44,44,76.60263680126809,77.45615115684632,"[7, 0, 247]",247,l,0.3205910715623759,colour,0.5
109,19,0,1,1,45,45,77.96897426075884,78.99211724934139,"[25, 0, 229]",229,l,0.48987869187112665,colour,0.5
109,19,0,1,1,46,46,79.50294592622959,80.4240468807402,"[84, 0, 170]",170,a,0.3884814701450523,colour,0.5
109,19,0,1,1,47,47,80.93643112730206,81.84002045434318,"[24, 0, 230]",230,l,0.37113473498175154,colour,0.5
109,19,0,1,1,48,48,82.35294108211383,84.07210798457527,"[19, 0, 235]",235,l,1.1865413228515536,colour,0.5
109,19,0,1,1,49,49,84.58584858266113,85.38403194419516,"[62, 0, 192]",192,a,0.26515902483515674,colour,0.5
109,19,0,1,1,50,50,85.88619575476332,86.76014135825972,"[83, 0, 171]",171,a,0.34127831961086486,colour,0.5
109,19,0,1,2,1,51,95.50233961014601,96.91212619330327,"[25, 0, 229]",229,l,0.8766210935136769,colour,0.5
109,19,0,1,2,2,52,97.41922618669196,98.80011106170423,"[28, 0, 226]",226,l,0.8479468340956373,colour,0.5
109,19,0,1,2,3,53,99.30288824599847,100.06405681277829,"[94, 0, 160]",160,a,0.22857763380307006,colour,0.5
109,19,0,1,2,4,54,100.56956177783286,101.1602012199437,"[29, 0, 225]",225,l,0.05805749159480911,colour,0.5
109,19,0,1,2,5,55,101.67019549042016,102.36809320970497,"[86, 0, 168]",168,a,0.1659576938909595,colour,0.5
109,19,0,1,2,6,56,102.88656692286168,103.44010270801664,"[80, 0, 174]",174,a,0.021277844825817738,colour,0.5
109,19,0,1,2,7,57,103.95266532058304,104.51205125392153,"[39, 0, 215]",215,l,0.026562097998976242,colour,0.5
109,19,0,1,2,8,58,105.01875088621455,106.53600330554764,"[55, 0, 199]",199,l,0.9838806538973586,colour,0.5
109,19,0,1,2,9,59,107.05210853635072,107.72806723756366,"[41, 0, 213]",213,l,0.1426106751387124,colour,0.5
109,19,0,1,2,10,60,108.2356843640373,109.15215165216068,"[88, 0, 166]",166,a,0.38333933232934214,colour,0.5
109,19,0,1,2,11,61,109.66933092859836,110.74402714499593,"[54, 0, 200]",200,l,0.5418977244262351,colour,0.5
109,19,0,1,2,12,62,111.25296565556346,111.90403107161546,"[43, 0, 211]",211,l,0.11855211720103398,colour,0.5
109,19,0,1,2,13,63,112.41940102387161,114.40808023646969,"[27, 0, 227]",227,l,1.455974715659977,colour,0.5
109,19,0,1,2,14,64,114.91912802123261,115.60004792784457,"[49, 0, 205]",205,l,0.14793695339903934,colour,0.5
109,19,0,1,2,15,65,116.1029537538052,117.08797614258219,"[35, 0, 219]",219,l,0.45250556110113394,colour,0.5
109,19,0,1,2,16,66,117.60211389375036,118.34406994000165,"[47, 0, 207]",207,l,0.2085878096477245,colour,0.5
109,19,0,1,2,17,67,118.85264337771514,119.6482012943743,"[38, 0, 216]",216,l,0.2627712943649385,colour,0.5
109,19,0,1,2,18,68,120.15207145162276,120.6880587170599,"[75, 0, 179]",179,a,0.0026353897410444915,colour,0.5
109,19,0,1,2,19,69,121.2028438469788,122.09612419662881,"[18, 0, 236]",236,l,0.3606993615394458,colour,0.5
109,19,0,1,2,20,70,122.60294701695966,123.15221260457474,"[70, 0, 184]",184,a,0.016775065720139537,colour,0.5
109,19,0,1,2,21,71,123.66911534954852,124.51206216119317,"[31, 0, 223]",223,l,0.3099904850096209,colour,0.5
109,19,0,1,2,22,72,125.01903736254462,125.74419684933673,"[23, 0, 231]",231,l,0.19213001726166112,colour,0.5
109,19,0,1,2,23,73,126.25224417150457,127.33616665800218,"[57, 0, 197]",197,a,0.5507473727921024,colour,0.5
109,19,0,1,2,24,74,127.85256734760333,128.43207944601454,"[4, 0, 250]",250,l,0.046680884617671836,colour,0.5
109,19,0,1,2,25,75,128.9360836985652,130.33607747500355,"[93, 0, 161]",161,a,0.8673447782712174,colour,0.5
109,19,0,1,2,26,76,130.85237358309678,131.8880214398523,"[16, 0, 238]",238,l,0.5026347481398261,colour,0.5
109,19,0,1,2,27,77,132.40207834886678,133.34407988486782,"[90, 0, 164]",164,a,0.40868623174901586,colour,0.5
109,19,0,1,2,28,78,133.8524069465202,134.99208613153314,"[64, 0, 190]",190,a,0.6067106678965501,colour,0.5
109,19,0,1,2,29,79,135.50210799098568,136.52007868634973,"[10, 0, 244]",244,l,0.484703511436237,colour,0.5
109,19,0,1,2,30,80,137.0360636163532,138.5600843196371,"[84, 0, 170]",170,a,0.9913883868284756,colour,0.5
109,19,0,1,2,31,81,139.06921755711664,139.61610760474287,"[95, 0, 159]",159,a,0.014030603240826167,colour,0.5
109,19,0,1,2,32,82,140.11872823758313,141.1360765767604,"[74, 0, 180]",180,a,0.48402533567423234,colour,0.5
109,19,0,1,2,33,83,141.65337005876063,142.28008562851028,"[11, 0, 243]",243,l,0.09472485761216376,colour,0.5
109,19,0,1,2,34,84,142.785382713766,143.38419523249468,"[89, 0, 165]",165,a,0.06549464805721072,colour,0.5
109,19,0,1,2,35,85,143.88650725365733,145.48804594913236,"[15, 0, 239]",239,l,1.0693766749827773,colour,0.5
109,19,0,1,2,36,86,146.00283172065974,146.93606380883284,"[0, 0, 254]",254,l,0.4006918419399881,colour,0.5
109,19,0,1,2,37,87,147.45233072392875,148.29612445327075,"[79, 0, 175]",175,a,0.31078094153053826,colour,0.5
109,19,0,1,2,38,88,148.80337522368063,149.49623955708375,"[73, 0, 181]",181,a,0.16087618768506218,colour,0.5
109,19,0,1,2,39,89,150.00198031173204,150.88814077825373,"[8, 0, 246]",246,l,0.3528223853209056,colour,0.5
109,19,0,1,2,40,90,151.40234461466025,152.2721489830874,"[87, 0, 167]",167,a,0.3368185279905447,colour,0.5
109,19,0,1,2,41,91,152.78520563097845,154.20007981557865,"[48, 0, 206]",206,l,0.881417406599212,colour,0.5
109,19,0,1,2,42,92,154.70277840334165,155.42408216898184,"[85, 0, 169]",169,a,0.1887612737918971,colour,0.5
109,19,0,1,2,43,93,155.9359977235872,156.54414879317483,"[91, 0, 163]",163,a,0.07550399623141857,colour,0.5
109,19,0,1,2,44,94,157.05267635617201,158.0560649893814,"[6, 0, 248]",248,l,0.4707524671248393,colour,0.5
109,19,0,1,2,45,95,158.56907640416466,159.8480575108406,"[63, 0, 191]",191,a,0.7460834868325037,colour,0.5
109,19,0,1,2,46,96,160.35248843026784,161.01607507540757,"[99, 0, 155]",155,a,0.13078879476961447,colour,0.5
109,19,0,1,2,47,97,161.51931293159578,163.16015759084985,"[60, 0, 194]",194,l,1.1081873202274437,colour,0.5
109,19,0,1,2,48,98,163.66886384065583,165.06411199075228,"[21, 0, 233]",233,l,0.8621554825440398,colour,0.5
109,19,0,1,2,49,99,165.5688037223299,166.1760931173194,"[36, 0, 218]",218,l,0.07414251186855836,colour,0.5
109,19,0,1,2,50,100,166.68593308194977,167.29615107984864,"[56, 0, 198]",198,l,0.07754846839088714,colour,0.5
109,19,0,1,3,1,101,174.85212047019013,176.90417864060873,"[40, 0, 214]",214,a,1.5189199489541352,colour,0.5
109,19,0,1,3,2,102,177.4187975950117,177.9680939796308,"[10, 0, 244]",244,l,0.016179015299712773,colour,0.5
109,19,0,1,3,3,103,178.48636270020506,179.32825728076568,"[65, 0, 189]",189,a,0.3096799485210795,colour,0.5
109,19,0,1,3,4,104,179.83706490405166,180.3840945006159,"[17, 0, 237]",237,l,0.015479345791391097,colour,0.5
109,19,0,1,3,5,105,180.88566771440674,181.44023584091337,"[55, 0, 199]",199,l,0.021670506670488976,colour,0.5
109,19,0,1,3,6,106,181.95201858342625,182.6081064780883,"[38, 0, 216]",216,l,0.12283995886537014,colour,0.5
109,19,0,1,3,7,107,183.11923991702497,184.52008285678312,"[99, 0, 155]",155,a,0.8681920167728094,colour,0.5
109,19,0,1,3,8,108,185.03601774164417,185.6240991073355,"[16, 0, 238]",238,l,0.05553309940296458,colour,0.5
109,19,0,1,3,9,109,186.1359604463796,187.29608050337993,"[81, 0, 173]",173,a,0.6275053846693481,colour,0.5
109,19,0,1,3,10,110,187.80308329371474,188.3761629880246,"[34, 0, 220]",220,l,0.04095103724830551,colour,0.5
109,19,0,1,3,11,111,188.88595130351314,189.80809614825557,"[44, 0, 210]",210,l,0.389534022033331,colour,0.5
109,19,0,1,3,12,112,190.31952761240245,190.92008304926276,"[61, 0, 193]",193,l,0.06818297015706776,colour,0.5
109,19,0,1,3,13,113,191.436534104796,193.51225785051065,"[35, 0, 219]",219,l,1.5437301463607582,colour,0.5
109,19,0,1,3,14,114,194.01973542803898,195.06408343935618,"[6, 0, 248]",248,l,0.5122209582623327,colour,0.5
109,19,0,1,3,15,115,195.5690767249689,196.60004889025004,"[52, 0, 202]",202,l,0.49817784373590257,colour,0.5
109,19,0,1,3,16,116,197.10268716720748,198.18417733173555,"[24, 0, 230]",230,l,0.5489787904880359,colour,0.5
109,19,0,1,3,17,117,198.68573995905172,199.8320507663011,"[41, 0, 213]",213,l,0.6135203353260295,colour,0.5
109,19,0,1,3,18,118,200.3356084622501,201.3921350859382,"[29, 0, 225]",225,l,0.5236200213912525,colour,0.5
109,19,0,1,3,19,119,201.90247165231995,202.85620364007627,"[13, 0, 241]",241,l,0.4210265284127672,colour,0.5
109,19,0,1,3,20,120,203.3693793055645,204.24002096762706,"[93, 0, 161]",161,a,0.3381806539618992,colour,0.5
109,19,0,1,3,21,121,204.7524542969186,205.5440435700657,"[4, 0, 250]",250,l,0.2588636032596696,colour,0.5
109,19,0,1,3,22,122,206.05270266195294,206.88807052258198,"[5, 0, 249]",249,l,0.30291455177939497,colour,0.5
109,19,0,1,3,23,123,207.40291083047487,208.00009752385813,"[91, 0, 163]",163,a,0.06493003625655547,colour,0.5
109,19,0,1,3,24,124,208.5029109587922,209.08021818396082,"[22, 0, 232]",232,l,0.04505281365709379,colour,0.5
109,19,0,1,3,25,125,209.58593552005186,210.2481780041344,"[50, 0, 204]",204,l,0.1296467390784528,colour,0.5
109,19,0,1,3,26,126,210.75265768548707,212.3040870836703,"[7, 0, 247]",247,l,1.0189282898136298,colour,0.5
109,19,0,1,3,27,127,212.8187666696831,213.88014478443074,"[89, 0, 165]",165,a,0.5283242642544792,colour,0.5
109,19,0,1,3,28,128,214.38605524341256,216.80819431371492,"[23, 0, 231]",231,l,1.8897018015559297,colour,0.5
109,19,0,1,3,29,129,217.31917890045588,218.37608246668242,"[82, 0, 172]",172,a,0.5242600216952269,colour,0.5
109,19,0,1,3,30,130,218.8849632328638,219.48010609568883,"[62, 0, 192]",192,l,0.061610696313437074,colour,0.5
109,19,0,1,3,31,131,219.987199031435,220.79210319820413,"[68, 0, 186]",186,a,0.2736516204022337,colour,0.5
109,19,0,1,3,32,132,221.30239581468777,222.32818927070912,"[47, 0, 207]",207,l,0.4930571996665094,colour,0.5
109,19,0,1,3,33,133,222.83537299346062,223.5682163335805,"[83, 0, 171]",171,a,0.19975837181846146,colour,0.5
109,19,0,1,3,34,134,224.08638111424807,226.03208759438712,"[39, 0, 215]",215,l,1.4136233769822866,colour,0.5
109,19,0,1,3,35,135,226.53541784160188,227.17610819501715,"[66, 0, 188]",188,a,0.10767018714977894,colour,0.5
109,19,0,1,3,36,136,227.68564885124215,228.23210485354502,"[32, 0, 222]",222,l,0.013667776001966558,colour,0.5
109,19,0,1,3,37,137,228.73554192788288,229.6481008832925,"[8, 0, 246]",246,l,0.3796536363224732,colour,0.5
109,19,0,1,3,38,138,230.15185908059357,231.56014623445662,"[28, 0, 226]",226,l,0.8750417844785261,colour,0.5
109,19,0,1,3,39,139,232.0696451863987,232.97610473035456,"[74, 0, 180]",180,a,0.374336019733164,colour,0.5
109,19,0,1,3,40,140,233.48595688547357,234.44828155907453,"[33, 0, 221]",221,l,0.4298485878025531,colour,0.5
109,19,0,1,3,41,141,234.95181840287842,235.8162406734773,"[86, 0, 168]",168,a,0.3311499538322096,colour,0.5
109,19,0,1,3,42,142,236.31984456493956,236.94410503575637,"[87, 0, 167]",167,a,0.09236407451680861,colour,0.5
109,19,0,1,3,43,143,237.45207664861664,238.02416346024984,"[63, 0, 191]",191,l,0.03901660023257136,colour,0.5
109,19,0,1,3,44,144,238.53613611764013,239.11278698159003,"[60, 0, 194]",194,l,0.044377845915732905,colour,0.5
109,19,0,1,3,45,145,239.61915105483058,241.24019708801643,"[90, 0, 164]",164,l,1.0884342480712803,colour,0.5
109,19,0,1,3,46,146,241.75263619174075,242.58409860688698,"[95, 0, 159]",159,a,0.29902546720404644,colour,0.5
109,19,0,1,3,47,147,243.08531380546628,243.784143134224,"[15, 0, 239]",239,l,0.16573249077919172,colour,0.5
109,19,0,1,3,48,148,244.28601597723173,245.19221406742872,"[57, 0, 197]",197,a,0.3738095833832631,colour,0.5
109,19,0,1,3,49,149,245.70269306996488,247.63213520142745,"[73, 0, 181]",181,a,1.3970587574804085,colour,0.5
109,19,0,1,3,50,150,248.13550266169477,249.37611775492405,"[77, 0, 177]",177,a,0.7077033580935677,colour,0.5
109,19,0,1,4,1,151,253.86836974116886,254.7601294885826,"[49, 0, 205]",205,l,0.35842327021964593,colour,0.5
109,19,0,1,4,2,152,255.26848959285417,256.0241339464483,"[27, 0, 227]",227,l,0.22243010201782454,colour,0.5
109,19,0,1,4,3,153,256.5349209190608,257.1201343134453,"[5, 0, 249]",249,l,0.05176752365514403,colour,0.5
109,19,0,1,4,4,154,257.6363746019633,258.6241292627383,"[56, 0, 198]",198,l,0.4557677982666064,colour,0.5
109,19,0,1,4,5,155,259.13570540866203,259.7122372550075,"[78, 0, 176]",176,a,0.04387579053582158,colour,0.5
109,19,0,1,4,6,156,260.21896992992697,261.36822441779077,"[92, 0, 162]",162,l,0.6160832237801515,colour,0.5
109,19,0,1,4,7,157,261.88562568931957,262.4801349678819,"[85, 0, 169]",169,a,0.061781042255461216,colour,0.5
109,19,0,1,4,8,158,262.9852883337735,263.9042360641906,"[2, 0, 252]",252,l,0.38591312805510825,colour,0.5
109,19,0,1,4,9,159,264.4188582266215,264.984141786852,"[12, 0, 242]",242,l,0.03246261210733792,colour,0.5
109,19,0,1,4,10,160,265.485974850395,266.5761144827411,"[60, 0, 194]",194,a,0.5577825641448726,colour,0.5
109,19,0,1,4,11,161,267.0851078504784,268.9681834834337,"[62, 0, 192]",192,l,1.3498453412757954,colour,0.5
109,19,0,1,4,12,162,269.4857156422513,270.0882456163963,"[35, 0, 219]",219,l,0.06991594341525342,colour,0.5
109,19,0,1,4,13,163,270.6020837383476,271.53613804245106,"[59, 0, 195]",195,l,0.401157325868553,colour,0.5
109,19,0,1,4,14,164,272.0521874536862,273.0720512025873,"[58, 0, 196]",196,l,0.4870610865036724,colour,0.5
109,19,0,1,4,15,165,273.5855720512045,274.1361234138749,"[41, 0, 213]",213,l,0.01725017371791182,colour,0.5
109,19,0,1,4,16,166,274.65270503588545,275.52025801475975,"[19, 0, 235]",235,l,0.33529086811176967,colour,0.5
109,19,0,1,4,17,167,276.03517274875776,276.84015615365934,"[43, 0, 211]",211,l,0.2718419754237402,colour,0.5
109,19,0,1,4,18,168,277.35207202906895,278.06422940434277,"[63, 0, 191]",191,l,0.17923665767739294,colour,0.5
109,19,0,1,4,19,169,278.56824552657054,279.18411734172696,"[72, 0, 182]",182,a,0.08247727276466321,colour,0.5
109,19,0,1,4,20,170,279.6848490914563,280.6402383431705,"[36, 0, 218]",218,l,0.42194145617395407,colour,0.5
109,19,0,1,4,21,171,281.1532834421814,281.99215863282006,"[10, 0, 244]",244,l,0.30718924055690877,colour,0.5
109,19,0,1,4,22,172,282.50235115902615,283.17627437054034,"[11, 0, 243]",243,l,0.14130950158869382,colour,0.5
109,19,0,1,4,23,173,283.6852035778429,284.2482434477788,"[81, 0, 173]",173,a,0.02993533270637272,colour,0.5
109,19,0,1,4,24,174,284.7532482822644,285.48814315218624,"[48, 0, 206]",206,l,0.20267991707805777,colour,0.5
109,19,0,1,4,25,175,286.0020149583652,287.304268016087,"[45, 0, 209]",209,l,0.7693281696992926,colour,0.5
109,19,0,1,4,26,176,287.81837047901354,288.97616760757955,"[29, 0, 225]",225,l,0.6245543256009114,colour,0.5
109,19,0,1,4,27,177,289.4848728949728,290.0241467785381,"[97, 0, 157]",157,a,0.005856564224814065,colour,0.5
109,19,0,1,4,28,178,290.5348086383019,292.1682677902427,"[54, 0, 200]",200,l,1.1000017323312932,colour,0.5
109,19,0,1,4,29,179,292.68537937742803,293.2322719914664,"[32, 0, 222]",222,l,0.013996598208905198,colour,0.5
109,19,0,1,4,30,180,293.73572927634086,294.8081134715758,"[87, 0, 167]",167,a,0.5398625555244507,colour,0.5
109,19,0,1,4,31,181,295.3180031605443,296.0481925043932,"[68, 0, 186]",186,a,0.19655676626280183,colour,0.5
109,19,0,1,4,32,182,296.5518438745712,297.5840572234083,"[89, 0, 165]",165,a,0.49912934294115985,colour,0.5
109,19,0,1,4,33,183,298.0864016455889,298.93621683146193,"[7, 0, 247]",247,l,0.3173054158469313,colour,0.5
109,19,0,1,4,34,184,299.45259827293194,300.5122254494927,"[46, 0, 208]",208,l,0.5273108502369723,colour,0.5
109,19,0,1,4,35,185,301.0187024450861,302.2242865841181,"[65, 0, 189]",189,l,0.6727115417597815,colour,0.5
109,19,0,1,4,36,186,302.735108844965,303.3761536847669,"[14, 0, 240]",240,l,0.10791945042728912,colour,0.5
109,19,0,1,4,37,187,303.8849542504031,304.51223539435887,"[1, 0, 253]",253,l,0.09400209035084117,colour,0.5
109,19,0,1,4,38,188,305.0181946152734,306.74424304485,"[31, 0, 223]",223,l,1.1926766641481663,colour,0.5
109,19,0,1,4,39,189,307.25176040185033,307.82421164473635,"[93, 0, 161]",161,a,0.03932489110593451,colour,0.5
109,19,0,1,4,40,190,308.33860507521604,308.93613983894465,"[6, 0, 248]",248,l,0.06791670436359709,colour,0.5
109,19,0,1,4,41,191,309.45223352087487,310.0801559483443,"[75, 0, 179]",179,a,0.0952650884501054,colour,0.5
109,19,0,1,4,42,192,310.58562370034633,311.232127951298,"[69, 0, 185]",185,a,0.11339265606511617,colour,0.5
109,19,0,1,4,43,193,311.73641450975265,312.2882859733072,"[70, 0, 184]",184,a,0.02006489185441751,colour,0.5
109,19,0,1,4,44,194,312.8026720253474,313.7680773620814,"[0, 0, 254]",254,l,0.43319359191082185,colour,0.5
109,19,0,1,4,45,195,314.2849874855092,315.06412193561846,"[17, 0, 237]",237,l,0.24590864966012305,colour,0.5
109,19,0,1,4,46,196,315.56829493010446,316.1681901561242,"[71, 0, 183]",183,a,0.06665081904066028,colour,0.5
109,19,0,1,4,47,197,316.68645470626507,317.66417018426,"[50, 0, 204]",204,l,0.4459753123446717,colour,0.5
109,19,0,1,4,48,198,318.16835953966074,319.0721336487477,"[25, 0, 229]",229,l,0.37061503548466135,colour,0.5
109,19,0,1,4,49,199,319.58526183551294,320.2722885320254,"[86, 0, 168]",168,a,0.15407486110780155,colour,0.5
109,19,0,1,4,50,200,320.7849477060372,321.5042272100545,"[83, 0, 171]",171,a,0.18603477624128573,colour,0.5
109,19,0,1,5,1,201,330.08501449704636,332.7041764591486,"[78, 0, 176]",176,a,2.0859810739493696,colour,0.5
109,19,0,1,5,2,202,333.2183982604838,333.84816658357886,"[80, 0, 174]",174,a,0.09667052271106513,colour,0.5
109,19,0,1,5,3,203,334.35190649515425,335.0802281288343,"[95, 0, 159]",159,a,0.1954214474244509,colour,0.5
109,19,0,1,5,4,204,335.58561311387894,336.15229505072784,"[75, 0, 179]",179,a,0.03410928959783632,colour,0.5
109,19,0,1,5,5,205,336.66885870782426,337.54418857263954,"[14, 0, 240]",240,l,0.34268022504693363,colour,0.5
109,19,0,1,5,6,206,338.0522317243813,339.0402141546874,"[26, 0, 228]",228,l,0.4554104246562929,colour,0.5
109,19,0,1,5,7,207,339.55304752427037,340.6082441022154,"[8, 0, 246]",246,l,0.5234342769472278,colour,0.5
109,19,0,1,5,8,208,341.1194186038265,341.68013779094326,"[72, 0, 182]",182,a,0.02866656015976332,colour,0.5
109,19,0,1,5,9,209,342.18562190386,342.8242719555419,"[4, 0, 250]",250,l,0.1061473393056076,colour,0.5
109,19,0,1,5,10,210,343.3351930234494,343.97616119153827,"[68, 0, 186]",186,a,0.10802788155706367,colour,0.5
109,19,0,1,5,11,211,344.4855523539518,345.1201564488001,"[39, 0, 215]",215,l,0.10204556288954336,colour,0.5
109,19,0,1,5,12,212,345.6357471129377,346.6961342698196,"[24, 0, 230]",230,l,0.528006990920403,colour,0.5
109,19,0,1,5,13,213,347.20181663846597,348.2163197832924,"[19, 0, 235]",235,l,0.4815294948712108,colour,0.5
109,19,0,1,5,14,214,348.7190491680667,349.47223778112675,"[33, 0, 221]",221,l,0.22077861250727437,colour,0.5
109,19,0,1,5,15,215,349.98474553651613,351.5761635654708,"[30, 0, 224]",224,l,1.0580584540002747,colour,0.5
109,19,0,1,5,16,216,352.0857250738336,352.7921586969751,"[48, 0, 206]",206,l,0.17401977295958204,colour,0.5
109,19,0,1,5,17,217,353.3014478443074,354.1761547113347,"[56, 0, 198]",198,l,0.34133478079456836,colour,0.5
109,19,0,1,5,18,218,354.68547497646796,356.2002777505113,"[36, 0, 218]",218,l,0.9821775152377086,colour,0.5
109,19,0,1,5,19,219,356.7029926991818,357.4003440923989,"[66, 0, 188]",188,a,0.16557369371003006,colour,0.5
109,19,0,1,5,20,220,357.9019217974128,359.10415323307825,"[73, 0, 181]",181,a,0.6693800113353063,colour,0.5
109,19,0,1,5,21,221,359.61844785649737,360.5201425259802,"[9, 0, 245]",245,l,0.3687216611360782,colour,0.5
109,19,0,1,5,22,222,361.0357989545664,362.2321587483093,"[3, 0, 251]",251,l,0.6640639987526811,colour,0.5
109,19,0,1,5,23,223,362.73511846902693,363.5121728379381,"[31, 0, 223]",223,l,0.24410862874356098,colour,0.5
109,19,0,1,5,24,224,364.0190864452743,364.61618812608504,"[27, 0, 227]",227,l,0.06478567528392887,colour,0.5
109,19,0,1,5,25,225,365.11910165129666,366.2961777064338,"[74, 0, 180]",180,a,0.6447472175277653,colour,0.5
109,19,0,1,5,26,226,366.8020002656267,367.59229093162867,"[16, 0, 238]",238,l,0.2575062893301947,colour,0.5
109,19,0,1,5,27,227,368.1018511567818,369.0082869613834,"[38, 0, 216]",216,l,0.37354684642195934,colour,0.5
109,19,0,1,5,28,228,369.5189751269281,370.28817176774464,"[88, 0, 166]",166,a,0.2367446151765762,colour,0.5
109,19,0,1,5,29,229,370.8021196040281,371.5682294864673,"[77, 0, 177]",177,a,0.2335144582320936,colour,0.5
109,19,0,1,5,30,230,372.0855050035534,372.912297822455,"[89, 0, 165]",165,a,0.2942384573761956,colour,0.5
109,19,0,1,5,31,231,373.4186599708846,374.2081605011699,"[28, 0, 226]",226,l,0.25674855462420965,colour,0.5
109,19,0,1,5,32,232,374.7185269021502,375.38420229014446,"[11, 0, 243]",243,l,0.13279605387651827,colour,0.5
109,19,0,1,5,33,233,375.90178673970513,376.5203545762124,"[65, 0, 189]",189,a,0.08565802618250018,colour,0.5
109,19,0,1,5,34,234,377.03511853318923,377.7843134801733,"[44, 0, 210]",210,l,0.21626620933238883,colour,0.5
109,19,0,1,5,35,235,378.3017253381695,379.15221260457474,"[59, 0, 195]",195,l,0.317509125219658,colour,0.5
109,19,0,1,5,36,236,379.668810908297,380.54430213660817,"[21, 0, 233]",233,l,0.3428983705161954,colour,0.5
109,19,0,1,5,37,237,381.05202641100186,382.2162995727558,"[60, 0, 194]",194,l,0.6315891961567104,colour,0.5
109,19,0,1,5,38,238,382.71948417578824,383.5043083729979,"[96, 0, 158]",158,a,0.2529582771094283,colour,0.5
109,19,0,1,5,39,239,384.01876692632504,384.8561936952101,"[79, 0, 175]",175,a,0.3048473847884452,colour,0.5
109,19,0,1,5,40,240,385.3687117162699,386.55222562913696,"[69, 0, 185]",185,l,0.6508684435248142,colour,0.5
109,19,0,1,5,41,241,387.06855670466757,387.8643237843353,"[41, 0, 213]",213,l,0.26299232705059694,colour,0.5
109,19,0,1,5,42,242,388.36826323485,389.7602902104627,"[64, 0, 190]",190,a,0.8589577266175183,colour,0.5
109,19,0,1,5,43,243,390.2680792868923,390.98422936584393,"[42, 0, 212]",212,l,0.18289668951183558,colour,0.5
109,19,0,1,5,44,244,391.5020104671348,393.50421084914706,"[34, 0, 220]",220,l,1.4695273236866342,colour,0.5
109,19,0,1,5,45,245,394.01840794870805,394.9123388851367,"[5, 0, 249]",249,l,0.3610224093135912,colour,0.5
109,19,0,1,5,46,246,395.41829393561784,396.2002379710393,"[86, 0, 168]",168,a,0.24890814984973986,colour,0.5
109,19,0,1,5,47,247,396.70268280429445,397.6722646643466,"[76, 0, 178]",178,a,0.4376180952967843,colour,0.5
109,19,0,1,5,48,248,398.1846428156641,399.10418531329196,"[61, 0, 193]",193,a,0.386147313634865,colour,0.5
109,19,0,1,5,49,249,399.6180779716087,400.50418582657585,"[67, 0, 187]",187,a,0.3528656936105108,colour,0.5
109,19,0,1,5,50,250,401.0186841593677,401.80825269970956,"[52, 0, 202]",202,l,0.2569009356520837,colour,0.5
109,19,0,1,6,1,251,406.70166874867573,407.5041861473801,"[39, 0, 215]",215,l,0.26952385902404785,colour,0.5
109,19,0,1,6,2,252,408.0189221945693,408.8081914264985,"[95, 0, 159]",159,a,0.25690991811279673,colour,0.5
109,19,0,1,6,3,253,409.3186976972138,410.16027147561545,"[99, 0, 155]",155,a,0.3089494819942047,colour,0.5
109,19,0,1,6,4,254,410.6681978553752,411.7442555561356,"[67, 0, 187]",187,a,0.5429733740675147,colour,0.5
109,19,0,1,6,5,255,412.25195288314717,412.96820946841035,"[5, 0, 249]",249,l,0.18360052945354255,colour,0.5
109,19,0,1,6,6,256,413.48530405307974,414.4083490686753,"[69, 0, 185]",185,a,0.39040788711281493,colour,0.5
109,19,0,1,6,7,257,414.9184386173947,415.65631341857807,"[13, 0, 241]",241,l,0.20503235931391828,colour,0.5
109,19,0,1,6,8,258,416.1680567024232,417.5523706317181,"[29, 0, 225]",225,l,0.8510906952651567,colour,0.5
109,19,0,1,6,9,259,418.0684161933241,419.3202712318089,"[94, 0, 160]",160,a,0.71901387982507,colour,0.5
109,19,0,1,6,10,260,419.83572619663755,420.408180005943,"[55, 0, 199]",199,l,0.04023372362280497,colour,0.5
109,19,0,1,6,11,261,420.9187738556502,422.48823458080733,"[76, 0, 178]",178,a,1.0369644288148265,colour,0.5
109,19,0,1,6,12,262,423.00185102845717,423.64025951611256,"[36, 0, 218]",218,l,0.10565939921070822,colour,0.5
109,19,0,1,6,13,263,424.15168392261694,424.7283729620249,"[9, 0, 245]",245,l,0.043793344382720534,colour,0.5
109,19,0,1,6,14,264,425.23481851901306,426.35219489629526,"[12, 0, 242]",242,l,0.5842769728842541,colour,0.5
109,19,0,1,6,15,265,426.8684663026215,427.79219591002766,"[58, 0, 196]",196,a,0.39094683474104386,colour,0.5
109,19,0,1,6,16,266,428.30162075666885,429.08020471026975,"[11, 0, 243]",243,l,0.24562794777011732,colour,0.5
109,19,0,1,6,17,267,429.5851120209045,430.416261974744,"[56, 0, 198]",198,a,0.29834953704994405,colour,0.5
109,19,0,1,6,18,268,430.91783005569596,431.7042194466412,"[73, 0, 181]",181,a,0.25297880845027976,colour,0.5
109,19,0,1,6,19,269,432.2184348319279,433.3281921579255,"[17, 0, 237]",237,l,0.5769565884111216,colour,0.5
109,19,0,1,6,20,270,433.8347897751373,434.6242120296956,"[37, 0, 217]",217,l,0.25631483010511147,colour,0.5
109,19,0,1,6,21,271,435.1352132981483,436.00030572445394,"[38, 0, 216]",216,l,0.33241038551932434,colour,0.5
109,19,0,1,6,22,272,436.50165084790933,437.4003168242125,"[31, 0, 223]",223,l,0.36577348929859,colour,0.5
109,19,0,1,6,23,273,437.9011541178479,438.6802577709532,"[30, 0, 224]",224,l,0.24571456435660366,colour,0.5
109,19,0,1,6,24,274,439.18592891152366,439.9762154070995,"[66, 0, 188]",188,a,0.2583320340854698,colour,0.5
109,19,0,1,6,25,275,440.4846159324443,441.304229840629,"[4, 0, 250]",250,l,0.2863184936650214,colour,0.5
109,19,0,1,6,26,276,441.81795760663226,442.6002169905769,"[25, 0, 229]",229,l,0.24897680150752421,colour,0.5
109,19,0,1,6,27,277,443.11834455819917,443.9603745172717,"[1, 0, 253]",253,l,0.30916955228167353,colour,0.5
109,19,0,1,6,28,278,444.467916576039,445.17624934796913,"[60, 0, 194]",194,a,0.1750206756987609,colour,0.5
109,19,0,1,6,29,279,445.68451674041717,446.9843621779364,"[41, 0, 213]",213,l,0.7664942034243722,colour,0.5
109,19,0,1,6,30,280,447.5019148680876,448.2962120322627,"[71, 0, 183]",183,a,0.26166260210447945,colour,0.5
109,19,0,1,6,31,281,448.8016419296109,449.6482369034129,"[86, 0, 168]",168,a,0.3137169228939456,colour,0.5
109,19,0,1,6,32,282,450.1511225188369,450.90426108676184,"[26, 0, 228]",228,l,0.2197379303033813,colour,0.5
109,19,0,1,6,33,283,451.4193060664329,452.1683380459144,"[87, 0, 167]",167,a,0.21715258569747675,colour,0.5
109,19,0,1,6,34,284,452.6849649010328,453.4322748145278,"[65, 0, 189]",189,a,0.21442801295779645,colour,0.5
109,19,0,1,6,35,285,453.93481203880947,454.64822695854673,"[96, 0, 158]",158,a,0.1803742221381981,colour,0.5
109,19,0,1,6,36,286,455.1516460679559,455.9523073053715,"[10, 0, 244]",244,l,0.26779858500958653,colour,0.5
109,19,0,1,6,37,287,456.46847348858864,457.2562259679107,"[74, 0, 180]",180,a,0.25502392221824266,colour,0.5
109,19,0,1,6,38,288,457.76824867043615,458.8402389206167,"[85, 0, 169]",169,a,0.5390852518903557,colour,0.5
109,19,0,1,6,39,289,459.35212431981927,460.2163255577325,"[79, 0, 175]",175,a,0.3318130519037368,colour,0.5
109,19,0,1,6,40,290,460.71830683187,461.58423302298615,"[49, 0, 205]",205,l,0.3330625763046555,colour,0.5
109,19,0,1,6,41,291,462.10131573797844,463.176199302834,"[70, 0, 184]",184,a,0.5417216040368658,colour,0.5
109,19,0,1,6,42,292,463.6845109659771,464.36021687508764,"[22, 0, 232]",232,l,0.1423983041095198,colour,0.5
109,19,0,1,6,43,293,464.8689783028676,465.6482016151713,"[88, 0, 166]",166,a,0.2470484597288305,colour,0.5
109,19,0,1,6,44,294,466.1516046844845,466.71226805201877,"[50, 0, 204]",204,l,0.027751311601605266,colour,0.5
109,19,0,1,6,45,295,467.2177354832238,467.8322239994668,"[72, 0, 182]",182,a,0.0810971818791586,colour,0.5
109,19,0,1,6,46,296,468.3356819259425,469.4081729482932,"[35, 0, 219]",219,l,0.5403604404709768,colour,0.5
109,19,0,1,6,47,297,469.9181762012304,470.75235260263435,"[34, 0, 220]",220,l,0.3012226411883603,colour,0.5
109,19,0,1,6,48,298,471.26914050043706,472.0962768984609,"[14, 0, 240]",240,l,0.2951427986699855,colour,0.5
109,19,0,1,6,49,299,472.6025912473633,473.3762184868028,"[62, 0, 192]",192,a,0.24173822158627445,colour,0.5
109,19,0,1,6,50,300,473.8851980600448,474.74423662880145,"[24, 0, 230]",230,l,0.3264444277592702,colour,0.5
109,19,0,1,7,1,301,479.88480924782925,480.78424001647363,"[39, 0, 215]",215,l,0.3664654595486354,colour,0.5
109,19,0,1,7,2,302,481.30194476684846,481.9602343267252,"[27, 0, 227]",227,l,0.1258051332188188,colour,0.5
109,19,0,1,7,3,303,482.46815717766003,483.37624639659043,"[3, 0, 251]",251,l,0.3751582356635481,colour,0.5
109,19,0,1,7,4,304,483.88523527309735,484.8562405323246,"[94, 0, 160]",160,a,0.43847527866455493,colour,0.5
109,19,0,1,7,5,305,485.36853527508356,486.20832154385425,"[60, 0, 194]",194,a,0.30669360121828504,colour,0.5
109,19,0,1,7,6,306,486.71779322760995,487.6242380146723,"[45, 0, 209]",209,l,0.3731573925979319,colour,0.5
109,19,0,1,7,7,307,488.1351876339759,488.7922360102966,"[9, 0, 245]",245,l,0.12444396965292981,colour,0.5
109,19,0,1,7,8,308,489.301452977139,489.90428322210937,"[22, 0, 232]",232,l,0.06986269025946967,colour,0.5
109,19,0,1,7,9,309,490.4184806424746,492.1202167596057,"[0, 0, 254]",254,l,1.1691281816383707,colour,0.5
109,19,0,1,7,10,310,492.6352517944033,493.64025245847006,"[55, 0, 199]",199,a,0.47246041782636894,colour,0.5
109,19,0,1,7,11,311,494.15132205777627,495.3602367648273,"[53, 0, 201]",201,l,0.6758438540418865,colour,0.5
109,19,0,1,7,12,312,495.86810379617964,496.4563522997996,"[6, 0, 248]",248,l,0.0552847985381959,colour,0.5
109,19,0,1,7,13,313,496.96921871200175,497.6642580840562,"[85, 0, 169]",169,a,0.16319590810599038,colour,0.5
109,19,0,1,7,14,314,498.1678549178614,500.40026902469253,"[2, 0, 252]",252,l,1.6986586620114394,colour,0.5
109,19,0,1,7,15,315,500.9177139253152,502.02432674854936,"[96, 0, 158]",158,a,0.5732676843836089,colour,0.5
109,19,0,1,7,16,316,502.5348070342952,503.22431898513605,"[7, 0, 247]",247,l,0.15661304779496277,colour,0.5
109,19,0,1,7,17,317,503.7353651658923,504.55225289732334,"[77, 0, 177]",177,a,0.28455023216520203,colour,0.5
109,19,0,1,7,18,318,505.0680918623402,505.65631438098353,"[38, 0, 216]",216,l,0.05523186617938336,colour,0.5
109,19,0,1,7,19,319,506.16810033151705,507.55236164925736,"[11, 0, 243]",243,l,0.851338354528707,colour,0.5
109,19,0,1,7,20,320,508.06819066940807,509.02419008682773,"[15, 0, 239]",239,l,0.42309602314344374,colour,0.5
109,19,0,1,7,21,321,509.5345991544964,510.1522610456959,"[87, 0, 167]",167,a,0.08452206572837895,colour,0.5
109,19,0,1,7,22,322,510.6675629879028,511.60024778758816,"[74, 0, 180]",180,a,0.3992148687975714,colour,0.5
109,19,0,1,7,23,323,512.1016054223292,513.6964002148088,"[90, 0, 164]",164,a,1.0615510271090898,colour,0.5
109,19,0,1,7,24,324,514.200934432527,515.0242218462445,"[78, 0, 176]",176,a,0.28981138757808367,colour,0.5
109,19,0,1,7,25,325,515.536030894531,516.4563539038063,"[63, 0, 191]",191,l,0.3886678561975714,colour,0.5
109,19,0,1,7,26,326,516.9686877844288,518.2483595781596,"[44, 0, 210]",210,a,0.7473493721627165,colour,0.5
109,19,0,1,7,27,327,518.7514947776581,519.6162497201003,"[65, 0, 189]",189,a,0.33188940281252144,colour,0.5
109,19,0,1,7,28,328,520.1193432153232,521.5282389308777,"[13, 0, 241]",241,l,0.8772360712464433,colour,0.5
109,19,0,1,7,29,329,522.0351300820694,523.0322521658964,"[32, 0, 222]",222,l,0.4645433413388673,colour,0.5
109,19,0,1,7,30,330,523.5349953451587,525.2482293324792,"[66, 0, 188]",188,a,1.1805612497919356,colour,0.5
109,19,0,1,7,31,331,525.7515111385728,526.6163950434784,"[17, 0, 237]",237,l,0.33208092170389136,colour,0.5
109,19,0,1,7,32,332,527.1176288485804,527.9602731437917,"[51, 0, 203]",203,a,0.308817632314458,colour,0.5
109,19,0,1,7,33,333,528.4685004359708,529.5443845827613,"[80, 0, 174]",174,a,0.5433702063310193,colour,0.5
109,19,0,1,7,34,334,530.0518101903435,530.9602818054482,"[62, 0, 192]",192,a,0.3759435593528906,colour,0.5
109,19,0,1,7,35,335,531.468136004718,532.0402824855482,"[48, 0, 206]",206,l,0.0392748459635186,colour,0.5
109,19,0,1,7,36,336,532.551640806807,533.7762395314203,"[36, 0, 218]",218,l,0.6919089845760027,colour,0.5
109,19,0,1,7,37,337,534.2847744728715,535.3362667482797,"[18, 0, 236]",236,l,0.5186485503290896,colour,0.5
109,19,0,1,7,38,338,535.851327768054,536.6402835762783,"[26, 0, 228]",228,l,0.2559911407297477,colour,0.5
109,19,0,1,7,39,339,537.1519829102253,538.9122532309557,"[79, 0, 175]",175,a,1.2279581648326712,colour,0.5
109,19,0,1,7,40,340,539.4185653342429,541.3603554616275,"[37, 0, 217]",217,l,1.4094025829763268,colour,0.5
109,19,0,1,7,41,341,541.8685250094131,542.6242925510378,"[67, 0, 187]",187,a,0.22274897936586058,colour,0.5
109,19,0,1,7,42,342,543.1349973982942,544.5202949070081,"[52, 0, 202]",202,l,0.8526684002790716,colour,0.5
109,19,0,1,7,43,343,545.035459866689,545.6962731771564,"[73, 0, 181]",181,a,0.12865513960423414,colour,0.5
109,19,0,1,7,44,344,546.201575716048,547.4003428091892,"[72, 0, 182]",182,a,0.66606612502801,colour,0.5
109,19,0,1,7,45,345,547.9185393492735,548.4882390720377,"[19, 0, 235]",235,l,0.037311536754714325,colour,0.5
109,19,0,1,7,46,346,549.0014715195066,550.0646217453832,"[84, 0, 170]",170,a,0.5303664908060455,colour,0.5
109,19,0,1,7,47,347,550.5691104091966,551.6883371733347,"[56, 0, 198]",198,l,0.5874195508367848,colour,0.5
109,19,0,1,7,48,348,552.2013970292464,552.8803571554599,"[28, 0, 226]",226,l,0.14610709787666565,colour,0.5
109,19,0,1,7,49,349,553.3841602650573,554.3122874284672,"[71, 0, 183]",183,a,0.3946912375467946,colour,0.5
109,19,0,1,7,50,350,554.8178469298873,555.3682609892348,"[4, 0, 250]",250,l,0.016737852660298813,colour,0.5
109,19,0,1,8,1,351,560.8006824103504,561.8482714858837,"[2, 0, 252]",252,l,0.5140209791788948,colour,0.5
109,19,0,1,8,2,352,562.3508533016648,563.4802594391222,"[74, 0, 180]",180,a,0.5960292391901021,colour,0.5
109,19,0,1,8,3,353,563.9846964537865,564.7923107571987,"[36, 0, 218]",218,l,0.2747657662985148,colour,0.5
109,19,0,1,8,4,354,565.3013522452602,566.1203460428733,"[10, 0, 244]",244,l,0.28610708504129434,colour,0.5
109,19,0,1,8,5,355,566.6341398941222,567.4802722712047,"[80, 0, 174]",174,a,0.3127205113778473,colour,0.5
109,19,0,1,8,6,356,567.9842855062234,568.8482823931554,"[67, 0, 187]",187,a,0.3307345150387846,colour,0.5
109,19,0,1,8,7,357,569.3519866956922,569.9842784485736,"[34, 0, 220]",220,l,0.10006589276599698,colour,0.5
109,19,0,1,8,8,358,570.5016511687136,571.2562991107989,"[47, 0, 207]",207,l,0.22209518456656951,colour,0.5
109,19,0,1,8,9,359,571.7680610011739,572.4164101853385,"[48, 0, 206]",206,l,0.11548524855606956,colour,0.5
109,19,0,1,8,10,360,572.9193060664329,573.6642702745376,"[44, 0, 210]",210,l,0.2133943884036853,colour,0.5
109,19,0,1,8,11,361,574.1678629379167,575.4482276643103,"[30, 0, 224]",224,l,0.74736284584651,colour,0.5
109,19,0,1,8,12,362,575.9509746932017,577.0402609918019,"[39, 0, 215]",215,l,0.5560787838767283,colour,0.5
109,19,0,1,8,13,363,577.551217347951,578.7203205070182,"[61, 0, 193]",193,a,0.6361458700193907,colour,0.5
109,19,0,1,8,14,364,579.235139321172,580.0562747939985,"[18, 0, 236]",236,l,0.28876043970376486,colour,0.5
109,19,0,1,8,15,365,580.5675195512886,581.3442794238144,"[28, 0, 226]",226,l,0.24342949057609076,colour,0.5
109,19,0,1,8,16,366,581.8516376629414,582.80826296538,"[83, 0, 171]",171,a,0.42407799855573103,colour,0.5
109,19,0,1,8,17,367,583.3174638921118,584.1522892762878,"[95, 0, 159]",159,a,0.3013939495431259,colour,0.5
109,19,0,1,8,18,368,584.667804551922,585.3602983588426,"[6, 0, 248]",248,l,0.15945727974030888,colour,0.5
109,19,0,1,8,19,369,585.8674159963484,586.8402806248996,"[24, 0, 230]",230,l,0.43942870268801926,colour,0.5
109,19,0,1,8,20,370,587.3516389461511,588.1604315558943,"[49, 0, 205]",205,l,0.276249155489495,colour,0.5
109,19,0,1,8,21,371,588.6680939154758,589.4882878339631,"[55, 0, 199]",199,l,0.28744418844144093,colour,0.5
109,19,0,1,8,22,372,590.000813233477,591.6083602325962,"[59, 0, 195]",195,l,1.0742015394644113,colour,0.5
109,19,0,1,8,23,373,592.1184398364421,593.1202799576276,"[58, 0, 196]",196,l,0.4693730178405531,colour,0.5
109,19,0,1,8,24,374,593.6345319143584,594.3443846469236,"[90, 0, 164]",164,a,0.17690121795749292,colour,0.5
109,19,0,1,8,25,375,594.8509793769117,595.9842547092121,"[82, 0, 172]",172,a,0.6001040682167513,colour,0.5
109,19,0,1,8,26,376,596.500584501533,598.2723055345414,"[65, 0, 189]",189,a,1.2381596734994673,colour,0.5
109,19,0,1,8,27,377,598.7845941820633,599.5843619854568,"[50, 0, 204]",204,l,0.2669054717916879,colour,0.5
109,19,0,1,8,28,378,600.1025046307768,601.1283160517196,"[68, 0, 186]",186,a,0.4941857816593256,colour,0.5
109,19,0,1,8,29,379,601.6340167060916,602.600362313955,"[57, 0, 197]",197,a,0.432901982749172,colour,0.5
109,19,0,1,8,30,380,603.1176205077281,604.0643590084146,"[91, 0, 163]",163,a,0.41355761254089884,colour,0.5
109,19,0,1,8,31,381,604.5675933357852,605.4803438100862,"[70, 0, 184]",184,a,0.37956188690441195,colour,0.5
109,19,0,1,8,32,382,605.9840914209126,606.736272073591,"[79, 0, 175]",175,a,0.21882268173794728,colour,0.5
109,19,0,1,8,33,383,607.2512609128898,607.8083742837262,"[51, 0, 203]",203,l,0.024259700898255687,colour,0.5
109,19,0,1,8,34,384,608.3173500073462,609.1363832636198,"[89, 0, 165]",165,a,0.28558610233449144,colour,0.5
109,19,0,1,8,35,385,609.6508354009056,610.2483961496036,"[29, 0, 225]",225,l,0.06427720386272995,colour,0.5
109,19,0,1,8,36,386,610.7517758003523,611.336322567855,"[94, 0, 160]",160,a,0.05222402513027191,colour,0.5
109,19,0,1,8,37,387,611.851509021275,612.4002860272012,"[38, 0, 216]",216,l,0.016187997760425787,colour,0.5
109,19,0,1,8,38,388,612.9173594389285,613.6723169550969,"[13, 0, 241]",241,l,0.22156040736444993,colour,0.5
109,19,0,1,8,39,389,614.1838924594194,615.392243517068,"[42, 0, 212]",212,l,0.6748246655770345,colour,0.5
109,19,0,1,8,40,390,615.9011281328712,616.7683028859974,"[17, 0, 237]",237,l,0.33421842649113387,colour,0.5
109,19,0,1,8,41,391,617.2846227334521,618.176300676314,"[63, 0, 191]",191,a,0.35887303484923905,colour,0.5
109,19,0,1,8,42,392,618.6847868558398,619.4322789849539,"[14, 0, 240]",240,l,0.2148578878477565,colour,0.5
109,19,0,1,8,43,393,619.9342740535867,620.4724325080388,"[76, 0, 178]",178,a,0.0050147793590440415,colour,0.5
109,19,0,1,8,44,394,620.9839663080711,621.8242860708342,"[37, 0, 217]",217,l,0.3068729296210222,colour,0.5
109,19,0,1,8,45,395,622.3352866976784,623.1203986544278,"[33, 0, 221]",221,l,0.25299388615530916,colour,0.5
109,19,0,1,8,46,396,623.6346287966153,624.4963024343087,"[96, 0, 158]",158,a,0.3289043387194397,colour,0.5
109,19,0,1,8,47,397,625.0012046121046,625.7443184333533,"[12, 0, 242]",242,l,0.2102630385197699,colour,0.5
109,19,0,1,8,48,398,626.2515752990003,627.0483121635989,"[52, 0, 202]",202,l,0.26424858831160236,colour,0.5
109,19,0,1,8,49,399,627.5510858190682,628.4643515016433,"[15, 0, 239]",239,l,0.3802782381317229,colour,0.5
109,19,0,1,8,50,400,628.9689319148747,630.0883232505221,"[9, 0, 245]",245,l,0.5875921424012631,colour,0.5
109,19,0,1,9,1,401,634.233626738991,636.6563070025295,"[18, 0, 236]",236,l,1.8889289891521912,colour,0.5
109,19,0,1,9,2,402,637.1693761617062,637.7763174863503,"[73, 0, 181]",181,a,0.07561306896968745,colour,0.5
109,19,0,1,9,3,403,638.2843648085181,639.2883841387738,"[79, 0, 175]",175,a,0.471011675275804,colour,0.5
109,19,0,1,9,4,404,639.8011889569607,640.6563057193271,"[87, 0, 167]",167,a,0.32226918765809387,colour,0.5
109,19,0,1,9,5,405,641.1671706468551,642.2084055940213,"[76, 0, 178]",178,a,0.5077156127372291,colour,0.5
109,19,0,1,9,6,406,642.7181339195013,643.3203103696724,"[72, 0, 182]",182,a,0.06960797334613744,colour,0.5
109,19,0,1,9,7,407,643.8345369830349,644.8482599370036,"[21, 0, 233]",233,l,0.4809286324234563,colour,0.5
109,19,0,1,9,8,408,645.3503945545745,649.7283094431987,"[67, 0, 187]",187,a,3.8443137496506097,colour,0.5
109,19,0,1,9,9,409,650.2347675114652,650.8563168832407,"[62, 0, 192]",192,a,0.0889292458014097,colour,0.5
109,19,0,1,9,10,410,651.3681631445797,651.9924152745443,"[93, 0, 161]",161,a,0.09171958298247773,colour,0.5
109,19,0,1,9,11,411,652.5011256947764,653.048324033276,"[17, 0, 237]",237,l,0.014327666038298048,colour,0.5
109,19,0,1,9,12,412,653.5513629921334,654.2802915834982,"[15, 0, 239]",239,l,0.19631391902657924,colour,0.5
109,19,0,1,9,13,413,654.7844748436546,655.5603582846816,"[31, 0, 223]",223,l,0.24305126482795458,colour,0.5
109,19,0,1,9,14,414,656.0689240231441,656.7923117196115,"[64, 0, 190]",190,a,0.19165523007541196,colour,0.5
109,19,0,1,9,15,415,657.3007969367245,657.9363839693906,"[78, 0, 176]",176,a,0.10239844526950037,colour,0.5
109,19,0,1,9,16,416,658.4509952245353,659.0004064563327,"[28, 0, 226]",226,l,0.016436619436717592,colour,0.5
109,19,0,1,9,17,417,659.5174086499828,660.3045297906501,"[25, 0, 229]",229,l,0.25389181139325956,colour,0.5
109,19,0,1,9,18,418,660.8186245543257,662.1044024963558,"[59, 0, 195]",195,a,0.7537471296236617,colour,0.5
109,19,0,1,9,19,419,662.6185440971458,663.3524467259922,"[91, 0, 163]",163,a,0.20181118483742466,colour,0.5
109,19,0,1,9,20,420,663.868125289926,664.5923294278837,"[65, 0, 189]",189,a,0.191710728839098,colour,0.5
109,19,0,1,9,21,421,665.1010927804746,665.6804842572747,"[4, 0, 250]",250,l,0.04651374669629149,colour,0.5
109,19,0,1,9,22,422,666.1846899735829,667.3043360261436,"[58, 0, 196]",196,l,0.5870493451438961,colour,0.5
109,19,0,1,9,23,423,667.8177481228267,668.4643377071479,"[3, 0, 251]",251,l,0.11369036047108239,colour,0.5
109,19,0,1,9,24,424,668.9686370976924,670.3364778360992,"[75, 0, 179]",179,a,0.8358638207646436,colour,0.5
109,19,0,1,9,25,425,670.8506672364092,672.5364187443411,"[50, 0, 204]",204,l,1.15248336159857,colour,0.5
109,19,0,1,9,26,426,673.0518483658016,673.7843198962146,"[66, 0, 188]",188,a,0.20039163527690107,colour,0.5
109,19,0,1,9,27,427,674.3012588918355,675.0083196831984,"[98, 0, 156]",156,l,0.17435019918048056,colour,0.5
109,19,0,1,9,28,428,675.5174311061346,676.8723431967155,"[70, 0, 184]",184,l,0.8217103502975078,colour,0.5
109,19,0,1,9,29,429,677.3860934188706,678.0083078135212,"[53, 0, 201]",201,l,0.09105263529636431,colour,0.5
109,19,0,1,9,30,430,678.517978394615,679.1683563316401,"[23, 0, 231]",231,l,0.11776486870076042,colour,0.5
109,19,0,1,9,31,431,679.6838886097903,680.2644551849007,"[13, 0, 241]",241,l,0.047167541495582554,colour,0.5
109,19,0,1,9,32,432,680.7678864847985,681.9682630423704,"[22, 0, 232]",232,l,0.6676746270532021,colour,0.5
109,19,0,1,9,33,433,682.4840185988287,686.3764359906636,"[42, 0, 212]",212,l,3.359198649035534,colour,0.5
109,19,0,1,9,34,434,686.8839244754708,687.4883228014005,"[84, 0, 170]",170,a,0.07107949285273207,colour,0.5
109,19,0,1,9,35,435,688.0011314692165,689.0163352459567,"[16, 0, 238]",238,l,0.48244410182815045,colour,0.5
109,19,0,1,9,36,436,689.517263968206,690.2803342501866,"[5, 0, 249]",249,l,0.2297543361200951,colour,0.5
109,19,0,1,9,37,437,690.7848495405779,691.7203615696999,"[43, 0, 211]",211,l,0.40314469525037566,colour,0.5
109,19,0,1,9,38,438,692.2359384393494,692.8164498364858,"[49, 0, 205]",205,l,0.0492277329612989,colour,0.5
109,19,0,1,9,39,439,693.3177994511716,693.9843567243006,"[99, 0, 155]",155,a,0.13381203431345057,colour,0.5
109,19,0,1,9,40,440,694.5011295444056,695.1123426706035,"[38, 0, 216]",216,l,0.07846949139639037,colour,0.5
109,19,0,1,9,41,441,695.6182441471246,696.4243740989477,"[7, 0, 247]",247,l,0.2738370440565632,colour,0.5
109,19,0,1,9,42,442,696.9344825749868,697.5204768018302,"[8, 0, 246]",246,l,0.053253800062520895,colour,0.5
109,19,0,1,9,43,443,698.0342478761304,699.0963006378151,"[12, 0, 242]",242,l,0.5290720540870097,colour,0.5
109,19,0,1,9,44,444,699.6013414021509,701.0163320379361,"[69, 0, 185]",185,l,0.8824542391812429,colour,0.5
109,19,0,1,9,45,445,701.5170333114511,702.5684133061004,"[37, 0, 217]",217,l,0.5178375624673208,colour,0.5
109,19,0,1,9,46,446,703.0839673988012,703.6243916789026,"[40, 0, 214]",214,l,0.007193667617684696,colour,0.5
109,19,0,1,9,47,447,704.1358667721433,705.0482881034332,"[0, 0, 254]",254,l,0.38105105052818544,colour,0.5
109,19,0,1,9,48,448,705.5509783503439,706.2644333703502,"[68, 0, 186]",186,a,0.1805144126774394,colour,0.5
109,19,0,1,9,49,449,706.7670831961877,707.3203203145385,"[26, 0, 228]",228,l,0.019764621036301833,colour,0.5
109,19,0,1,9,50,450,707.8345446822859,709.0723777791864,"[60, 0, 194]",194,a,0.7051908355788328,colour,0.5
109,19,0,1,10,1,451,713.800687222385,715.7923608023411,"[89, 0, 165]",165,a,1.4585199599896441,colour,0.5
109,19,0,1,10,2,452,716.3016409672055,717.9763530312266,"[9, 0, 245]",245,l,1.1425247001607204,colour,0.5
109,19,0,1,10,3,453,718.4837988493455,719.1684904269423,"[79, 0, 175]",175,a,0.15133296505518956,colour,0.5
109,19,0,1,10,4,454,719.6837439280134,720.312359288153,"[40, 0, 214]",214,l,0.09520574005000526,colour,0.5
109,19,0,1,10,5,455,720.8185632811146,721.7363978280409,"[63, 0, 191]",191,a,0.3859118448526715,colour,0.5
109,19,0,1,10,6,456,722.2512047725104,722.7844283273444,"[4, 0, 250]",250,l,0.0006056744750821963,colour,0.5
109,19,0,1,10,7,457,723.300939052082,724.0883408946393,"[76, 0, 178]",178,a,0.2545128843776183,colour,0.5
109,19,0,1,10,8,458,724.600665792801,725.2005029536231,"[73, 0, 181]",181,a,0.06665595187223516,colour,0.5
109,19,0,1,10,9,459,725.7173450669943,726.3283599374554,"[48, 0, 206]",206,l,0.07788434825488366,colour,0.5
109,19,0,1,10,10,460,726.8356132742774,727.5043337163734,"[3, 0, 251]",251,l,0.13717436174920294,colour,0.5
109,19,0,1,10,11,461,728.0175854119734,728.6884026169719,"[91, 0, 163]",163,a,0.13792471799388295,colour,0.5
109,19,0,1,10,12,462,729.2015215004794,730.2244075265335,"[70, 0, 184]",184,a,0.4906290481230826,colour,0.5
109,19,0,1,10,13,463,730.7342766841612,731.3683639667288,"[94, 0, 160]",160,a,0.10122880058770534,colour,0.5
109,19,0,1,10,14,464,731.8852006264642,732.4323527694505,"[14, 0, 240]",240,l,0.01524323540070327,colour,0.5
109,19,0,1,10,15,465,732.9348393069886,733.8964081707018,"[52, 0, 202]",202,l,0.4292936000638292,colour,0.5
109,19,0,1,10,16,466,734.4009930751636,736.3923679883083,"[62, 0, 192]",192,a,1.458580591599457,colour,0.5
109,19,0,1,10,17,467,736.901251641706,737.44048317938,"[88, 0, 166]",166,a,0.006709256362228189,colour,0.5
109,19,0,1,10,18,468,737.9510119062543,738.5603772120085,"[98, 0, 156]",156,a,0.0766162173167686,colour,0.5
109,19,0,1,10,19,469,739.0677835714669,740.192454989854,"[42, 0, 212]",212,l,0.5920358939110884,colour,0.5
109,19,0,1,10,20,470,740.701167334897,741.9204333652233,"[35, 0, 219]",219,l,0.686681834195042,colour,0.5
109,19,0,1,10,21,471,742.434874274426,743.2964157416354,"[0, 0, 254]",254,l,0.3292973213683581,colour,0.5
109,19,0,1,10,22,472,743.801357378099,744.7604592732023,"[64, 0, 190]",190,a,0.42669542336807353,colour,0.5
109,19,0,1,10,23,473,745.2678470261308,745.9443401837416,"[86, 0, 168]",168,l,0.14388554292236222,colour,0.5
109,19,0,1,10,24,474,746.4507440364468,747.584494476745,"[49, 0, 205]",205,l,0.6007498429607949,colour,0.5
109,19,0,1,10,25,475,748.1011607905311,749.2483464252655,"[22, 0, 232]",232,l,0.6145963057642803,colour,0.5
109,19,0,1,10,26,476,749.7502888823437,750.7763781179528,"[24, 0, 230]",230,l,0.49261577588913497,colour,0.5
109,19,0,1,10,27,477,751.2843603172878,752.2324625479523,"[87, 0, 167]",167,a,0.41538971367117483,colour,0.5
109,19,0,1,10,28,478,752.7346529850984,753.7122751096686,"[57, 0, 197]",197,l,0.445211161604675,colour,0.5
109,19,0,1,10,29,479,754.21756609968,754.8883704725959,"[19, 0, 235]",235,l,0.13797283831809182,colour,0.5
109,19,0,1,10,30,480,755.400254909393,756.4643803738363,"[66, 0, 188]",188,a,0.5306333982007345,colour,0.5
109,19,0,1,10,31,481,756.9674507713062,757.9923418108519,"[27, 0, 227]",227,l,0.49146602095424896,colour,0.5
109,19,0,1,10,32,482,758.50071635122,759.1043591880589,"[39, 0, 215]",215,l,0.07065507159131812,colour,0.5
109,19,0,1,10,33,483,759.6177090491256,760.4003992703656,"[50, 0, 204]",204,l,0.25000561403430765,colour,0.5
109,19,0,1,10,34,484,760.9180042512671,761.488423212475,"[5, 0, 249]",249,l,0.03804585289617535,colour,0.5
109,19,0,1,10,35,485,762.0009518200095,762.9683733983111,"[12, 0, 242]",242,l,0.43465035451663425,colour,0.5
109,19,0,1,10,36,486,763.4842928846701,764.1523463790727,"[81, 0, 173]",173,a,0.13529638590989634,colour,0.5
109,19,0,1,10,37,487,764.6673114790028,765.4723526282978,"[13, 0, 241]",241,l,0.27199563965405105,colour,0.5
109,19,0,1,10,38,488,765.984672393628,766.6884090330204,"[29, 0, 225]",225,l,0.1713721927444567,colour,0.5
109,19,0,1,10,39,489,767.2011208185868,767.9603790085021,"[21, 0, 233]",233,l,0.2266640489178826,colour,0.5
109,19,0,1,10,40,490,768.4685020399775,769.3124645112621,"[54, 0, 200]",200,a,0.3115835885328124,colour,0.5
109,19,0,1,10,41,491,769.8176595814293,770.5684287046097,"[43, 0, 211]",211,l,0.2180655886477325,colour,0.5
109,19,0,1,10,42,492,771.0841964515421,771.6884783262867,"[69, 0, 185]",185,a,0.07143943287519505,colour,0.5
109,19,0,1,10,43,493,772.2004750438355,773.1203662534099,"[97, 0, 157]",157,a,0.3866952437238069,colour,0.5
109,19,0,1,10,44,494,773.6336448963921,774.4885152826901,"[99, 0, 155]",155,a,0.32150311209989013,colour,0.5
109,19,0,1,10,45,495,775.001124732371,775.8805124237042,"[33, 0, 221]",221,l,0.3468156856833957,colour,0.5
109,19,0,1,10,46,496,776.3844281348647,777.1844538631922,"[15, 0, 239]",239,l,0.2674380033786292,colour,0.5
109,19,0,1,10,47,497,777.7012812196626,778.6883997297555,"[16, 0, 238]",238,l,0.454688940604683,colour,0.5
109,19,0,1,10,48,498,779.2011913950555,780.1123741092088,"[93, 0, 161]",161,a,0.37869860829232493,colour,0.5
109,19,0,1,10,49,499,780.6173151040712,781.4723834253091,"[65, 0, 189]",189,a,0.3215355131251272,colour,0.5
109,19,0,1,10,50,500,781.9853573062355,782.5365079273397,"[7, 0, 247]",247,l,0.019513432947860565,colour,0.5
109,19,0,1,11,1,501,787.050210991576,788.3523706958804,"[37, 0, 217]",217,l,0.7687314776921994,colour,0.5
109,19,0,1,11,2,502,788.8673630639969,789.592528646026,"[40, 0, 214]",214,l,0.1922182378548314,colour,0.5
109,19,0,1,11,3,503,790.1011434672182,790.872414735597,"[86, 0, 168]",168,a,0.23874609985068673,colour,0.5
109,19,0,1,11,4,504,791.3838898288377,792.3923513065965,"[74, 0, 180]",180,a,0.4753826046944596,colour,0.5
109,19,0,1,11,5,505,792.900980563878,793.8323754180819,"[82, 0, 172]",172,a,0.3987481016520178,colour,0.5
109,19,0,1,11,6,506,794.333786626783,794.9604730035353,"[5, 0, 249]",249,l,0.09352056630450534,colour,0.5
109,19,0,1,11,7,507,795.4673365657363,796.2403844364744,"[33, 0, 221]",221,l,0.2396106616652105,colour,0.5
109,19,0,1,11,8,508,796.751030256135,797.5043718918241,"[21, 0, 233]",233,l,0.22075358993606642,colour,0.5
109,19,0,1,11,9,509,798.0175562189761,798.9283735394638,"[34, 0, 220]",220,l,0.378095179432421,colour,0.5
109,19,0,1,11,10,510,799.4337437676149,800.8004302598565,"[87, 0, 167]",167,a,0.8334927720061387,colour,0.5
109,19,0,1,11,11,511,801.3176323132429,802.0325107324388,"[73, 0, 181]",181,a,0.18224481953075156,colour,0.5
109,19,0,1,11,12,512,802.5339543421505,803.4563388261085,"[22, 0, 232]",232,l,0.3894108340027742,colour,0.5
109,19,0,1,11,13,513,803.9674719442482,804.7284752979103,"[10, 0, 244]",244,l,0.22820293687982485,colour,0.5
109,19,0,1,11,14,514,805.2333399418567,806.9203775456481,"[45, 0, 209]",209,l,1.1534204247072921,colour,0.5
109,19,0,1,11,15,515,807.4335721384632,808.136431383944,"[94, 0, 160]",160,l,0.1695041617640527,colour,0.5
109,19,0,1,11,16,516,808.6512893359613,809.8484408694276,"[16, 0, 238]",238,l,0.6643209612811916,colour,0.5
109,19,0,1,11,17,517,810.3508699833765,811.1603827939689,"[71, 0, 183]",183,a,0.27680959686404094,colour,0.5
109,19,0,1,11,18,518,811.6676832887097,812.2484923902521,"[15, 0, 239]",239,l,0.04821463974076323,colour,0.5
109,19,0,1,11,19,519,812.7508996896577,813.9843750100263,"[39, 0, 215]",215,l,0.7007644073892152,colour,0.5
109,19,0,1,11,20,520,814.5010429278191,817.9203730544177,"[58, 0, 196]",196,l,2.8868123365173233,colour,0.5
109,19,0,1,11,21,521,818.4335281885651,819.4484092383282,"[69, 0, 185]",185,l,0.4815092843346065,colour,0.5
109,19,0,1,11,22,522,819.9506625526992,820.8484893105488,"[93, 0, 161]",161,a,0.36492657159396913,colour,0.5
109,19,0,1,11,23,523,821.3509870761627,822.256575963067,"[12, 0, 242]",242,l,0.3730184852684033,colour,0.5
109,19,0,1,11,24,524,822.7670892914321,823.8164068490005,"[11, 0, 243]",243,l,0.5162053210879094,colour,0.5
109,19,0,1,11,25,525,824.333912381233,825.1765053480922,"[27, 0, 227]",227,l,0.30915575778635684,colour,0.5
109,19,0,1,11,26,526,825.6841118880911,826.4803531133512,"[24, 0, 230]",230,l,0.26342990119883325,colour,0.5
109,19,0,1,11,27,527,826.9846114412139,827.7684562294307,"[2, 0, 252]",252,l,0.2515785070208949,colour,0.5
109,19,0,1,11,28,528,828.2840873146488,829.2165113021838,"[99, 0, 155]",155,a,0.3996524429458077,colour,0.5
109,19,0,1,11,29,529,829.7338221075042,830.5284391114255,"[62, 0, 192]",192,l,0.26156924867245834,colour,0.5
109,19,0,1,11,30,530,831.0349677561753,831.9765307556227,"[52, 0, 202]",202,l,0.4096325981154223,colour,0.5
109,19,0,1,11,31,531,832.4842973759005,833.3125257844731,"[83, 0, 171]",171,l,0.2956410044207587,colour,0.5
109,19,0,1,11,32,532,833.8170122026713,834.7923941657646,"[91, 0, 163]",163,l,0.44220235815737396,colour,0.5
109,19,0,1,11,33,533,835.3006698990721,836.3685259718186,"[28, 0, 226]",226,l,0.5350091396539938,colour,0.5
109,19,0,1,11,34,534,836.8836684753478,837.6484171942284,"[81, 0, 173]",173,a,0.23108213626255747,colour,0.5
109,19,0,1,11,35,535,838.15008215743,838.9605098957836,"[41, 0, 213]",213,l,0.27699598291656,colour,0.5
109,19,0,1,11,36,536,839.4678171273699,840.2805276938889,"[80, 0, 174]",174,l,0.2803166060693911,colour,0.5
109,19,0,1,11,37,537,840.7842124274903,841.5845621660046,"[79, 0, 175]",175,l,0.26772191328927875,colour,0.5
109,19,0,1,11,38,538,842.1007151963349,842.9924370890949,"[1, 0, 253]",253,l,0.3589182679570513,colour,0.5
109,19,0,1,11,39,539,843.5009354590948,844.5284808157085,"[84, 0, 170]",170,a,0.49498361663427204,colour,0.5
109,19,0,1,11,40,540,845.0341756956404,845.8724160188067,"[23, 0, 231]",231,l,0.30558105932868784,colour,0.5
109,19,0,1,11,41,541,846.3834403850124,847.4004165936858,"[65, 0, 189]",189,l,0.48357621265313355,colour,0.5
109,19,0,1,11,42,542,847.9172882208513,848.9523929595453,"[98, 0, 156]",156,a,0.5022366326520569,colour,0.5
109,19,0,1,11,43,543,849.4669352422352,850.0884198119675,"[25, 0, 229]",229,l,0.08771212240390014,colour,0.5
109,19,0,1,11,44,544,850.6017138534589,851.440403299639,"[44, 0, 210]",210,l,0.3069409396775882,colour,0.5
109,19,0,1,11,45,545,851.9517070845322,852.7205274244116,"[64, 0, 190]",190,l,0.23704873562383,colour,0.5
109,19,0,1,11,46,546,853.2352192009057,853.8163901672815,"[43, 0, 211]",211,l,0.04957002885930706,colour,0.5
109,19,0,1,11,47,547,854.3337984964674,855.2004054297649,"[88, 0, 166]",166,l,0.33359639110130956,colour,0.5
109,19,0,1,11,48,548,855.7173309516947,856.2563892562102,"[97, 0, 157]",157,a,0.006241206014237832,colour,0.5
109,19,0,1,11,49,549,856.7665686295295,857.7524440312482,"[77, 0, 177]",177,a,0.4523137214127928,colour,0.5
109,19,0,1,11,50,550,858.2667989654801,859.1045311380221,"[29, 0, 225]",225,l,0.3044223219330888,colour,0.5
109,19,0,1,12,1,551,863.8336862157084,864.6165118154604,"[1, 0, 253]",253,l,0.2492318392251036,colour,0.5
109,19,0,1,12,2,552,865.1344228416274,866.4805234593005,"[57, 0, 197]",197,a,0.8137454742827686,colour,0.5
109,19,0,1,12,3,553,866.983658658799,867.9444620885624,"[28, 0, 226]",226,l,0.42769215568114305,colour,0.5
109,19,0,1,12,4,554,868.4509137407877,869.2723979255679,"[29, 0, 225]",225,l,0.2889837180118775,colour,0.5
109,19,0,1,12,5,555,869.7837847982082,871.0244207435826,"[71, 0, 183]",183,a,0.7076141750949319,colour,0.5
109,19,0,1,12,6,556,871.5340608484694,873.3444632434475,"[86, 0, 168]",168,a,1.2776927652012091,colour,0.5
109,19,0,1,12,7,557,873.8506374018107,874.5524190728393,"[15, 0, 239]",239,l,0.16901590087945806,colour,0.5
109,19,0,1,12,8,558,875.0671987491296,875.9444325747609,"[37, 0, 217]",217,l,0.34435032108740415,colour,0.5
109,19,0,1,12,9,559,876.4511049388748,877.3604340581514,"[32, 0, 222]",222,l,0.37701856738567585,colour,0.5
109,19,0,1,12,10,560,877.868249761159,878.7524648833933,"[47, 0, 207]",207,l,0.35239154801820405,colour,0.5
109,19,0,1,12,11,561,879.267192268926,880.2563520431577,"[34, 0, 220]",220,l,0.45627274086291436,colour,0.5
109,19,0,1,12,12,562,880.7679779134123,881.616422953266,"[80, 0, 174]",174,l,0.3163551998513867,colour,0.5
109,19,0,1,12,13,563,882.1332592921972,882.7764342583323,"[14, 0, 240]",240,l,0.10970278963213786,colour,0.5
109,19,0,1,12,14,564,883.284064858497,884.0804963194387,"[41, 0, 213]",213,l,0.26376770587376086,colour,0.5
109,19,0,1,12,15,565,884.5842615743823,885.7364254170243,"[26, 0, 228]",228,l,0.6197137418130296,colour,0.5
109,19,0,1,12,16,566,886.2507566118948,887.1045186267365,"[68, 0, 186]",186,a,0.3211287359808921,colour,0.5
109,19,0,1,12,17,567,887.6172207882337,888.6965224404339,"[61, 0, 193]",193,a,0.5464688343927264,colour,0.5
109,19,0,1,12,18,568,889.1999838957345,890.1044573535255,"[85, 0, 169]",169,a,0.3710118677554419,colour,0.5
109,19,0,1,12,19,569,890.6178765078512,891.424468414778,"[74, 0, 180]",180,a,0.2744045430663391,colour,0.5
109,19,0,1,12,20,570,891.9341242389783,892.7365540586907,"[49, 0, 205]",205,l,0.2698616636916995,colour,0.5
109,19,0,1,12,21,571,893.2503514387645,894.000561724577,"[82, 0, 172]",172,a,0.21719461077736923,colour,0.5
109,19,0,1,12,22,572,894.5170859230057,895.3125405413739,"[79, 0, 175]",175,a,0.2625098406060715,colour,0.5
109,19,0,1,12,23,573,895.81672508474,896.696377758657,"[67, 0, 187]",187,a,0.3463389736789395,colour,0.5
109,19,0,1,12,24,574,897.200685810858,898.1685273191906,"[18, 0, 236]",236,l,0.43516812920279335,colour,0.5
109,19,0,1,12,25,575,898.6835180832932,899.2805418091812,"[89, 0, 165]",165,a,0.06386818111059256,colour,0.5
109,19,0,1,12,26,576,899.7837831942015,900.5924811673103,"[31, 0, 223]",223,l,0.27579971166414907,colour,0.5
109,19,0,1,12,27,577,901.1001265243685,902.2804263204016,"[66, 0, 188]",188,a,0.6470685419408255,colour,0.5
109,19,0,1,12,28,578,902.783667705422,903.6565344512637,"[65, 0, 189]",189,a,0.33985203321208246,colour,0.5
109,19,0,1,12,29,579,904.1674372334528,905.0245728038062,"[16, 0, 238]",238,l,0.32456645192723954,colour,0.5
109,19,0,1,12,30,580,905.5338837656745,906.5044646036549,"[12, 0, 242]",242,l,0.437782346001768,colour,0.5
109,19,0,1,12,31,581,907.0181551566056,907.7764342583323,"[95, 0, 159]",159,a,0.22642954254115466,colour,0.5
109,19,0,1,12,32,582,908.2834938306551,909.1604142325814,"[69, 0, 185]",185,a,0.34381522308831336,colour,0.5
109,19,0,1,12,33,583,909.667109373644,910.5125318155551,"[63, 0, 191]",191,a,0.31254054137389176,colour,0.5
109,19,0,1,12,34,584,911.0172832163371,911.8965849326923,"[73, 0, 181]",181,a,0.34656706401437987,colour,0.5
109,19,0,1,12,35,585,912.4007572855771,914.2564280732695,"[11, 0, 243]",243,l,1.3231225214040023,colour,0.5
109,19,0,1,12,36,586,914.7674158680311,915.7525033796483,"[33, 0, 221]",221,l,0.45252384682680713,colour,0.5
109,19,0,1,12,37,587,916.2680083896194,917.0803952667557,"[99, 0, 155]",155,a,0.280432736450166,colour,0.5
109,19,0,1,12,38,588,917.5834884411743,918.3844358341157,"[13, 0, 241]",241,l,0.2677844697100227,colour,0.5
109,19,0,1,12,39,589,918.9008304284725,919.912454373909,"[38, 0, 216]",216,l,0.4791295739123598,colour,0.5
109,19,0,1,12,40,590,920.4169135239281,921.2245361681998,"[19, 0, 235]",235,l,0.27457039779255865,colour,0.5
109,19,0,1,12,41,591,921.734001435907,922.7204385622172,"[60, 0, 194]",194,l,0.45382662439806154,colour,0.5
109,19,0,1,12,42,592,923.2346359825824,924.1685616450195,"[27, 0, 227]",227,l,0.4019368751178263,colour,0.5
109,19,0,1,12,43,593,924.6832848601262,925.4964644393986,"[39, 0, 215]",215,l,0.279818400311342,colour,0.5
109,19,0,1,12,44,594,926.0006659852806,926.8245314844826,"[42, 0, 212]",212,l,0.2912450524236192,colour,0.5
109,19,0,1,12,45,595,927.3340702158894,928.1364589729346,"[78, 0, 176]",176,a,0.2697814631537767,colour,0.5
109,19,0,1,12,46,596,928.6504080924278,929.5045290848866,"[52, 0, 202]",202,l,0.321268284918915,colour,0.5
109,19,0,1,12,47,597,930.0167279078014,931.2004320563501,"[92, 0, 162]",162,a,0.6505036914750235,colour,0.5
109,19,0,1,12,48,598,931.7173024003059,932.3444600354269,"[90, 0, 164]",164,a,0.09452467706432799,colour,0.5
109,19,0,1,12,49,599,932.8502665545166,933.3924465848395,"[0, 0, 254]",254,l,0.00920028513064608,colour,0.5
109,19,0,1,12,50,600,933.9003456964056,934.5444580464537,"[76, 0, 178]",178,a,0.11119580287777353,colour,0.5
109,19,0,1,13,1,601,945.4493581711213,946.1288514705229,"[86, 0, 168]",168,a,0.14561723297811113,colour,0.5
109,19,0,1,13,2,602,946.6346862201972,947.224468158136,"[10, 0, 244]",244,l,0.05787238874472678,colour,0.5
109,19,0,1,13,3,603,947.7329129541831,949.1364496696697,"[31, 0, 223]",223,l,0.8698919474190916,colour,0.5
109,19,0,1,13,4,604,949.6498155708396,950.2965870499829,"[33, 0, 221]",221,l,0.11333844050386688,colour,0.5
109,19,0,1,13,5,605,950.8008216384915,951.7284451425076,"[15, 0, 239]",239,l,0.3952430172575987,colour,0.5
109,19,0,1,13,6,606,952.233321335334,953.0484536373478,"[72, 0, 182]",182,a,0.281901368733088,colour,0.5
109,19,0,1,13,7,607,953.5500435328504,954.2965533657625,"[85, 0, 169]",169,a,0.21334498486976372,colour,0.5
109,19,0,1,13,8,608,954.7998589112103,955.8084374817554,"[97, 0, 157]",157,a,0.4752177123882575,colour,0.5
109,19,0,1,13,9,609,956.3171835110261,957.6164547126828,"[14, 0, 240]",240,l,0.7666032761626411,colour,0.5
109,19,0,1,13,10,610,958.1339239942681,960.2005023120219,"[90, 0, 164]",164,a,1.5339411892637145,colour,0.5
109,19,0,1,13,11,611,960.7171849867154,961.9364375433506,"[26, 0, 228]",228,l,0.6865470972916228,colour,0.5
109,19,0,1,13,12,612,962.4505791441406,963.2404527673352,"[57, 0, 197]",197,l,0.25726921653404133,colour,0.5
109,19,0,1,13,13,613,963.7506889226352,964.6964688664739,"[6, 0, 248]",248,l,0.41328236428671516,colour,0.5
109,19,0,1,13,14,614,965.1998594244942,966.0405102550794,"[99, 0, 155]",155,a,0.3072973508751602,colour,0.5
109,19,0,1,13,15,615,966.5502270316865,967.2245823637058,"[12, 0, 242]",242,l,0.1414057422298356,colour,0.5
109,19,0,1,13,16,616,967.7332055257502,968.5604606205743,"[47, 0, 207]",207,l,0.2939352993416833,colour,0.5
109,19,0,1,13,17,617,969.0671410047362,969.8724509862441,"[39, 0, 215]",215,l,0.27259746450727107,colour,0.5
109,19,0,1,13,18,618,970.3834650867793,971.1845578030916,"[73, 0, 181]",181,a,0.2680776828783564,colour,0.5
109,19,0,1,13,19,619,971.7005212393487,972.4166578446093,"[23, 0, 231]",231,l,0.18349306072923355,colour,0.5
109,19,0,1,13,20,620,972.9333251208009,973.7365899885335,"[55, 0, 199]",199,a,0.270081092370674,colour,0.5
109,19,0,1,13,21,621,974.2500819649504,975.0084887459379,"[84, 0, 170]",170,a,0.22531924626673572,colour,0.5
109,19,0,1,13,22,622,975.517582845554,976.2964449346327,"[68, 0, 186]",186,a,0.24662403848196846,colour,0.5
109,19,0,1,13,23,623,976.8016573281129,977.3924667953688,"[35, 0, 219]",219,l,0.059318564883142244,colour,0.5
109,19,0,1,13,24,624,977.8997932750863,978.720566562275,"[16, 0, 238]",238,l,0.28741948667448014,colour,0.5
109,19,0,1,13,25,625,979.2335208742734,980.2325581469922,"[91, 0, 163]",163,l,0.46607998367835535,colour,0.5
109,19,0,1,13,26,626,980.7499238094897,981.5446261467878,"[36, 0, 218]",218,l,0.26149097294546664,colour,0.5
109,19,0,1,13,27,627,982.0514258693584,983.1366113539552,"[75, 0, 179]",179,a,0.553474191139685,colour,0.5
109,19,0,1,13,28,628,983.6503564432787,984.528462850787,"[93, 0, 161]",161,a,0.3453156147879781,colour,0.5
109,19,0,1,13,29,629,985.0339161666925,986.3525737636446,"[95, 0, 159]",159,a,0.7861099722649669,colour,0.5
109,19,0,1,13,30,630,986.8669036752981,987.6485548183482,"[71, 0, 183]",183,a,0.24874486155022169,colour,0.5
109,19,0,1,13,31,631,988.1503843530663,988.9205870294536,"[40, 0, 214]",214,a,0.23740963805175852,colour,0.5
109,19,0,1,13,32,632,989.4338092112594,990.136488165932,"[74, 0, 180]",180,a,0.1700427885953104,colour,0.5
109,19,0,1,13,33,633,990.6503179470164,991.2964645035609,"[25, 0, 229]",229,l,0.11334678135608556,colour,0.5
109,19,0,1,13,34,634,991.8004549616235,992.5446027282305,"[96, 0, 158]",158,a,0.21148978597921086,colour,0.5
109,19,0,1,13,35,635,993.0505176784427,993.9525360373082,"[9, 0, 245]",245,l,0.3693988744926173,colour,0.5
109,19,0,1,13,36,636,994.4668133374144,995.1925464184678,"[78, 0, 176]",176,a,0.19279632335383212,colour,0.5
109,19,0,1,13,37,637,995.6998263818678,996.4644926545952,"[79, 0, 175]",175,a,0.23139235195412766,colour,0.5
109,19,0,1,13,38,638,996.9671735982411,997.8004713225309,"[34, 0, 220]",220,l,0.30070069607609184,colour,0.5
109,19,0,1,13,39,639,998.3167988692367,999.3605142586894,"[89, 0, 165]",165,a,0.5107552131885313,colour,0.5
109,19,0,1,13,40,640,999.8669511540211,1001.04058564359,"[19, 0, 235]",235,l,0.6408276567381108,colour,0.5
109,19,0,1,13,41,641,1001.5500246055235,1002.6966061697967,"[63, 0, 191]",191,a,0.6135331674158806,colour,0.5
109,19,0,1,13,42,642,1003.2000708331179,1003.7524680914139,"[7, 0, 247]",247,l,0.019346936627698597,colour,0.5
109,19,0,1,13,43,643,1004.267176870424,1005.0084855379173,"[42, 0, 212]",212,l,0.20872382976085646,colour,0.5
109,19,0,1,13,44,644,1005.5169842287214,1006.1524686046978,"[81, 0, 173]",173,a,0.10272470106428955,colour,0.5
109,19,0,1,13,45,645,1006.667149473913,1007.4324804487114,"[24, 0, 230]",230,l,0.23272464331239462,colour,0.5
109,19,0,1,13,46,646,1007.949989830573,1008.6564927469808,"[66, 0, 188]",188,a,0.17343976265692618,colour,0.5
109,19,0,1,13,47,647,1009.1672248624236,1009.7205957552724,"[70, 0, 184]",184,a,0.02086433084332384,colour,0.5
109,19,0,1,13,48,648,1010.2337977265415,1011.2644731498222,"[44, 0, 210]",210,l,0.4980822446887032,colour,0.5
109,19,0,1,13,49,649,1011.7667652812524,1012.5926184706332,"[11, 0, 243]",243,l,0.2928901259001577,colour,0.5
109,19,0,1,13,50,650,1013.1003231760915,1013.6724741481594,"[32, 0, 222]",222,l,0.03941631971974857,colour,0.5
109,19,0,1,14,1,651,1017.9498233342529,1018.9044692873649,"[96, 0, 158]",158,a,0.4214246438932605,colour,0.5
109,19,0,1,14,2,652,1019.4161936438832,1020.2004792142616,"[79, 0, 175]",175,a,0.2507700855785515,colour,0.5
109,19,0,1,14,3,653,1020.7167195027796,1021.504564373121,"[71, 0, 183]",183,a,0.25486287953390274,colour,0.5
109,19,0,1,14,4,654,1022.0166900531403,1022.5605680892986,"[44, 0, 210]",210,l,0.010861398710403591,colour,0.5
109,19,0,1,14,5,655,1023.0670842227555,1023.904505858809,"[1, 0, 253]",253,l,0.30481883339962224,colour,0.5
109,19,0,1,14,6,656,1024.4165038595675,1025.6726326244243,"[91, 0, 163]",163,a,0.7229514055288746,colour,0.5
109,19,0,1,14,7,657,1026.1829614915478,1027.3124956290703,"[7, 0, 247]",247,l,0.5961626928910846,colour,0.5
109,19,0,1,14,8,658,1027.8167613353799,1028.728591428291,"[60, 0, 194]",194,a,0.3788898063794477,colour,0.5
109,19,0,1,14,9,659,1029.2339866790135,1030.3525339841726,"[13, 0, 241]",241,l,0.5861895953567,colour,0.5
109,19,0,1,14,10,660,1030.8670191640776,1031.9125968100707,"[28, 0, 226]",226,l,0.5129241565955454,colour,0.5
109,19,0,1,14,11,661,1032.4165959297898,1033.4165041803717,"[59, 0, 195]",195,l,0.46684862564870855,colour,0.5
109,19,0,1,14,12,662,1033.9329879577272,1035.2725137351445,"[74, 0, 180]",180,l,0.8061771097418386,colour,0.5
109,19,0,1,14,13,663,1035.7834800361597,1036.4086073144135,"[65, 0, 189]",189,a,0.09228323237039149,colour,0.5
109,19,0,1,14,14,664,1036.9169950076757,1038.0565577415036,"[38, 0, 216]",216,l,0.6069086028292077,colour,0.5
109,19,0,1,14,15,665,1038.5669103479886,1041.0805075475146,"[67, 0, 187]",187,a,1.9808561311438098,colour,0.5
109,19,0,1,14,16,666,1041.583363649137,1042.4164785161993,"[3, 0, 251]",251,a,0.3001668812794378,colour,0.5
109,19,0,1,14,17,667,1042.93373446435,1044.4004544483396,"[89, 0, 165]",165,a,0.934155677590752,colour,0.5
109,19,0,1,14,18,668,1044.9170267670925,1045.5525056894257,"[21, 0, 233]",233,l,0.10284179385052994,colour,0.5
109,19,0,1,14,19,669,1046.0669478818381,1046.8324902652603,"[63, 0, 191]",191,l,0.2328706082989811,colour,0.5
109,19,0,1,14,20,670,1047.3504170107262,1049.3925476375152,"[49, 0, 205]",205,l,1.509603212638467,colour,0.5
109,19,0,1,14,21,671,1049.8999825483625,1050.9125506145574,"[29, 0, 225]",225,l,0.47959377463848796,colour,0.5
109,19,0,1,14,22,672,1051.4170043109407,1052.0965175000747,"[54, 0, 200]",200,l,0.14689723359333584,colour,0.5
109,19,0,1,14,23,673,1052.599775887611,1053.248486615812,"[87, 0, 167]",167,a,0.11555293780838838,colour,0.5
109,19,0,1,14,24,674,1053.7497608419872,1054.4406179162834,"[20, 0, 234]",234,l,0.15766078764136182,colour,0.5
109,19,0,1,14,25,675,1054.9497803467602,1055.8564955700422,"[11, 0, 243]",243,l,0.3735619241197128,colour,0.5
109,19,0,1,14,26,676,1056.366747123844,1057.448615193316,"[10, 0, 244]",244,l,0.5489980386118987,colour,0.5
109,19,0,1,14,27,677,1057.9499166876776,1058.8165691748873,"[97, 0, 157]",157,a,0.33363007532898337,colour,0.5
109,19,0,1,14,28,678,1059.3339133436384,1060.0564961474884,"[53, 0, 201]",201,l,0.19023279329849174,colour,0.5
109,19,0,1,14,29,679,1060.5668631900699,1061.3284988447922,"[66, 0, 188]",188,l,0.2288846414667205,colour,0.5
109,19,0,1,14,30,680,1061.8327299044686,1062.376585805272,"[56, 0, 198]",198,l,0.010300957335857674,colour,0.5
109,19,0,1,14,31,681,1062.882971372259,1063.5605074576888,"[16, 0, 238]",238,l,0.14425831503467634,colour,0.5
109,19,0,1,14,32,682,1064.0671182277874,1064.6165653894277,"[27, 0, 227]",227,l,0.01698583273537224,colour,0.5
109,19,0,1,14,33,683,1065.1330780389762,1065.6885123313114,"[23, 0, 231]",231,l,0.022259178629610687,colour,0.5
109,19,0,1,14,34,684,1066.2005780213294,1067.0085018988248,"[34, 0, 220]",220,l,0.27559921031206613,colour,0.5
109,19,0,1,14,35,685,1067.5170381234857,1068.1366116747595,"[93, 0, 161]",161,a,0.08703330504067708,colour,0.5
109,19,0,1,14,36,686,1068.6498559919128,1069.2804885560254,"[2, 0, 252]",252,l,0.09759603693964891,colour,0.5
109,19,0,1,14,37,687,1069.782890080991,1070.512510642613,"[61, 0, 193]",193,l,0.19625489143072627,colour,0.5
109,19,0,1,14,38,688,1071.016576489179,1071.848629180291,"[32, 0, 222]",222,l,0.299060434634157,colour,0.5
109,19,0,1,14,39,689,1072.349758083088,1073.1604642777165,"[80, 0, 174]",174,l,0.27757759723317577,colour,0.5
109,19,0,1,14,40,690,1073.6666057142575,1074.2085088923122,"[19, 0, 235]",235,l,0.008959362705354579,colour,0.5
109,19,0,1,14,41,691,1074.716941818675,1076.648669023918,"[42, 0, 212]",212,l,1.3991215153655503,colour,0.5
109,19,0,1,14,42,692,1077.151408995167,1077.6888527024057,"[99, 0, 155]",155,a,0.005948313642875291,colour,0.5
109,19,0,1,14,43,693,1078.1996441662413,1078.9045103500393,"[58, 0, 196]",196,l,0.17162370162986917,colour,0.5
109,19,0,1,14,44,694,1079.4164749873744,1080.2246391456938,"[35, 0, 219]",219,l,0.2750782276125392,colour,0.5
109,19,0,1,14,45,695,1080.7331137763322,1081.648509906052,"[33, 0, 221]",221,l,0.38231501104019117,colour,0.5
109,19,0,1,14,46,696,1082.1501046135818,1083.0645341663912,"[50, 0, 204]",204,l,0.3816650658627623,colour,0.5
109,19,0,1,14,47,697,1083.5664021973644,1084.2564986497455,"[92, 0, 162]",162,a,0.15695887252513785,colour,0.5
109,19,0,1,14,48,698,1084.7669308151671,1085.976489372144,"[8, 0, 246]",246,l,0.6769445262470981,colour,0.5
109,19,0,1,14,49,699,1086.4833073804402,1087.2324952697745,"[12, 0, 242]",242,l,0.2163124048456666,colour,0.5
109,19,0,1,14,50,700,1087.7497255537528,1088.3204977181304,"[68, 0, 186]",186,a,0.03763105569669278,colour,0.5
109,19,0,1,15,1,701,1092.3828642243316,1093.4245091566554,"[40, 0, 214]",214,l,0.5083299488687771,colour,0.5
109,19,0,1,15,2,702,1093.9331226946379,1094.6965124955677,"[74, 0, 180]",180,a,0.23034589531016536,colour,0.5
109,19,0,1,15,3,703,1095.1999155648737,1095.992502532732,"[8, 0, 246]",246,l,0.25966496705950703,colour,0.5
109,19,0,1,15,4,704,1096.4993176538046,1097.1845651815456,"[46, 0, 208]",208,l,0.15170830357965315,colour,0.5
109,19,0,1,15,5,705,1097.7008327382428,1098.4804916998837,"[12, 0, 242]",242,l,0.2476563798263669,colour,0.5
109,19,0,1,15,6,706,1098.9841061778134,1099.8085465544864,"[62, 0, 192]",192,a,0.29237748405284947,colour,0.5
109,19,0,1,15,7,707,1100.3167144982654,1101.5204790474454,"[11, 0, 243]",243,l,0.670955470734043,colour,0.5
109,19,0,1,15,8,708,1102.0334763469364,1103.048493737624,"[73, 0, 181]",181,a,0.4823385579220485,colour,0.5
109,19,0,1,15,9,709,1103.5491250762716,1106.1845488206309,"[45, 0, 209]",209,l,2.1017093622212997,colour,0.5
109,19,0,1,15,10,710,1106.7000220711852,1107.6644608310162,"[10, 0, 244]",244,l,0.43166881924844347,colour,0.5
109,19,0,1,15,11,711,1108.1668459950743,1108.8806593510963,"[48, 0, 206]",206,l,0.1811428641085513,colour,0.5
109,19,0,1,15,12,712,1109.3837534879203,1110.2006267832548,"[98, 0, 156]",156,a,0.2844924877717858,colour,0.5
109,19,0,1,15,13,713,1110.716402871054,1111.5924497286978,"[70, 0, 184]",184,l,0.3430000648004352,colour,0.5
109,19,0,1,15,14,714,1112.1005490208117,1113.0165299728687,"[22, 0, 232]",232,l,0.3837371270128642,colour,0.5
109,19,0,1,15,15,715,1113.5328620107975,1114.4086547931365,"[58, 0, 196]",196,l,0.34251565353770275,colour,0.5
109,19,0,1,15,16,716,1114.916905824677,1115.8725767406868,"[82, 0, 172]",172,a,0.4230815870469087,colour,0.5
109,19,0,1,15,17,717,1116.3829726554613,1117.2966030900934,"[6, 0, 248]",248,l,0.38043126076081535,colour,0.5
109,19,0,1,15,18,718,1117.7997722946238,1118.8325473680452,"[76, 0, 178]",178,a,0.4997613231971627,colour,0.5
109,19,0,1,15,19,719,1119.3500981333782,1120.4725319567078,"[35, 0, 219]",219,l,0.5897219479375053,colour,0.5
109,19,0,1,15,20,720,1120.9830000519723,1121.7285484408058,"[0, 0, 254]",254,l,0.2124416059887153,colour,0.5
109,19,0,1,15,21,721,1122.233605886846,1122.99253493375,"[51, 0, 203]",203,l,0.2264305049466202,colour,0.5
109,19,0,1,15,22,722,1123.5009014540701,1124.2246349752604,"[33, 0, 221]",221,l,0.19186984671250684,colour,0.5
109,19,0,1,15,23,723,1124.7340344785334,1125.3925306349993,"[26, 0, 228]",228,l,0.12643711346754571,colour,0.5
109,19,0,1,15,24,724,1125.899139480287,1127.7445304835855,"[4, 0, 250]",250,l,1.3117738242144696,colour,0.5
109,19,0,1,15,25,725,1128.2497005311816,1130.3605947800315,"[19, 0, 235]",235,l,1.5778423231677152,colour,0.5
109,19,0,1,15,26,726,1130.8668372692555,1131.584616060769,"[36, 0, 218]",218,l,0.18521897634491324,colour,0.5
109,19,0,1,15,27,727,1132.1007597878342,1132.7125872501638,"[42, 0, 212]",212,l,0.07985503591771703,colour,0.5
109,19,0,1,15,28,728,1133.2168067609673,1134.048621737682,"[63, 0, 191]",191,l,0.2991996627752087,colour,0.5
109,19,0,1,15,29,729,1134.5666116811772,1135.2405942410842,"[61, 0, 193]",193,l,0.1411798975095735,colour,0.5
109,19,0,1,15,30,730,1135.7497653332175,1137.0084881043367,"[59, 0, 195]",195,l,0.7257558580095065,colour,0.5
109,19,0,1,15,31,731,1137.5161796569082,1138.336620593058,"[71, 0, 183]",183,l,0.28722540137096075,colour,0.5
109,19,0,1,15,32,732,1138.8501719178748,1139.9365751674777,"[27, 0, 227]",227,l,0.553866532187385,colour,0.5
109,19,0,1,15,33,733,1140.449858301683,1141.0005238699232,"[38, 0, 216]",216,l,0.017803557435399853,colour,0.5
109,19,0,1,15,34,734,1141.5172915571893,1143.1205391657713,"[20, 0, 234]",234,l,1.071170600662299,colour,0.5
109,19,0,1,15,35,735,1143.6326796026915,1144.4166732431113,"[96, 0, 158]",158,a,0.2505965316158836,colour,0.5
109,19,0,1,15,36,736,1144.933297211006,1145.4806100758797,"[16, 0, 238]",238,l,0.014568267659342382,colour,0.5
109,19,0,1,15,37,737,1145.9840526038533,1146.5285552418136,"[44, 0, 210]",210,l,0.012485620049119461,colour,0.5
109,19,0,1,15,38,738,1147.0333797854837,1147.9445612164272,"[68, 0, 186]",186,l,0.37849521972384537,colour,0.5
109,19,0,1,15,39,739,1148.450367735517,1149.2645960170485,"[15, 0, 239]",239,l,0.2818939902863349,colour,0.5
109,19,0,1,15,40,740,1149.7668528602371,1150.4325616116548,"[66, 0, 188]",188,l,0.13320218940498307,colour,0.5
109,19,0,1,15,41,741,1150.9495532188303,1152.4246791818005,"[87, 0, 167]",167,l,0.941987420708756,colour,0.5
109,19,0,1,15,42,742,1152.932819857393,1154.104578937542,"[80, 0, 174]",174,a,0.6385704927452025,colour,0.5
109,19,0,1,15,43,743,1154.6167405474043,1155.280638691438,"[55, 0, 199]",199,l,0.13128667972341646,colour,0.5
109,19,0,1,15,44,744,1155.7830257802998,1156.616677349375,"[85, 0, 169]",169,l,0.3006801647352404,colour,0.5
109,19,0,1,15,45,745,1157.133243893688,1157.8485476965434,"[57, 0, 197]",197,l,0.1825380326990853,colour,0.5
109,19,0,1,15,46,746,1158.3513117279508,1159.640550483673,"[90, 0, 164]",164,a,0.7578854774765205,colour,0.5
109,19,0,1,15,47,747,1160.1497735457524,1160.9845530552266,"[83, 0, 171]",171,a,0.3018905512872152,colour,0.5
109,19,0,1,15,48,748,1161.5010118100108,1162.0645357704052,"[32, 0, 222]",222,l,0.03187650656764163,colour,0.5
109,19,0,1,15,49,749,1162.567004984623,1163.6165811087267,"[97, 0, 157]",157,a,0.517259476975596,colour,0.5
109,19,0,1,15,50,750,1164.1330372970988,1164.9365937740004,"[93, 0, 161]",161,a,0.27060047106351703,colour,0.5
109,19,0,1,16,1,751,1170.6320957427597,1171.624529623834,"[32, 0, 222]",222,l,0.4585491529869614,colour,0.5
109,19,0,1,16,2,752,1172.1331364249709,1172.960466908291,"[86, 0, 168]",168,a,0.2945015151417465,colour,0.5
109,19,0,1,16,3,753,1173.4664585302235,1174.2406102811947,"[58, 0, 196]",196,l,0.24130353466171073,colour,0.5
109,19,0,1,16,4,754,1174.7513372637986,1175.5524671931635,"[22, 0, 232]",232,l,0.26983150828891667,colour,0.5
109,19,0,1,16,5,755,1176.0670364232355,1176.8405517027204,"[14, 0, 240]",240,l,0.2412624719872838,colour,0.5
109,19,0,1,16,6,756,1177.3499415819242,1178.208880702019,"[76, 0, 178]",178,a,0.3262593249164638,colour,0.5
109,19,0,1,16,7,757,1178.7170688563347,1179.664490665622,"[54, 0, 200]",200,l,0.4152004404022591,colour,0.5
109,19,0,1,16,8,758,1180.166161724068,1180.9366929018652,"[53, 0, 201]",201,l,0.2374298485883628,colour,0.5
109,19,0,1,16,9,759,1181.449943955864,1182.328498523988,"[42, 0, 212]",212,l,0.3458536000107415,colour,0.5
109,19,0,1,16,10,760,1182.8336608723403,1183.704574574629,"[0, 0, 254]",254,l,0.3386336266048602,colour,0.5
109,19,0,1,16,11,761,1184.2164272520167,1185.0565968793671,"[10, 0, 244]",244,l,0.30734386719268514,colour,0.5
109,19,0,1,16,12,762,1185.567017816713,1186.312559789505,"[61, 0, 193]",193,a,0.213279220428376,colour,0.5
109,19,0,1,16,13,763,1186.817298037393,1187.752623038854,"[97, 0, 157]",157,a,0.40336797355121234,colour,0.5
109,19,0,1,16,14,764,1188.2666122586234,1189.0566825335409,"[65, 0, 189]",189,l,0.2574360336511745,colour,0.5
109,19,0,1,16,15,765,1189.5660425781462,1190.3525769716653,"[41, 0, 213]",213,l,0.25331404670578195,colour,0.5
109,19,0,1,16,16,766,1190.8660670232712,1191.79257445658,"[48, 0, 206]",206,l,0.39333905644889455,colour,0.5
109,19,0,1,16,17,767,1192.2993818784016,1193.1045757295215,"[19, 0, 235]",235,l,0.2720033389123273,colour,0.5
109,19,0,1,16,18,768,1193.6163976098978,1194.4406904175776,"[80, 0, 174]",174,a,0.2914429873635527,colour,0.5
109,19,0,1,16,19,769,1194.9499988130337,1195.8885623122915,"[21, 0, 233]",233,l,0.4059975888521876,colour,0.5
109,19,0,1,16,20,770,1196.400060182481,1197.376664080999,"[36, 0, 218]",218,l,0.4440771259687608,colour,0.5
109,19,0,1,16,21,771,1197.883181497673,1198.7525835801935,"[83, 0, 171]",171,a,0.3366963023727294,colour,0.5
109,19,0,1,16,22,772,1199.2673632564765,1200.288587206538,"[90, 0, 164]",164,a,0.4893548219479271,colour,0.5
109,19,0,1,16,23,773,1200.7988993919498,1201.8246418404306,"[31, 0, 223]",223,l,0.4920537305151811,colour,0.5
109,19,0,1,16,24,774,1202.3331645914004,1202.952598593729,"[73, 0, 181]",181,a,0.08670704923861194,colour,0.5
109,19,0,1,16,25,775,1203.4666500491148,1204.0485704093371,"[87, 0, 167]",167,a,0.04937016912299441,colour,0.5
109,19,0,1,16,26,776,1204.5663826284363,1205.3445796946326,"[1, 0, 253]",253,l,0.24537675968167605,colour,0.5
109,19,0,1,16,27,777,1205.849965962887,1206.5125712742156,"[5, 0, 249]",249,l,0.12999513022077736,colour,0.5
109,19,0,1,16,28,778,1207.0159592658238,1207.5925709919102,"[99, 0, 155]",155,a,0.04336699831037549,colour,0.5
109,19,0,1,16,29,779,1208.0992747946366,1208.7925786270062,"[25, 0, 229]",229,l,0.16001515469542937,colour,0.5
109,19,0,1,16,30,780,1209.3003792523086,1210.000689403838,"[7, 0, 247]",247,l,0.16815422627405496,colour,0.5
109,19,0,1,16,31,781,1210.5172318879922,1211.272686326709,"[77, 0, 177]",177,a,0.22345025288814213,colour,0.5
109,19,0,1,16,32,782,1211.783142552289,1212.6167142416234,"[24, 0, 230]",230,l,0.30085115228575887,colour,0.5
109,19,0,1,16,33,783,1213.132499311876,1213.9286022714077,"[49, 0, 205]",205,l,0.2627462718010065,colour,0.5
109,19,0,1,16,34,784,1214.433243316249,1215.1605871449428,"[63, 0, 191]",191,l,0.1947358932084171,colour,0.5
109,19,0,1,16,35,785,1215.666295498566,1216.273305795672,"[79, 0, 175]",175,a,0.07412101812224137,colour,0.5
109,19,0,1,16,36,786,1216.7832776099967,1217.5045974157474,"[70, 0, 184]",184,a,0.18871604068408487,colour,0.5
109,19,0,1,16,37,787,1218.0159894212265,1218.6406970902608,"[38, 0, 216]",216,l,0.0915049663381069,colour,0.5
109,19,0,1,16,38,788,1219.1497924730793,1219.8326593279926,"[46, 0, 208]",208,l,0.15015658352785977,colour,0.5
109,19,0,1,16,39,789,1220.3498783839023,1221.184586675292,"[18, 0, 236]",236,l,0.30207725814398145,colour,0.5
109,19,0,1,16,40,790,1221.7004429636218,1222.3765758604059,"[67, 0, 187]",187,a,0.14403728234174196,colour,0.5
109,19,0,1,16,41,791,1222.8828196328323,1223.488578159915,"[3, 0, 251]",251,l,0.07273868161428254,colour,0.5
109,19,0,1,16,42,792,1223.999596751688,1225.0405978340714,"[20, 0, 234]",234,l,0.5081085953788715,colour,0.5
109,19,0,1,16,43,793,1225.5492283745625,1226.3607657675893,"[39, 0, 215]",215,l,0.2782820787761011,colour,0.5
109,19,0,1,16,44,794,1226.865891223686,1227.64858304894,"[96, 0, 158]",158,a,0.24942784934683004,colour,0.5
109,19,0,1,16,45,795,1228.1665851829166,1228.9925759964244,"[8, 0, 246]",246,l,0.2934056549711386,colour,0.5
109,19,0,1,16,46,796,1229.4995765411513,1230.2087004112036,"[94, 0, 160]",160,a,0.1762252878106665,colour,0.5
109,19,0,1,16,47,797,1230.716282891044,1231.5205794585272,"[95, 0, 159]",159,a,0.2714461055584252,colour,0.5
109,19,0,1,16,48,798,1232.0331234645637,1232.856764723052,"[71, 0, 183]",183,l,0.29095376406621654,colour,0.5
109,19,0,1,16,49,799,1233.3663724269281,1233.91258205317,"[89, 0, 165]",165,l,0.013437760848319158,colour,0.5
109,19,0,1,16,50,800,1234.4163668770489,1235.2246792459628,"[81, 0, 173]",173,l,0.2755536564072827,colour,0.5
