id,age,condition,counterbalance,block,trialinblock,trial,tstart,tend,trialstim,trialintensity,response,RT,trialtype,colourfreq
011,68,1,1,Practice,1,NA,6.3015613704919815e-06,15.992850914597511,"[67, 0, 187]",187,a,15.370921433437616,colour,0.5
011,68,1,1,Practice,2,NA,16.499939741799608,17.51285039470531,"[19, 0, 235]",235,a,0.48956427280791104,colour,0.5
011,68,1,1,Practice,3,NA,18.031249286141247,19.080828147241846,"[95, 0, 159]",159,a,0.5274159868713468,colour,0.5
011,68,1,1,Practice,4,NA,19.60093869175762,23.224833068670705,"[66, 0, 188]",188,a,3.1003676154650748,colour,0.5
011,68,1,1,Practice,5,NA,23.73510613758117,24.320860899286345,"[65, 0, 189]",189,a,0.06272779032588005,colour,0.5
011,68,1,1,Practice,6,NA,24.82116140355356,25.560874353162944,"[10, 0, 244]",244,a,0.21698136255145073,colour,0.5
011,68,1,1,Practice,7,NA,26.071187594207004,27.76882680482231,"[25, 0, 229]",229,a,1.1748095559887588,colour,0.5
011,68,1,1,Practice,8,NA,28.298392795026302,28.904834691202268,"[8, 0, 246]",246,a,0.07816220610402524,colour,0.5
011,68,1,1,Practice,9,NA,29.4238586158026,30.120836165733635,"[99, 0, 155]",155,l,0.16516348905861378,colour,0.5
011,68,1,1,Practice,10,NA,30.634352553403005,31.184812840772793,"[49, 0, 205]",205,a,0.01867537130601704,colour,0.5
011,68,1,1,1,1,1,4.897810060763732,5.57594800600782,"[77, 0, 177]",177,a,0.158974205609411,colour,0.5
011,68,1,1,1,2,2,6.089011471020058,7.816035896539688,"[20, 0, 234]",234,a,1.2089583335909992,colour,0.5
011,68,1,1,1,3,3,8.333697509253398,9.879972005262971,"[15, 0, 239]",239,a,1.0289673446677625,colour,0.5
011,68,1,1,1,4,4,10.392786953831092,11.736013557529077,"[68, 0, 186]",186,a,0.8200058604124933,colour,0.5
011,68,1,1,1,5,5,12.246699770679697,12.831968526821584,"[36, 0, 218]",218,a,0.06715264590457082,colour,0.5
011,68,1,1,1,6,6,13.34427344542928,15.183983401628211,"[76, 0, 178]",178,a,1.3235122677870095,colour,0.5
011,68,1,1,1,7,7,15.700695058563724,17.959974651923403,"[89, 0, 165]",165,l,1.7415860791224986,colour,0.5
011,68,1,1,1,8,8,18.470701824873686,20.479934747563675,"[65, 0, 189]",189,a,1.492232576943934,colour,0.5
011,68,1,1,1,9,9,20.995787821011618,21.935915805166587,"[24, 0, 230]",230,a,0.4208894136827439,colour,0.5
011,68,1,1,1,10,10,22.446720959385857,23.047906986204907,"[3, 0, 251]",251,a,0.0834936941973865,colour,0.5
011,68,1,1,1,11,11,23.559159155236557,24.111938011832535,"[42, 0, 212]",212,a,0.035240517696365714,colour,0.5
011,68,1,1,1,12,12,24.63066812744364,26.079984923591837,"[33, 0, 221]",221,a,0.932323933346197,colour,0.5
011,68,1,1,1,13,13,26.59968350548297,28.51994788623415,"[48, 0, 206]",206,a,1.4012117052916437,colour,0.5
011,68,1,1,1,14,14,29.03706559794955,30.871998207177967,"[34, 0, 220]",220,a,1.3139812042936683,colour,0.5
011,68,1,1,1,15,15,31.37787202047184,32.16799248219468,"[63, 0, 191]",191,a,0.2630124620627612,colour,0.5
011,68,1,1,1,16,16,32.68979498744011,33.2719657542184,"[4, 0, 250]",250,a,0.06486125220544636,colour,0.5
011,68,1,1,1,17,17,33.789644302101806,34.503914825385436,"[9, 0, 245]",245,a,0.1959515823982656,colour,0.5
011,68,1,1,1,18,18,35.02557948464528,36.90390521544032,"[29, 0, 225]",225,a,1.3467259220778942,colour,0.5
011,68,1,1,1,19,19,37.42438715649769,39.63199578109197,"[50, 0, 204]",204,a,1.6749643373768777,colour,0.5
011,68,1,1,1,20,20,40.151219779159874,40.7759479272645,"[52, 0, 202]",202,a,0.10606380458921194,colour,0.5
011,68,1,1,1,21,21,41.29366625356488,43.51990298787132,"[85, 0, 169]",169,a,1.7019939615856856,colour,0.5
011,68,1,1,1,22,22,44.03587224590592,44.77593493019231,"[28, 0, 226]",226,a,0.21648551081307232,colour,0.5
011,68,1,1,1,23,23,45.28602486103773,45.927934917621315,"[47, 0, 207]",207,a,0.11285764118656516,colour,0.5
011,68,1,1,1,24,24,46.448516107862815,46.98391022509895,"[5, 0, 249]",249,a,0.015144939068704844,colour,0.5
011,68,1,1,1,25,25,47.492276687407866,49.07189887925051,"[2, 0, 252]",252,a,1.05565314181149,colour,0.5
011,68,1,1,1,26,26,49.586144275031984,50.575994479702786,"[30, 0, 224]",224,a,0.4670804145280272,colour,0.5
011,68,1,1,1,27,27,51.08772832201794,51.60790739580989,"[94, 0, 160]",160,l,0.00782216782681644,colour,0.5
011,68,1,1,1,28,28,52.13351760036312,52.76794852898456,"[40, 0, 214]",214,a,0.10774198058061302,colour,0.5
011,68,1,1,1,29,29,53.28460662299767,54.49591936543584,"[56, 0, 198]",198,a,0.6885547677520663,colour,0.5
011,68,1,1,1,30,30,55.004986085230485,55.72791294101626,"[0, 0, 254]",254,a,0.20487139746546745,colour,0.5
011,68,1,1,1,31,31,56.24265694548376,57.39992737467401,"[16, 0, 238]",238,a,0.6365356394089758,colour,0.5
011,68,1,1,1,32,32,57.918241983279586,58.52788190613501,"[74, 0, 180]",180,l,0.0921397868078202,colour,0.5
011,68,1,1,1,33,33,59.04701965209097,59.78388352249749,"[73, 0, 181]",181,l,0.20985708921216428,colour,0.5
011,68,1,1,1,34,34,60.29343112767674,60.89590660482645,"[71, 0, 183]",183,l,0.08005542191676795,colour,0.5
011,68,1,1,1,35,35,61.410209502093494,62.01587552251294,"[69, 0, 185]",185,l,0.09632597165182233,colour,0.5
011,68,1,1,1,36,36,62.53045450570062,63.06396328401752,"[93, 0, 161]",161,l,0.01592751033604145,colour,0.5
011,68,1,1,1,37,37,63.57179647940211,65.4638800250832,"[70, 0, 184]",184,l,1.3690746913198382,colour,0.5
011,68,1,1,1,38,38,65.97813211614266,67.80786990164779,"[45, 0, 209]",209,a,1.3061621871311218,colour,0.5
011,68,1,1,1,39,39,68.32767364056781,69.51987266167998,"[58, 0, 196]",196,a,0.6733479949180037,colour,0.5
011,68,1,1,1,40,40,70.02627225895412,71.27191573590972,"[64, 0, 190]",190,a,0.7222470783162862,colour,0.5
011,68,1,1,1,41,41,71.786190276267,72.34392804279923,"[99, 0, 155]",155,l,0.039580302545800805,colour,0.5
011,68,1,1,1,42,42,72.8633674744051,74.87190801650286,"[51, 0, 203]",203,a,1.4764307031873614,colour,0.5
011,68,1,1,1,43,43,75.39040812640451,76.719902909128,"[27, 0, 227]",227,a,0.8110210604500026,colour,0.5
011,68,1,1,1,44,44,77.2340852895286,78.3519124747254,"[90, 0, 164]",164,l,0.5943843128625304,colour,0.5
011,68,1,1,1,45,45,78.86525793327019,80.11187932873145,"[67, 0, 187]",187,a,0.7290381581988186,colour,0.5
011,68,1,1,1,46,46,80.62999622686766,81.83987773442641,"[75, 0, 179]",179,l,0.6922254087403417,colour,0.5
011,68,1,1,1,47,47,82.35355205414817,83.53586751967669,"[55, 0, 199]",199,a,0.6516589170787483,colour,0.5
011,68,1,1,1,48,48,84.04847609298304,84.67990906885825,"[31, 0, 223]",223,a,0.10728630144149065,colour,0.5
011,68,1,1,1,49,49,85.19768529036082,86.56793364160694,"[44, 0, 210]",210,a,0.8514946047216654,colour,0.5
011,68,1,1,1,50,50,87.078017270891,87.79189906828105,"[14, 0, 240]",240,a,0.1925156731158495,colour,0.5
011,68,1,1,2,1,51,93.21255138679408,94.63183784903958,"[3, 0, 251]",251,a,0.9004637927282602,colour,0.5
011,68,1,1,2,2,52,95.14798670052551,96.41583598055877,"[85, 0, 169]",169,l,0.7472665144596249,colour,0.5
011,68,1,1,2,3,53,96.92618230474181,98.58393007493578,"[67, 0, 187]",187,a,1.1400054192636162,colour,0.5
011,68,1,1,2,4,54,99.09477737080306,100.49580318108201,"[1, 0, 253]",253,a,0.8797093103639781,colour,0.5
011,68,1,1,2,5,55,101.0174249112606,102.29580995510332,"[37, 0, 217]",217,a,0.7613760335370898,colour,0.5
011,68,1,1,2,6,56,102.8097871420905,104.15982097340748,"[33, 0, 221]",221,a,0.7852241729851812,colour,0.5
011,68,1,1,2,7,57,104.67968812142499,105.9998743631877,"[17, 0, 237]",237,a,0.7967898431234062,colour,0.5
011,68,1,1,2,8,58,106.4962115988601,107.59984537609853,"[95, 0, 159]",159,l,0.5802094156388193,colour,0.5
011,68,1,1,2,9,59,108.11821906152181,109.23190299095586,"[90, 0, 164]",164,l,0.5901930078398436,colour,0.5
011,68,1,1,2,10,60,109.74342218739912,111.07180593162775,"[4, 0, 250]",250,a,0.804981044260785,colour,0.5
011,68,1,1,2,11,61,111.58729745494202,112.85579973086715,"[25, 0, 229]",229,a,0.7357634657528251,colour,0.5
011,68,1,1,2,12,62,113.36909438343719,114.68789231940173,"[57, 0, 197]",197,a,0.7955401712097228,colour,0.5
011,68,1,1,2,13,63,115.19812364061363,116.28780583082698,"[82, 0, 172]",172,l,0.566634738817811,colour,0.5
011,68,1,1,2,14,64,116.80699517065659,118.10388229368255,"[98, 0, 156]",156,l,0.7736388104967773,colour,0.5
011,68,1,1,2,15,65,118.61959240119904,119.90378824318759,"[80, 0, 174]",174,l,0.7607506066560745,colour,0.5
011,68,1,1,2,16,66,120.41664809011854,121.78382523334585,"[6, 0, 248]",248,a,0.8438622707035393,colour,0.5
011,68,1,1,2,17,67,122.28122270153835,123.68780803633854,"[68, 0, 186]",186,a,0.8866784083656967,colour,0.5
011,68,1,1,2,18,68,124.20639321696945,125.25577594269998,"[35, 0, 219]",219,a,0.5269181658513844,colour,0.5
011,68,1,1,2,19,69,125.76816750713624,127.01582471653819,"[51, 0, 203]",203,a,0.7248937208205462,colour,0.5
011,68,1,1,2,20,70,127.52278278698213,128.7598227064591,"[30, 0, 224]",224,a,0.7138617115560919,colour,0.5
011,68,1,1,2,21,71,129.26908989367075,130.6717934862245,"[59, 0, 195]",195,a,0.8793292494956404,colour,0.5
011,68,1,1,2,22,72,131.1910545057617,132.3757996049244,"[88, 0, 166]",166,l,0.6612978945486248,colour,0.5
011,68,1,1,2,23,73,132.8898283855524,133.9918718142435,"[47, 0, 207]",207,a,0.5812905218917876,colour,0.5
011,68,1,1,2,24,74,134.50181011436507,135.51978680328466,"[81, 0, 173]",173,l,0.48613387742079794,colour,0.5
011,68,1,1,2,25,75,136.03159783943556,137.42376803117804,"[64, 0, 190]",190,a,0.8654536746907979,colour,0.5
011,68,1,1,2,26,76,137.9375927997753,139.14378239866346,"[10, 0, 244]",244,a,0.6768748823087662,colour,0.5
011,68,1,1,2,27,77,139.6537348772399,140.9197886150796,"[28, 0, 226]",226,a,0.733985252911225,colour,0.5
011,68,1,1,2,28,78,141.435217123013,142.91180772753432,"[26, 0, 228]",228,a,0.9511859870981425,colour,0.5
011,68,1,1,2,29,79,143.42180786142126,144.6557809051592,"[29, 0, 225]",225,a,0.7018383925314993,colour,0.5
011,68,1,1,2,30,80,145.16807322041132,146.52776138926856,"[32, 0, 222]",222,a,0.8419757501687855,colour,0.5
011,68,1,1,2,31,81,147.04756946046837,148.12782338052057,"[46, 0, 208]",208,a,0.5551442930009216,colour,0.5
011,68,1,1,2,32,82,148.64937933860347,149.98407721566036,"[9, 0, 245]",245,a,0.8157956507056952,colour,0.5
011,68,1,1,2,33,83,150.49936354532838,151.29575914912857,"[70, 0, 184]",184,l,0.27834841632284224,colour,0.5
011,68,1,1,2,34,84,151.81502489489503,153.55177100538276,"[50, 0, 204]",204,a,1.2091867639683187,colour,0.5
011,68,1,1,2,35,85,154.0664165483322,155.20775671047159,"[58, 0, 196]",196,a,0.6181395049206913,colour,0.5
011,68,1,1,2,36,86,155.72714297287166,157.1758071668446,"[42, 0, 212]",212,a,0.92532529681921,colour,0.5
011,68,1,1,2,37,87,157.695150106214,159.1917575201951,"[69, 0, 185]",185,a,0.9730597788002342,colour,0.5
011,68,1,1,2,38,88,159.71238991012797,160.35973070398904,"[73, 0, 181]",181,l,0.12407790892757475,colour,0.5
011,68,1,1,2,39,89,160.86871353466995,162.27178379753605,"[53, 0, 201]",201,a,0.8799251378513873,colour,0.5
011,68,1,1,2,40,90,162.79314519581385,163.8237670857925,"[44, 0, 210]",210,a,0.5130666156765074,colour,0.5
011,68,1,1,2,41,91,164.34430574066937,165.42374597582966,"[45, 0, 209]",209,a,0.5615880012046546,colour,0.5
011,68,1,1,2,42,92,165.932615772821,166.9199020427186,"[97, 0, 157]",157,l,0.46382449311204255,colour,0.5
011,68,1,1,2,43,93,167.42360143433325,168.79989334661514,"[41, 0, 213]",213,a,0.8505190492141992,colour,0.5
011,68,1,1,2,44,94,169.31912325229496,170.56777019565925,"[54, 0, 200]",200,a,0.7252718124072999,colour,0.5
011,68,1,1,2,45,95,171.0849674642086,172.28772666794248,"[77, 0, 177]",177,l,0.6901695348788053,colour,0.5
011,68,1,1,2,46,96,172.80586877209134,173.8877051640302,"[27, 0, 227]",227,a,0.5633020175155252,colour,0.5
011,68,1,1,2,47,97,174.39107648236677,175.3997580211144,"[83, 0, 171]",171,l,0.4851173621136695,colour,0.5
011,68,1,1,2,48,98,175.90739941364154,177.03981818491593,"[39, 0, 215]",215,a,0.6203749724663794,colour,0.5
011,68,1,1,2,49,99,177.55234483862296,179.2318198895082,"[40, 0, 214]",214,a,1.1601900067180395,colour,0.5
011,68,1,1,2,50,100,179.75272679002956,180.91174195543863,"[56, 0, 198]",198,a,0.6356427916325629,colour,0.5
011,68,1,1,3,1,101,186.09262579213828,187.48771910602227,"[39, 0, 215]",215,a,0.872859941329807,colour,0.5
011,68,1,1,3,2,102,188.00000275671482,189.05575436004438,"[78, 0, 176]",176,l,0.5256606170441955,colour,0.5
011,68,1,1,3,3,103,189.57543324981816,190.64771415945143,"[48, 0, 206]",206,a,0.5544684543274343,colour,0.5
011,68,1,1,3,4,104,191.16995501494966,192.2877258802764,"[79, 0, 175]",175,l,0.5983582152985036,colour,0.5
011,68,1,1,3,5,105,192.79796625999734,194.039731932804,"[9, 0, 245]",245,a,0.7190738641656935,colour,0.5
011,68,1,1,3,6,106,194.56075344234705,195.64766807947308,"[94, 0, 160]",160,l,0.5544003190007061,colour,0.5
011,68,1,1,3,7,107,196.16924530500546,197.22379134688526,"[14, 0, 240]",240,a,0.5221861109603196,colour,0.5
011,68,1,1,3,8,108,197.7476702062413,198.71171210194007,"[98, 0, 156]",156,l,0.4465307320933789,colour,0.5
011,68,1,1,3,9,109,199.23291990044527,200.22371494071558,"[15, 0, 239]",239,a,0.4722437304444611,colour,0.5
011,68,1,1,3,10,110,200.73538458626717,201.71169516653754,"[75, 0, 179]",179,l,0.4575426555238664,colour,0.5
011,68,1,1,3,11,111,202.2199363859836,203.207761436468,"[87, 0, 167]",167,l,0.458852979587391,colour,0.5
011,68,1,1,3,12,112,203.75651991716586,205.24768202146515,"[2, 0, 252]",252,a,0.9722748443018645,colour,0.5
011,68,1,1,3,13,113,205.76775908935815,206.95170546951704,"[35, 0, 219]",219,a,0.6605149295646697,colour,0.5
011,68,1,1,3,14,114,207.47108227969147,208.5357151015196,"[49, 0, 205]",205,a,0.5523042725399137,colour,0.5
011,68,1,1,3,15,115,209.053754018154,210.16767504252493,"[84, 0, 170]",170,l,0.5905565274879336,colour,0.5
011,68,1,1,3,16,116,210.6789693532046,211.8476908437442,"[70, 0, 184]",184,l,0.6453936211764812,colour,0.5
011,68,1,1,3,17,117,212.36865130718797,213.00770401395857,"[40, 0, 214]",214,a,0.11598398792557418,colour,0.5
011,68,1,1,3,18,118,213.52139290585183,214.80767022189684,"[29, 0, 225]",225,a,0.7635528182145208,colour,0.5
011,68,1,1,3,19,119,215.32024059235118,216.48768011527136,"[7, 0, 247]",247,a,0.6352154689375311,colour,0.5
011,68,1,1,3,20,120,217.00024182116613,218.1116382952314,"[22, 0, 232]",232,a,0.5929735579993576,colour,0.5
011,68,1,1,3,21,121,218.62989067612216,219.7276817536913,"[25, 0, 229]",229,a,0.5799884682055563,colour,0.5
011,68,1,1,3,22,122,220.24090472632088,221.2556613336783,"[81, 0, 173]",173,l,0.4974006190896034,colour,0.5
011,68,1,1,3,23,123,221.77032499341294,222.7677275815513,"[88, 0, 166]",166,l,0.4780182947870344,colour,0.5
011,68,1,1,3,24,124,223.2727254824713,224.12765284557827,"[77, 0, 177]",177,l,0.33705031708814204,colour,0.5
011,68,1,1,3,25,125,224.64472999121062,225.29571818909608,"[4, 0, 250]",250,a,0.1326562601607293,colour,0.5
011,68,1,1,3,26,126,225.80923536443152,227.10367591842078,"[53, 0, 201]",201,a,0.7627887576818466,colour,0.5
011,68,1,1,3,27,127,227.61413015634753,228.8076863696333,"[38, 0, 216]",216,a,0.6632931164931506,colour,0.5
011,68,1,1,3,28,128,229.3185639914591,229.91163522331044,"[46, 0, 208]",208,a,0.07529934239573777,colour,0.5
011,68,1,1,3,29,129,230.42407404910773,231.70363393449225,"[10, 0, 244]",244,a,0.7470451733097434,colour,0.5
011,68,1,1,3,30,130,232.22264092369005,232.815681041684,"[34, 0, 220]",220,a,0.061671102652326226,colour,0.5
011,68,1,1,3,31,131,233.3174387747422,233.97563749807887,"[82, 0, 172]",172,l,0.14040044648572803,colour,0.5
011,68,1,1,3,32,132,234.53852558368817,235.54374128114432,"[93, 0, 161]",161,l,0.47292980970814824,colour,0.5
011,68,1,1,3,33,133,236.05446884781122,236.8236646859441,"[67, 0, 187]",187,l,0.25073629431426525,colour,0.5
011,68,1,1,3,34,134,237.34597682766616,238.44764649658464,"[80, 0, 174]",174,l,0.5795619334094226,colour,0.5
011,68,1,1,3,35,135,238.95908062253147,240.167637627339,"[8, 0, 246]",246,a,0.6855001011863351,colour,0.5
011,68,1,1,3,36,136,240.68741970462725,241.70364535599947,"[86, 0, 168]",168,l,0.49817570694722235,colour,0.5
011,68,1,1,3,37,137,242.22175752813928,243.50365370558575,"[27, 0, 227]",227,a,0.7569858364295214,colour,0.5
011,68,1,1,3,38,138,244.02509741764516,245.15965752745979,"[5, 0, 249]",249,a,0.6020032563246787,colour,0.5
011,68,1,1,3,39,139,245.67504586325958,246.68768673203886,"[71, 0, 183]",183,l,0.48920784262008965,colour,0.5
011,68,1,1,3,40,140,247.19909092551097,248.31962501164526,"[6, 0, 248]",248,a,0.5972696258686483,colour,0.5
011,68,1,1,3,41,141,248.8351251995191,250.06360212760046,"[51, 0, 203]",203,a,0.7058457715902478,colour,0.5
011,68,1,1,3,42,142,250.56963741779327,251.20764407049865,"[85, 0, 169]",169,l,0.11461773724295199,colour,0.5
011,68,1,1,3,43,143,251.72607210674323,253.31959783635102,"[43, 0, 211]",211,a,1.0701474479865283,colour,0.5
011,68,1,1,3,44,144,253.83390861027874,254.8397138947621,"[95, 0, 159]",159,l,0.48786837374791503,colour,0.5
011,68,1,1,3,45,145,255.34865064546466,256.4636484438088,"[73, 0, 181]",181,l,0.594818330835551,colour,0.5
011,68,1,1,3,46,146,256.97517433576286,258.0716708425898,"[30, 0, 224]",224,a,0.5643917880952358,colour,0.5
011,68,1,1,3,47,147,258.5815260412637,260.3196364331525,"[60, 0, 194]",194,a,1.2058327747508883,colour,0.5
011,68,1,1,3,48,148,260.84250113996677,262.3516521428246,"[68, 0, 186]",186,l,0.9921423862688243,colour,0.5
011,68,1,1,3,49,149,262.87654003477655,263.94373954832554,"[33, 0, 221]",221,a,0.556008784333244,colour,0.5
011,68,1,1,3,50,150,264.4862504557241,265.2396432387177,"[92, 0, 162]",162,l,0.2197268600575626,colour,0.5
011,68,1,1,4,1,151,269.82263162895106,272.319651005324,"[33, 0, 221]",221,a,1.96439438755624,colour,0.5
011,68,1,1,4,2,152,272.8436641662847,274.9916193592362,"[16, 0, 238]",238,a,1.636416698107496,colour,0.5
011,68,1,1,4,3,153,275.4912263012957,276.87956319353543,"[40, 0, 214]",214,a,0.8650358044542372,colour,0.5
011,68,1,1,4,4,154,277.3861128462013,278.6875918151345,"[90, 0, 164]",164,l,0.7780624844599515,colour,0.5
011,68,1,1,4,5,155,279.19542225357145,280.59155728900805,"[1, 0, 253]",253,a,0.8727268215734512,colour,0.5
011,68,1,1,4,6,156,281.10175631497987,282.223570399452,"[71, 0, 183]",183,l,0.5984543135855347,colour,0.5
011,68,1,1,4,7,157,282.74251201027073,284.23954674671404,"[79, 0, 175]",175,a,0.9735958026722074,colour,0.5
011,68,1,1,4,8,158,284.76231811218895,285.56759414682165,"[37, 0, 217]",217,a,0.28754904377274215,colour,0.5
011,68,1,1,4,9,159,286.0786041007377,287.25562982587144,"[34, 0, 220]",220,a,0.6602805913425982,colour,0.5
011,68,1,1,4,10,160,287.7691741765011,288.7275919569656,"[38, 0, 216]",216,a,0.4263433876913041,colour,0.5
011,68,1,1,4,11,161,289.247470920207,290.13557623140514,"[39, 0, 215]",215,a,0.369646948762238,colour,0.5
011,68,1,1,4,12,162,290.6583346000407,291.43158035259694,"[93, 0, 161]",161,l,0.2553549217991531,colour,0.5
011,68,1,1,4,13,163,291.9429991184734,293.15158448019065,"[3, 0, 251]",251,a,0.690331011544913,colour,0.5
011,68,1,1,4,14,164,293.6614436174277,294.72757226461545,"[27, 0, 227]",227,a,0.5444962831679732,colour,0.5
011,68,1,1,4,15,165,295.2408251694869,296.20760192908347,"[47, 0, 207]",207,a,0.44319761684164405,colour,0.5
011,68,1,1,4,16,166,296.7252950493712,297.52759991260245,"[10, 0, 244]",244,a,0.27871036040596664,colour,0.5
011,68,1,1,4,17,167,298.0378572277259,299.1595933306962,"[36, 0, 218]",218,a,0.5981388431973755,colour,0.5
011,68,1,1,4,18,168,299.67944945092313,301.2075912952423,"[11, 0, 243]",243,a,1.0047907379921526,colour,0.5
011,68,1,1,4,19,169,301.7264565001242,302.8395784117747,"[86, 0, 168]",168,l,0.5896739193703979,colour,0.5
011,68,1,1,4,20,170,303.35158794606104,304.7035850977991,"[23, 0, 231]",231,a,0.835229174932465,colour,0.5
011,68,1,1,4,21,171,305.2235195932444,306.0315513657406,"[74, 0, 180]",180,l,0.2812451508361846,colour,0.5
011,68,1,1,4,22,172,306.53945545316674,307.5995622011833,"[84, 0, 170]",170,l,0.5374310868792236,colour,0.5
011,68,1,1,4,23,173,308.1177803175524,309.23156231455505,"[87, 0, 167]",167,l,0.5902843801304698,colour,0.5
011,68,1,1,4,24,174,309.7447459024843,310.4315464820247,"[89, 0, 165]",165,l,0.16362630994990468,colour,0.5
011,68,1,1,4,25,175,310.94779891497456,312.071577107301,"[20, 0, 234]",234,a,0.6007492518983781,colour,0.5
011,68,1,1,4,26,176,312.5886168377474,313.3435830338858,"[0, 0, 254]",254,a,0.23173560667783022,colour,0.5
011,68,1,1,4,27,177,313.8544157575816,314.63953871210106,"[32, 0, 222]",222,a,0.2606529330369085,colour,0.5
011,68,1,1,4,28,178,315.1518613535445,316.90359840961173,"[61, 0, 193]",193,l,1.2334074813406914,colour,0.5
011,68,1,1,4,29,179,317.4138911708724,318.6315499478951,"[94, 0, 160]",160,l,0.6853508339263499,colour,0.5
011,68,1,1,4,30,180,319.1466236009728,319.8395535994787,"[53, 0, 201]",201,a,0.17531249672174454,colour,0.5
011,68,1,1,4,31,181,320.34810989536345,321.00754726328887,"[97, 0, 157]",157,l,0.13609020016156137,colour,0.5
011,68,1,1,4,32,182,321.5296609066427,322.24753157258965,"[91, 0, 163]",163,l,0.19909053179435432,colour,0.5
011,68,1,1,4,33,183,322.76775908935815,324.26351776579395,"[81, 0, 173]",173,l,0.9771857052110136,colour,0.5
011,68,1,1,4,34,184,324.78068982833065,325.943544594571,"[60, 0, 194]",194,a,0.5982869290746748,colour,0.5
011,68,1,1,4,35,185,326.451369125396,327.7115069082938,"[12, 0, 242]",242,a,0.7353243278339505,colour,0.5
011,68,1,1,4,36,186,328.2259173253551,329.31964824860916,"[77, 0, 177]",177,l,0.5702711155172437,colour,0.5
011,68,1,1,4,37,187,329.82720102579333,330.92753043817356,"[41, 0, 213]",213,a,0.5770098138600588,colour,0.5
011,68,1,1,4,38,188,331.43768692878075,332.56749647296965,"[67, 0, 187]",187,l,0.6065435085911304,colour,0.5
011,68,1,1,4,39,189,333.0783701564651,333.8395571440924,"[48, 0, 206]",206,a,0.2375696417875588,colour,0.5
011,68,1,1,4,40,190,334.36052981670946,335.7355216445867,"[68, 0, 186]",186,a,0.8132726759649813,colour,0.5
011,68,1,1,4,41,191,336.25609692698345,336.95953118172474,"[28, 0, 226]",226,a,0.18007724080234766,colour,0.5
011,68,1,1,4,42,192,337.47488761600107,338.5755218649283,"[62, 0, 192]",192,a,0.577187831979245,colour,0.5
011,68,1,1,4,43,193,339.0843952065334,339.8795104182791,"[19, 0, 235]",235,a,0.270738925319165,colour,0.5
011,68,1,1,4,44,194,340.39799516811036,341.13551636692137,"[99, 0, 155]",155,l,0.21406060340814292,colour,0.5
011,68,1,1,4,45,195,341.64801820809953,342.903492071433,"[49, 0, 205]",205,a,0.7328352236654609,colour,0.5
011,68,1,1,4,46,196,343.413782075746,344.9435954007786,"[7, 0, 247]",247,a,1.0063594251405448,colour,0.5
011,68,1,1,4,47,197,345.4617658618372,346.4875056417659,"[69, 0, 185]",185,l,0.5023721321485937,colour,0.5
011,68,1,1,4,48,198,346.99320104322396,348.06353556760587,"[65, 0, 189]",189,l,0.5469877505674958,colour,0.5
011,68,1,1,4,49,199,348.5714215384796,349.3435353785753,"[70, 0, 184]",184,l,0.24883362604305148,colour,0.5
011,68,1,1,4,50,200,349.8643536637537,350.9115399126895,"[78, 0, 176]",176,l,0.5343071036040783,colour,0.5
011,68,1,1,5,1,201,355.8695996874012,357.00754174939357,"[99, 0, 155]",155,l,0.6034994756337255,colour,0.4
011,68,1,1,5,2,202,357.51872932794504,358.34350859723054,"[79, 0, 175]",175,l,0.2978433803655207,colour,0.4
011,68,1,1,5,3,203,358.85874845297076,359.3995496768039,"[50, 0, 204]",204,a,0.008547237375751138,colour,0.4
011,68,1,1,5,4,204,359.90948364464566,360.5274782143533,"[45, 0, 209]",209,a,0.09201218094676733,colour,0.4
011,68,1,1,5,5,205,361.0464288836811,362.3354969897773,"[60, 0, 194]",194,a,0.7712674660142511,colour,0.4
011,68,1,1,5,6,206,362.8575547069777,363.54350457992405,"[96, 0, 158]",158,l,0.16827211272902787,colour,0.4
011,68,1,1,5,7,207,364.0546385953203,364.8714511555154,"[52, 0, 202]",202,a,0.2945185354910791,colour,0.4
011,68,1,1,5,8,208,365.3849966877606,365.9515735313762,"[98, 0, 156]",156,l,0.049170443089678884,colour,0.4
011,68,1,1,5,9,209,366.4607418633532,368.1194297429174,"[61, 0, 193]",193,a,1.1368956144433469,colour,0.4
011,68,1,1,5,10,210,368.6316153262742,369.3274968038313,"[8, 0, 246]",246,a,0.1637424943037331,colour,0.4
011,68,1,1,5,11,211,369.839272393845,370.50352767505683,"[84, 0, 170]",170,l,0.13142194808460772,colour,0.4
011,68,1,1,5,12,212,371.01481607789174,372.37545774690807,"[56, 0, 198]",198,a,0.8430170777719468,colour,0.4
011,68,1,1,5,13,213,372.8909000395797,374.07146210456267,"[25, 0, 229]",229,a,0.6627153449226171,colour,0.4
011,68,1,1,5,14,214,374.583694555331,375.29556616488844,"[15, 0, 239]",239,a,0.19421078474260867,colour,0.4
011,68,1,1,5,15,215,375.81550459889695,377.0394282778725,"[47, 0, 207]",207,a,0.7053617353085428,colour,0.4
011,68,1,1,5,16,216,377.5508155359421,378.22344515658915,"[93, 0, 161]",161,l,0.14044652646407485,colour,0.4
011,68,1,1,5,17,217,378.7375881522894,379.831454558298,"[88, 0, 166]",166,l,0.5757302094716579,colour,0.4
011,68,1,1,5,18,218,380.3474127887748,381.5594848655164,"[48, 0, 206]",206,a,0.6913463454693556,colour,0.4
011,68,1,1,5,19,219,382.06941607641056,382.84742224100046,"[42, 0, 212]",212,a,0.2597041588742286,colour,0.4
011,68,1,1,5,20,220,383.3681712092366,384.63945285370573,"[55, 0, 199]",199,a,0.7533663951326162,colour,0.4
011,68,1,1,5,21,221,385.150958659593,385.8714535187464,"[87, 0, 167]",167,l,0.18945273593999445,colour,0.4
011,68,1,1,5,22,222,386.3854653639719,388.183475734666,"[62, 0, 192]",192,l,1.2755891338456422,colour,0.4
011,68,1,1,5,23,223,388.6964064738713,389.44739719247445,"[19, 0, 235]",235,a,0.23255480569787323,colour,0.4
011,68,1,1,5,24,224,389.9654298075475,391.0474308268167,"[9, 0, 245]",245,a,0.5624331939034164,colour,0.4
011,68,1,1,5,25,225,391.5606025995221,393.0954410005361,"[57, 0, 197]",197,a,1.0165029186755419,colour,0.4
011,68,1,1,5,26,226,393.61652946379036,395.29544092179276,"[65, 0, 189]",189,l,1.1617275800090283,colour,0.4
011,68,1,1,5,27,227,395.81538644526154,396.5514417504892,"[23, 0, 231]",231,a,0.21871428308077157,colour,0.4
011,68,1,1,5,28,228,397.07113284943625,397.6794514202047,"[34, 0, 220]",220,a,0.08987596235238016,colour,0.4
011,68,1,1,5,29,229,398.198940082686,399.30345883080736,"[74, 0, 180]",180,l,0.5745419771410525,colour,0.4
011,68,1,1,5,30,230,399.82291519781575,401.1114268002566,"[33, 0, 221]",221,a,0.770842112833634,colour,0.4
011,68,1,1,5,31,231,401.6350279983599,403.6394244970288,"[82, 0, 172]",172,l,1.4862303698901087,colour,0.4
011,68,1,1,5,32,232,404.1596272015013,405.24739608960226,"[97, 0, 157]",157,l,0.5645709878299385,colour,0.4
011,68,1,1,5,33,233,405.75925281178206,406.5194429762196,"[24, 0, 230]",230,a,0.2279208181425929,colour,0.4
011,68,1,1,5,34,234,407.0378162676934,408.27140885661356,"[44, 0, 210]",210,a,0.7155710014048964,colour,0.4
011,68,1,1,5,35,235,408.78168901475146,409.9034778929781,"[63, 0, 191]",191,l,0.603312005288899,colour,0.4
011,68,1,1,5,36,236,410.42686680844054,411.81542898039334,"[54, 0, 200]",200,a,0.870700879720971,colour,0.4
011,68,1,1,5,37,237,412.3318810930941,413.671407911228,"[68, 0, 186]",186,l,0.8219487008173019,colour,0.4
011,68,1,1,5,38,238,414.18080703681335,415.1833934208844,"[59, 0, 195]",195,l,0.4853733617346734,colour,0.4
011,68,1,1,5,39,239,415.69968366320245,416.4234379886184,"[77, 0, 177]",177,l,0.2042148569598794,colour,0.4
011,68,1,1,5,40,240,416.9332687687129,417.5834330418147,"[94, 0, 160]",160,l,0.13368222792632878,colour,0.4
011,68,1,1,5,41,241,418.09835230745375,419.2874442806933,"[16, 0, 238]",238,a,0.6657385039143264,colour,0.4
011,68,1,1,5,42,242,419.8061239840463,420.5674377901014,"[14, 0, 240]",240,a,0.2351502482779324,colour,0.4
011,68,1,1,5,43,243,421.07454946031794,422.2073640462477,"[12, 0, 242]",242,a,0.6093799844384193,colour,0.4
011,68,1,1,5,44,244,422.7246952224523,424.0474371283781,"[20, 0, 234]",234,a,0.7994093103334308,colour,0.4
011,68,1,1,5,45,245,424.5685417393688,425.72592205158435,"[92, 0, 162]",162,l,0.6396159059368074,colour,0.4
011,68,1,1,5,46,246,426.2406211574562,427.34342667716555,"[58, 0, 196]",196,l,0.5794453551061451,colour,0.4
011,68,1,1,5,47,247,427.8500834556762,429.1993930051103,"[53, 0, 201]",201,l,0.8259296922478825,colour,0.4
011,68,1,1,5,48,248,429.7096215693746,430.46339323185384,"[85, 0, 169]",169,l,0.22782747657038271,colour,0.4
011,68,1,1,5,49,249,430.9778832057491,431.79940852266736,"[2, 0, 252]",252,a,0.2980332139413804,colour,0.4
011,68,1,1,5,50,250,432.3063642298803,433.7754398663528,"[13, 0, 241]",241,a,0.94639209844172,colour,0.4
011,68,1,1,6,1,251,438.7876404155977,440.1273692767136,"[70, 0, 184]",184,l,0.8213189416565001,colour,0.28
011,68,1,1,6,2,252,440.6455921193119,441.4234037238639,"[72, 0, 182]",182,l,0.2607955050189048,colour,0.28
011,68,1,1,6,3,253,441.9467146580573,442.5353547327686,"[89, 0, 165]",165,l,0.07068701647222042,colour,0.28
011,68,1,1,6,4,254,443.04546317411587,444.1914385051932,"[29, 0, 225]",225,a,0.6142179840244353,colour,0.28
011,68,1,1,6,5,255,444.7152551370673,445.3833905851934,"[87, 0, 167]",167,l,0.14699578494764864,colour,0.28
011,68,1,1,6,6,256,445.90713356784545,447.0873518055305,"[99, 0, 155]",155,l,0.6605314710177481,colour,0.28
011,68,1,1,6,7,257,447.5990624111146,449.2074195786845,"[63, 0, 191]",191,a,1.0849351692013443,colour,0.28
011,68,1,1,6,8,258,449.72435533371754,450.9114099435974,"[78, 0, 176]",176,l,0.6673355477396399,colour,0.28
011,68,1,1,6,9,259,451.4241071322467,452.0953630192671,"[19, 0, 235]",235,a,0.14784019021317363,colour,0.28
011,68,1,1,6,10,260,452.6005613873713,453.4154027502518,"[71, 0, 183]",183,l,0.29176634224131703,colour,0.28
011,68,1,1,6,11,261,453.9283862647135,454.471370968502,"[73, 0, 181]",181,l,0.0179203690495342,colour,0.28
011,68,1,1,6,12,262,454.99285603431053,455.71135803475045,"[50, 0, 204]",204,a,0.20181633718311787,colour,0.28
011,68,1,1,6,13,263,456.22671525669284,457.5593533210922,"[62, 0, 192]",192,l,0.8137039367575198,colour,0.28
011,68,1,1,6,14,264,458.0788506481331,459.5433482232038,"[59, 0, 195]",195,a,0.9391213145572692,colour,0.28
011,68,1,1,6,15,265,460.0618857485242,460.8392987814732,"[56, 0, 198]",198,a,0.2462626020424068,colour,0.28
011,68,1,1,6,16,266,461.3599693744909,462.07937446283177,"[33, 0, 221]",221,a,0.20198529702611268,colour,0.28
011,68,1,1,6,17,267,462.59696282004006,463.3513134357054,"[91, 0, 163]",163,l,0.23730930988676846,colour,0.28
011,68,1,1,6,18,268,463.86404134426266,464.4634152872022,"[27, 0, 227]",227,a,0.07862615608610213,colour,0.28
011,68,1,1,6,19,269,464.9827779189218,465.70333500579,"[84, 0, 170]",170,l,0.2035831285174936,colour,0.28
011,68,1,1,6,20,270,466.21862094150856,467.3353800175246,"[54, 0, 200]",200,a,0.5968509679660201,colour,0.28
011,68,1,1,6,21,271,467.8446932847146,469.45530206756666,"[57, 0, 197]",197,a,1.0836744692642242,colour,0.28
011,68,1,1,6,22,272,469.97294438187964,472.34334948356263,"[68, 0, 186]",186,l,1.8438610890880227,colour,0.28
011,68,1,1,6,23,273,472.8630839055404,473.5513306860812,"[55, 0, 199]",199,a,0.16735248314216733,colour,0.28
011,68,1,1,6,24,274,474.07206153753214,474.6713744343724,"[97, 0, 157]",157,l,0.08243897557258606,colour,0.28
011,68,1,1,6,25,275,475.18184600165114,475.8393078399822,"[82, 0, 172]",172,l,0.13385236938484013,colour,0.28
011,68,1,1,6,26,276,476.3758630140219,477.66331753483973,"[66, 0, 188]",188,l,0.7578715954441577,colour,0.28
011,68,1,1,6,27,277,478.1730344935786,478.87135938950814,"[36, 0, 218]",218,a,0.1663655061274767,colour,0.28
011,68,1,1,6,28,278,479.3927203938365,480.59133240324445,"[64, 0, 190]",190,l,0.667088212678209,colour,0.28
011,68,1,1,6,29,279,481.10966591653414,481.8313041094225,"[3, 0, 251]",251,a,0.20360282086767256,colour,0.28
011,68,1,1,6,30,280,482.3476026223507,483.1352989641018,"[45, 0, 209]",209,a,0.26994256931357086,colour,0.28
011,68,1,1,6,31,281,483.6586693688296,484.46329437661916,"[4, 0, 250]",250,a,0.28745845914818347,colour,0.28
011,68,1,1,6,32,282,484.9789422566537,485.5993128968403,"[81, 0, 173]",173,l,0.09603964607231319,colour,0.28
011,68,1,1,6,33,283,486.1135118189268,486.7592973164283,"[69, 0, 185]",185,l,0.11820291401818395,colour,0.28
011,68,1,1,6,34,284,487.28168665152043,487.87926308321767,"[98, 0, 156]",156,l,0.07950797653757036,colour,0.28
011,68,1,1,6,35,285,488.3935088729486,489.1114012002945,"[80, 0, 174]",174,l,0.18593018082901835,colour,0.28
011,68,1,1,6,36,286,489.6269403786864,490.35129768168554,"[16, 0, 238]",238,a,0.1925133098848164,colour,0.28
011,68,1,1,6,37,287,490.86326349922456,492.07127424003556,"[95, 0, 159]",159,l,0.6838416173122823,colour,0.28
011,68,1,1,6,38,288,492.5838225551415,493.26329484931193,"[79, 0, 175]",175,l,0.16202375199645758,colour,0.28
011,68,1,1,6,39,289,493.7742055542767,494.4632833490614,"[94, 0, 160]",160,l,0.1570282143075019,colour,0.28
011,68,1,1,6,40,290,494.97651853063144,495.7112776902504,"[11, 0, 243]",243,a,0.2114261700771749,colour,0.28
011,68,1,1,6,41,291,496.22036331449635,497.3353209407069,"[39, 0, 215]",215,a,0.5851387872826308,colour,0.28
011,68,1,1,6,42,292,497.8570742153097,499.007310168352,"[75, 0, 179]",179,l,0.6323648146353662,colour,0.28
011,68,1,1,6,43,293,499.5286617204547,500.2952888973523,"[86, 0, 168]",168,l,0.23492063605226576,colour,0.28
011,68,1,1,6,44,294,500.8123109047301,501.9352675352711,"[60, 0, 194]",194,l,0.6040158073883504,colour,0.28
011,68,1,1,6,45,295,502.45519179082476,503.20732229878195,"[93, 0, 161]",161,l,0.23395768366754055,colour,0.28
011,68,1,1,6,46,296,503.71658436604775,504.91924628964625,"[58, 0, 196]",196,a,0.6848821574822068,colour,0.28
011,68,1,1,6,47,297,505.4407628630288,506.2392434854992,"[7, 0, 247]",247,a,0.2786705819889903,colour,0.28
011,68,1,1,6,48,298,506.75376496696845,507.6792698574718,"[38, 0, 216]",216,a,0.40644512604922056,colour,0.28
011,68,1,1,6,49,299,508.20146778365597,509.1672815908678,"[14, 0, 240]",240,a,0.4344538503792137,colour,0.28
011,68,1,1,6,50,300,509.68443750566803,510.88727862923406,"[51, 0, 203]",203,a,0.6848282006103545,colour,0.28
011,68,1,1,7,1,301,515.7674467696343,516.6792434698436,"[99, 0, 155]",155,l,0.3791177545208484,colour,0.14
011,68,1,1,7,2,302,517.1826392065268,518.9592791206669,"[78, 0, 176]",176,l,1.2534408322535455,colour,0.14
011,68,1,1,7,3,303,519.4744906197302,520.2872552347835,"[56, 0, 198]",198,a,0.2893721549771726,colour,0.14
011,68,1,1,7,4,304,520.7909231188241,522.2552926940843,"[61, 0, 193]",193,a,0.941459969850257,colour,0.14
011,68,1,1,7,5,305,522.7730929404497,523.487257912755,"[85, 0, 169]",169,l,0.19082056148909032,colour,0.14
011,68,1,1,7,6,306,524.0075126048177,524.7274363879114,"[69, 0, 185]",185,l,0.1965545597486198,colour,0.14
011,68,1,1,7,7,307,525.241970078554,525.9192557418719,"[34, 0, 220]",220,a,0.15399914770387113,colour,0.14
011,68,1,1,7,8,308,526.430348403519,526.9912306335755,"[38, 0, 216]",216,a,0.03434097417630255,colour,0.14
011,68,1,1,7,9,309,527.5069060826208,528.1033143682871,"[54, 0, 200]",200,a,0.07916808780282736,colour,0.14
011,68,1,1,7,10,310,528.6127544536721,529.399311006302,"[11, 0, 243]",243,a,0.2691458195913583,colour,0.14
011,68,1,1,7,11,311,529.9094497738406,530.5032385922968,"[77, 0, 177]",177,l,0.06557411258108914,colour,0.14
011,68,1,1,7,12,312,531.017400492914,531.6472915629856,"[89, 0, 165]",165,l,0.09639095631428063,colour,0.14
011,68,1,1,7,13,313,532.1619540413376,532.8232692650054,"[74, 0, 180]",180,l,0.143367285374552,colour,0.14
011,68,1,1,7,14,314,533.3366418988444,534.0472788023762,"[80, 0, 174]",174,l,0.19347232393920422,colour,0.14
011,68,1,1,7,15,315,534.5608680513687,535.2552281033713,"[52, 0, 202]",202,a,0.17719862330704927,colour,0.14
011,68,1,1,7,16,316,535.7649588470813,536.3352146025281,"[53, 0, 201]",201,a,0.05552947428077459,colour,0.14
011,68,1,1,7,17,317,536.8459547723178,537.5112092397176,"[14, 0, 240]",240,a,0.13936266326345503,colour,0.14
011,68,1,1,7,18,318,538.027345094597,539.7032538736239,"[68, 0, 186]",186,l,1.158960027154535,colour,0.14
011,68,1,1,7,19,319,540.2156080226414,541.8072755886242,"[20, 0, 234]",234,a,1.062868787208572,colour,0.14
011,68,1,1,7,20,320,542.3180890136864,542.9272204816807,"[82, 0, 172]",172,l,0.09137415094301105,colour,0.14
011,68,1,1,7,21,321,543.4477063613012,544.0552388159558,"[91, 0, 163]",163,l,0.0899429158307612,colour,0.14
011,68,1,1,7,22,322,544.5758231568616,545.1432377102319,"[83, 0, 171]",171,l,0.0354957296513021,colour,0.14
011,68,1,1,7,23,323,545.6640303952154,546.9192565297708,"[67, 0, 187]",187,l,0.7328576729632914,colour,0.14
011,68,1,1,7,24,324,547.4425068113487,548.1032485959586,"[96, 0, 158]",158,l,0.143936786102131,colour,0.14
011,68,1,1,7,25,325,548.6180701879784,549.2632074155845,"[97, 0, 157]",157,l,0.11320816399529576,colour,0.14
011,68,1,1,7,26,326,549.7819706143346,550.4232012873981,"[8, 0, 246]",246,a,0.12394912145100534,colour,0.14
011,68,1,1,7,27,327,550.9396833323408,551.6152199271601,"[73, 0, 181]",181,l,0.15851931367069483,colour,0.14
011,68,1,1,7,28,328,552.1340953719337,552.8391932307277,"[98, 0, 156]",156,l,0.18633859837427735,colour,0.14
011,68,1,1,7,29,329,553.3582612660248,553.8872073430102,"[94, 0, 160]",160,l,0.011194273829460144,colour,0.14
011,68,1,1,7,30,330,554.4098747333046,555.0232144417241,"[86, 0, 168]",168,l,0.09615622437559068,colour,0.14
011,68,1,1,7,31,331,555.5457754936069,557.359209646238,"[71, 0, 183]",183,l,1.2838019963819534,colour,0.14
011,68,1,1,7,32,332,557.8809369271621,558.5191814627033,"[93, 0, 161]",161,l,0.11495998920872808,colour,0.14
011,68,1,1,7,33,333,559.0372585824225,559.8232424836606,"[70, 0, 184]",184,l,0.2627158963587135,colour,0.14
011,68,1,1,7,34,334,560.3342299885117,562.4234671331942,"[87, 0, 167]",167,l,1.5658761924132705,colour,0.14
011,68,1,1,7,35,335,562.9361150909681,563.5192677148152,"[90, 0, 164]",164,l,0.06690806779079139,colour,0.14
011,68,1,1,7,36,336,564.038532279199,564.6152092933189,"[35, 0, 219]",219,a,0.05348777840845287,colour,0.14
011,68,1,1,7,37,337,565.1323707220145,565.7592224855907,"[76, 0, 178]",178,l,0.10342543269507587,colour,0.14
011,68,1,1,7,38,338,566.2679800365586,567.7832919664215,"[64, 0, 190]",190,l,0.9981595596764237,colour,0.14
011,68,1,1,7,39,339,568.2903630703222,569.0392270227894,"[50, 0, 204]",204,a,0.2253891786094755,colour,0.14
011,68,1,1,7,40,340,569.5561860147864,570.1672146371566,"[92, 0, 162]",162,l,0.08766727615147829,colour,0.14
011,68,1,1,7,41,341,570.681234753225,571.3191492462065,"[55, 0, 199]",199,a,0.11463427892886102,colour,0.14
011,68,1,1,7,42,342,571.8380341432057,572.983223358402,"[66, 0, 188]",188,l,0.6333714837674052,colour,0.14
011,68,1,1,7,43,343,573.4944940381683,574.1351524535567,"[79, 0, 175]",175,l,0.1171584352850914,colour,0.14
011,68,1,1,7,44,344,574.6509330596309,575.9272244202439,"[60, 0, 194]",194,l,0.7528449438977987,colour,0.14
011,68,1,1,7,45,345,576.4362907460891,577.0231919926591,"[84, 0, 170]",170,l,0.05336489877663553,colour,0.14
011,68,1,1,7,46,346,577.5338959286455,579.0391411643941,"[65, 0, 189]",189,l,0.9818129972554743,colour,0.14
011,68,1,1,7,47,347,579.5497600296512,583.4231831703801,"[88, 0, 166]",166,l,3.3500310743693262,colour,0.14
011,68,1,1,7,48,348,583.931142002577,584.6151911765337,"[75, 0, 179]",179,l,0.16071264003403485,colour,0.14
011,68,1,1,7,49,349,585.1343438886106,586.7671525669284,"[72, 0, 182]",182,l,1.1094571782741696,colour,0.14
011,68,1,1,7,50,350,587.2835349689703,588.3671373645775,"[59, 0, 195]",195,a,0.5542179683689028,colour,0.14
011,68,1,1,8,1,351,593.2982120194938,596.2951376608107,"[56, 0, 198]",198,l,2.472779360599816,colour,0.06
011,68,1,1,8,2,352,596.7985070098657,597.3911328022368,"[86, 0, 168]",168,l,0.06918882764875889,colour,0.06
011,68,1,1,8,3,353,597.8994185263291,598.6231752147432,"[61, 0, 193]",193,a,0.20035595772787929,colour,0.06
011,68,1,1,8,4,354,599.1338413415942,600.1351355181541,"[43, 0, 211]",211,a,0.4778351567219943,colour,0.06
011,68,1,1,8,5,355,600.6496447904501,601.2311657120008,"[73, 0, 181]",181,l,0.058157606050372124,colour,0.06
011,68,1,1,8,6,356,601.7312917425297,602.367136970628,"[84, 0, 170]",170,l,0.1187684761825949,colour,0.06
011,68,1,1,8,7,357,602.8847521096468,604.1351264598779,"[65, 0, 189]",189,l,0.726203651400283,colour,0.06
011,68,1,1,8,8,358,604.6513040619902,605.2471715975553,"[88, 0, 166]",166,l,0.07243844773620367,colour,0.06
011,68,1,1,8,9,359,605.7575793617871,606.4951442773454,"[57, 0, 197]",197,a,0.21471123630180955,colour,0.06
011,68,1,1,8,10,360,607.0108059418853,608.2311566534918,"[59, 0, 195]",195,a,0.6782123818993568,colour,0.06
011,68,1,1,8,11,361,608.7527866545133,609.5751701609697,"[75, 0, 179]",179,l,0.29129766626283526,colour,0.06
011,68,1,1,8,12,362,610.094616681803,611.2391521132085,"[87, 0, 167]",167,l,0.6128032905980945,colour,0.06
011,68,1,1,8,13,363,611.7531868016813,612.7191612978932,"[85, 0, 169]",169,l,0.4329091878607869,colour,0.06
011,68,1,1,8,14,364,613.2379969642498,613.9672418911941,"[99, 0, 155]",155,l,0.21080743870697916,colour,0.06
011,68,1,1,8,15,365,614.4857420010958,615.3911198053975,"[67, 0, 187]",187,l,0.3880387512035668,colour,0.06
011,68,1,1,8,16,366,615.9071508971974,616.839158966206,"[96, 0, 158]",158,l,0.4169076345860958,colour,0.06
011,68,1,1,8,17,367,617.3627448044717,618.4312467654236,"[90, 0, 164]",164,l,0.5420627112034708,colour,0.06
011,68,1,1,8,18,368,618.95522132935,620.215114534134,"[79, 0, 175]",175,l,0.7286738508846611,colour,0.06
011,68,1,1,8,19,369,620.734372403007,621.3590946432669,"[1, 0, 253]",253,a,0.09264115220867097,colour,0.06
011,68,1,1,8,20,370,621.8768149388488,622.6151620319579,"[71, 0, 183]",183,l,0.21221110434271395,colour,0.06
011,68,1,1,8,21,371,623.1382386276964,623.9351359908469,"[70, 0, 184]",184,l,0.2697294990066439,colour,0.06
011,68,1,1,8,22,372,624.4467166271061,625.4711204827763,"[94, 0, 160]",160,l,0.49251063191331923,colour,0.06
011,68,1,1,8,23,373,625.9917418451514,626.6630934365094,"[83, 0, 171]",171,l,0.14794455911032856,colour,0.06
011,68,1,1,8,24,374,627.1723562914412,627.9431003367063,"[82, 0, 172]",172,l,0.2410988921765238,colour,0.06
011,68,1,1,8,25,375,628.467167454306,629.1751199061982,"[54, 0, 200]",200,a,0.17607892025262117,colour,0.06
011,68,1,1,8,26,376,629.6905039097182,630.375096590491,"[13, 0, 241]",241,a,0.15247023897245526,colour,0.06
011,68,1,1,8,27,377,630.8845240729861,631.5031031095423,"[74, 0, 180]",180,l,0.08739197812974453,colour,0.06
011,68,1,1,8,28,378,632.025662586093,632.9191104129422,"[68, 0, 186]",186,l,0.3757893650326878,colour,0.06
011,68,1,1,8,29,379,633.4348398188595,634.0950810257345,"[95, 0, 159]",159,l,0.1427414647769183,colour,0.06
011,68,1,1,8,30,380,634.6098990729079,635.3591359972488,"[58, 0, 196]",196,a,0.2316146963275969,colour,0.06
011,68,1,1,8,31,381,635.8773253627587,636.591061043553,"[60, 0, 194]",194,a,0.19097613054327667,colour,0.06
011,68,1,1,8,32,382,637.1078148421366,637.863109899452,"[50, 0, 204]",204,a,0.22682120115496218,colour,0.06
011,68,1,1,8,33,383,638.3693393555004,639.0951141088735,"[93, 0, 161]",161,l,0.2024374317843467,colour,0.06
011,68,1,1,8,34,384,639.5968273372855,640.2870976964477,"[51, 0, 203]",203,a,0.16683300072327256,colour,0.06
011,68,1,1,8,35,385,640.800042614108,641.4391445515212,"[55, 0, 199]",199,a,0.11578509584069252,colour,0.06
011,68,1,1,8,36,386,641.9610266136006,643.7271662098356,"[63, 0, 191]",191,a,1.2404009979218245,colour,0.06
011,68,1,1,8,37,387,644.2446517734788,645.3270789335947,"[80, 0, 174]",174,l,0.5654851035214961,colour,0.06
011,68,1,1,8,38,388,645.8479251817334,646.4391004408244,"[89, 0, 165]",165,l,0.06783321127295494,colour,0.06
011,68,1,1,8,39,389,646.950679895468,647.7351081066299,"[64, 0, 190]",190,a,0.2523754797875881,colour,0.06
011,68,1,1,8,40,390,648.2495027699042,648.8231014867779,"[52, 0, 202]",202,a,0.045008676359429955,colour,0.06
011,68,1,1,8,41,391,649.3331673929933,650.5670923874713,"[69, 0, 185]",185,l,0.7108676971402019,colour,0.06
011,68,1,1,8,42,392,651.0876783037093,651.7032003104687,"[78, 0, 176]",176,l,0.0917439719196409,colour,0.06
011,68,1,1,8,43,393,652.2152701031882,652.903085228987,"[91, 0, 163]",163,l,0.16514616017229855,colour,0.06
011,68,1,1,8,44,394,653.4128561445978,654.1271321815439,"[92, 0, 162]",162,l,0.19093910907395184,colour,0.06
011,68,1,1,8,45,395,654.6354600470513,655.2390300212428,"[77, 0, 177]",177,l,0.08025195100344718,colour,0.06
011,68,1,1,8,46,396,655.7448750839103,656.5270528611727,"[81, 0, 173]",173,l,0.2587727140635252,colour,0.06
011,68,1,1,8,47,397,657.0398063696921,657.8230908529367,"[97, 0, 157]",157,l,0.2634350582957268,colour,0.06
011,68,1,1,8,48,398,658.3347522276454,659.047035405878,"[98, 0, 156]",156,l,0.18109730118885636,colour,0.06
011,68,1,1,8,49,399,659.5685133824591,661.239087916445,"[66, 0, 188]",188,a,1.1527538078371435,colour,0.06
011,68,1,1,8,50,400,661.7574497866444,663.3590288711712,"[76, 0, 178]",178,l,1.078574562445283,colour,0.06
011,68,1,1,9,1,401,667.9956696673762,669.1271061878651,"[81, 0, 173]",173,l,0.6089668406639248,colour,0.06
011,68,1,1,9,2,402,669.6354706808925,672.1350402075332,"[83, 0, 171]",171,l,1.9747757639270276,colour,0.06
011,68,1,1,9,3,403,672.6511205299757,673.6630544459913,"[78, 0, 176]",176,l,0.48864818806760013,colour,0.06
011,68,1,1,9,4,404,674.1823910837993,675.2471007055137,"[96, 0, 158]",158,l,0.538617743877694,colour,0.06
011,68,1,1,9,5,405,675.7633503815159,677.2950663745869,"[97, 0, 157]",157,l,1.008360160747543,colour,0.06
011,68,1,1,9,6,406,677.8122010219377,679.0550478009973,"[59, 0, 195]",195,a,0.7217740698251873,colour,0.06
011,68,1,1,9,7,407,679.579234253848,680.3190850492101,"[3, 0, 251]",251,a,0.20821042056195438,colour,0.06
011,68,1,1,9,8,408,680.8309468913358,681.4230571398512,"[29, 0, 225]",225,a,0.07470424170605838,colour,0.06
011,68,1,1,9,9,409,681.9429798200727,682.7670273240656,"[56, 0, 198]",198,a,0.3066521310247481,colour,0.06
011,68,1,1,9,10,410,683.2896899883635,683.9111055009998,"[91, 0, 163]",163,l,0.10330334072932601,colour,0.06
011,68,1,1,9,11,411,684.4194577848539,685.0710540805012,"[84, 0, 170]",170,l,0.11950457375496626,colour,0.06
011,68,1,1,9,12,412,685.594327599043,687.5350416253787,"[64, 0, 190]",190,l,1.4237447942141443,colour,0.06
011,68,1,1,9,13,413,688.060880260542,688.8070132874418,"[79, 0, 175]",175,l,0.22159605147317052,colour,0.06
011,68,1,1,9,14,414,689.3181831429247,690.1430506333709,"[70, 0, 184]",184,l,0.30558717250823975,colour,0.06
011,68,1,1,9,15,415,690.6623986929189,691.2790388276335,"[10, 0, 244]",244,a,0.08471343410201371,colour,0.06
011,68,1,1,9,16,416,691.7889204139356,692.4070764603093,"[98, 0, 156]",156,l,0.10093081463128328,colour,0.06
011,68,1,1,9,17,417,692.9242536427919,694.0790168510284,"[58, 0, 196]",196,a,0.6365612396039069,colour,0.06
011,68,1,1,9,18,418,694.5967879525851,695.3110376019031,"[86, 0, 168]",168,l,0.19508157717064023,colour,0.06
011,68,1,1,9,19,419,695.8240093009081,697.1350177584682,"[60, 0, 194]",194,a,0.7940112624783069,colour,0.06
011,68,1,1,9,20,420,697.6423944865819,698.3749910399783,"[92, 0, 162]",162,l,0.21449383371509612,colour,0.06
011,68,1,1,9,21,421,698.8821302792057,699.6789681715891,"[52, 0, 202]",202,a,0.2734631553757936,colour,0.06
011,68,1,1,9,22,422,700.1947294792626,700.8070625180844,"[62, 0, 192]",192,a,0.08896893565542996,colour,0.06
011,68,1,1,9,23,423,701.319853835972,701.9909844801296,"[87, 0, 167]",167,l,0.14780159341171384,colour,0.06
011,68,1,1,9,24,424,702.4950800805818,703.3270159184467,"[73, 0, 181]",181,l,0.30847209179773927,colour,0.06
011,68,1,1,9,25,425,703.8389801604208,704.5909846376162,"[57, 0, 197]",197,a,0.24145453493110836,colour,0.06
011,68,1,1,9,26,426,705.102519193897,705.7030112645589,"[75, 0, 179]",179,l,0.07715041656047106,colour,0.06
011,68,1,1,9,27,427,706.2118716093246,706.8869757617358,"[80, 0, 174]",174,l,0.1515640001744032,colour,0.06
011,68,1,1,9,28,428,707.407984668389,708.5190085645299,"[53, 0, 201]",201,a,0.5931555146817118,colour,0.06
011,68,1,1,9,29,429,709.0368568599224,709.7110338998027,"[72, 0, 182]",182,l,0.15096889971755445,colour,0.06
011,68,1,1,9,30,430,710.224369905889,710.8789873912465,"[61, 0, 193]",193,a,0.12692068656906486,colour,0.06
011,68,1,1,9,31,431,711.399847030174,712.0471287472174,"[77, 0, 177]",177,l,0.12363601406104863,colour,0.06
011,68,1,1,9,32,432,712.5560032704379,713.1509657488205,"[76, 0, 178]",178,l,0.07155071990564466,colour,0.06
011,68,1,1,9,33,433,713.665459661046,714.2950718884822,"[82, 0, 172]",172,l,0.10622685658745468,colour,0.06
011,68,1,1,9,34,434,714.8061440701131,715.5190081705805,"[51, 0, 203]",203,a,0.18955434788949788,colour,0.06
011,68,1,1,9,35,435,716.0408358820714,717.3909933809191,"[63, 0, 191]",191,a,0.8270604230929166,colour,0.06
011,68,1,1,9,36,436,717.8982956723776,719.2389748827554,"[69, 0, 185]",185,l,0.8221235682722181,colour,0.06
011,68,1,1,9,37,437,719.7548251994886,720.4390015855897,"[94, 0, 160]",160,l,0.16687002242542803,colour,0.06
011,68,1,1,9,38,438,720.9589636502787,721.6789843193255,"[90, 0, 164]",164,l,0.20245751785114408,colour,0.06
011,68,1,1,9,39,439,722.1957361486275,723.9751463725697,"[88, 0, 166]",166,l,1.2598932047840208,colour,0.06
011,68,1,1,9,40,440,724.4855470475741,725.1029914149549,"[89, 0, 165]",165,l,0.09931919863447547,colour,0.06
011,68,1,1,9,41,441,725.6152577362955,726.5429721006658,"[74, 0, 180]",180,l,0.4104064251296222,colour,0.06
011,68,1,1,9,42,442,727.0542337221559,727.8309847004712,"[50, 0, 204]",204,a,0.2523652396630496,colour,0.06
011,68,1,1,9,43,443,728.348559273174,728.9349591541104,"[54, 0, 200]",200,a,0.060018132673576474,colour,0.06
011,68,1,1,9,44,444,729.4453854290769,730.5029881065711,"[71, 0, 183]",183,l,0.534261811291799,colour,0.06
011,68,1,1,9,45,445,731.0237032042351,732.342939884169,"[67, 0, 187]",187,l,0.7959808844607323,colour,0.06
011,68,1,1,9,46,446,732.8452623917256,733.8069939890411,"[66, 0, 188]",188,l,0.43817529757507145,colour,0.06
011,68,1,1,9,47,447,734.3143159728497,736.6309264902957,"[68, 0, 186]",186,l,1.8012367540504783,colour,0.06
011,68,1,1,9,48,448,737.1504151525442,737.6790552115999,"[95, 0, 159]",159,l,0.012696007266640663,colour,0.06
011,68,1,1,9,49,449,738.1897768706549,738.7909743187483,"[85, 0, 169]",169,l,0.06943773804232478,colour,0.06
011,68,1,1,9,50,450,739.3067344448064,740.0549733641092,"[65, 0, 189]",189,a,0.21621454507112503,colour,0.06
011,68,1,1,10,1,451,745.1643163273111,746.95097488584,"[94, 0, 160]",160,l,1.268088344251737,colour,0.06
011,68,1,1,10,2,452,747.4599671689793,748.6309001024347,"[67, 0, 187]",187,l,0.652893623104319,colour,0.06
011,68,1,1,10,3,453,749.1543898424134,749.8070495212451,"[92, 0, 162]",162,l,0.1324605189729482,colour,0.06
011,68,1,1,10,4,454,750.3158090414945,750.9109589902218,"[51, 0, 203]",203,a,0.07372080907225609,colour,0.06
011,68,1,1,10,5,455,751.4322491025086,752.2389563720208,"[73, 0, 181]",181,l,0.2748191657010466,colour,0.06
011,68,1,1,10,6,456,752.751300675096,753.5189101030119,"[54, 0, 200]",200,a,0.24928615475073457,colour,0.06
011,68,1,1,10,7,457,754.0285577450413,754.5669541475363,"[87, 0, 167]",167,l,0.020417350344359875,colour,0.06
011,68,1,1,10,8,458,755.078985737171,755.7109602505807,"[81, 0, 173]",173,l,0.10547224851325154,colour,0.06
011,68,1,1,10,9,459,756.2326091562863,756.7669426472858,"[90, 0, 164]",164,l,0.016979078063741326,colour,0.06
011,68,1,1,10,10,460,757.290809691418,758.0149554992095,"[60, 0, 194]",194,a,0.2007403508760035,colour,0.06
011,68,1,1,10,11,461,758.5277294877451,759.8629086443689,"[78, 0, 176]",176,l,0.8160339274909347,colour,0.06
011,68,1,1,10,12,462,760.3864101995714,760.934921344975,"[76, 0, 178]",178,l,0.017058241181075573,colour,0.06
011,68,1,1,10,13,463,761.4514297775459,762.1509251827374,"[18, 0, 236]",236,a,0.1814860268495977,colour,0.06
011,68,1,1,10,14,464,762.674867451191,763.4309320827015,"[69, 0, 185]",185,l,0.22296151402406394,colour,0.06
011,68,1,1,10,15,465,763.9434520408977,764.6629587414209,"[50, 0, 204]",204,a,0.20206524757668376,colour,0.06
011,68,1,1,10,16,466,765.1789279994555,766.6149844075553,"[63, 0, 191]",191,l,0.9136788882315159,colour,0.06
011,68,1,1,10,17,467,767.1337657230906,767.6709053642116,"[97, 0, 157]",157,l,0.012391564436256886,colour,0.06
011,68,1,1,10,18,468,768.1842027737293,768.7349501745775,"[85, 0, 169]",169,l,0.02344208466820419,colour,0.06
011,68,1,1,10,19,469,769.2973116885405,769.9189186100848,"[9, 0, 245]",245,a,0.09831095370464027,colour,0.06
011,68,1,1,10,20,470,770.438059506705,771.9509099014103,"[65, 0, 189]",189,l,0.9896209866274148,colour,0.06
011,68,1,1,10,21,471,772.4648189530708,773.4548912867904,"[58, 0, 196]",196,l,0.46649397863075137,colour,0.06
011,68,1,1,10,22,472,773.9737143500242,775.1188968699425,"[95, 0, 159]",159,l,0.6218062075786293,colour,0.06
011,68,1,1,10,23,473,775.6300612112973,777.342906013364,"[64, 0, 190]",190,l,1.1894889695104212,colour,0.06
011,68,1,1,10,24,474,777.850313067669,778.3909067348577,"[91, 0, 163]",163,l,0.01883684773929417,colour,0.06
011,68,1,1,10,25,475,778.9016543878242,779.9269353374839,"[62, 0, 192]",192,a,0.5072499099187553,colour,0.06
011,68,1,1,10,26,476,780.4436599914916,781.5188915922772,"[88, 0, 166]",166,l,0.5519013684242964,colour,0.06
011,68,1,1,10,27,477,782.0374712590128,782.8709383686073,"[59, 0, 195]",195,a,0.31011994183063507,colour,0.06
011,68,1,1,10,28,478,783.3821657253429,784.1588911039289,"[74, 0, 180]",180,l,0.25328605086542666,colour,0.06
011,68,1,1,10,29,479,784.6791312238201,785.3829341181554,"[75, 0, 179]",179,l,0.18041004054248333,colour,0.06
011,68,1,1,10,30,480,785.8979538143612,786.7428956157528,"[70, 0, 184]",184,l,0.3219270391855389,colour,0.06
011,68,1,1,10,31,481,787.2574994110037,787.8548773445655,"[80, 0, 174]",174,l,0.07400674116797745,colour,0.06
011,68,1,1,10,32,482,788.3678356527817,789.1589111899957,"[93, 0, 161]",161,l,0.2737317578867078,colour,0.06
011,68,1,1,10,33,483,789.6650784185622,790.3748528000433,"[55, 0, 199]",199,a,0.18652016134001315,colour,0.06
011,68,1,1,10,34,484,790.8739855519962,791.5108626557048,"[77, 0, 177]",177,l,0.1233874976169318,colour,0.06
011,68,1,1,10,35,485,792.0204315285664,793.4148915386759,"[71, 0, 183]",183,l,0.8832141424063593,colour,0.06
011,68,1,1,10,36,486,793.9341529521625,794.4872094697785,"[32, 0, 222]",222,a,0.042233640095219016,colour,0.06
011,68,1,1,10,37,487,795.000126818195,795.5748861981556,"[53, 0, 201]",201,a,0.0574990960303694,colour,0.06
011,68,1,1,10,38,488,796.0878917679656,796.6308449641801,"[56, 0, 198]",198,a,0.019799012690782547,colour,0.06
011,68,1,1,10,39,489,797.1504986479413,797.790866011288,"[72, 0, 182]",182,l,0.11373512935824692,colour,0.06
011,68,1,1,10,40,490,798.2983754654415,798.9429242878687,"[83, 0, 171]",171,l,0.12712745554745197,colour,0.06
011,68,1,1,10,41,491,799.4609060969669,800.0228312299587,"[98, 0, 156]",156,l,0.030112647684291005,colour,0.06
011,68,1,1,10,42,492,800.5410800662357,801.0789101189002,"[86, 0, 168]",168,l,0.005647746147587895,colour,0.06
011,68,1,1,10,43,493,801.6093921936117,802.2388535784557,"[99, 0, 155]",155,l,0.09793601278215647,colour,0.06
011,68,1,1,10,44,494,802.7536353918258,804.1508389303926,"[68, 0, 186]",186,l,0.8654312253929675,colour,0.06
011,68,1,1,10,45,495,804.6735988743603,805.7828677946236,"[96, 0, 158]",158,l,0.5915017570368946,colour,0.06
011,68,1,1,10,46,496,806.2990138891619,806.9508713046089,"[57, 0, 197]",197,a,0.1335727390833199,colour,0.06
011,68,1,1,10,47,497,807.4740203679539,808.0788522234652,"[79, 0, 175]",175,l,0.07435726351104677,colour,0.06
011,68,1,1,10,48,498,808.6027066644747,809.4068196730223,"[84, 0, 170]",170,l,0.2565923847723752,colour,0.06
011,68,1,1,10,49,499,809.9209650319535,811.1908284383826,"[61, 0, 193]",193,a,0.7466710200533271,colour,0.06
011,68,1,1,10,50,500,811.7024421577808,812.8068695338443,"[89, 0, 165]",165,l,0.5810813899151981,colour,0.06
011,68,1,1,11,1,501,817.9872874512803,820.6548077126499,"[86, 0, 168]",168,l,2.152921980014071,colour,0.06
011,68,1,1,11,2,502,821.1691952866968,821.918864653213,"[89, 0, 165]",165,l,0.23426330788061023,colour,0.06
011,68,1,1,11,3,503,822.4276403211989,823.190826469101,"[82, 0, 172]",172,l,0.23981692478992045,colour,0.06
011,68,1,1,11,4,504,823.7042144630104,824.2308789924718,"[91, 0, 163]",163,l,0.0033906169701367617,colour,0.06
011,68,1,1,11,5,505,824.7511116291862,825.3908649871591,"[28, 0, 226]",226,a,0.11632899637334049,colour,0.06
011,68,1,1,11,6,506,825.8983070938848,826.5828800825402,"[73, 0, 181]",181,l,0.16125102690421045,colour,0.06
011,68,1,1,11,7,507,827.1015278846025,827.6628567355219,"[95, 0, 159]",159,l,0.037956870859488845,colour,0.06
011,68,1,1,11,8,508,828.1797802813817,828.9588695212733,"[70, 0, 184]",184,l,0.2574178851209581,colour,0.06
011,68,1,1,11,9,509,829.5255428568926,832.0308132988866,"[79, 0, 175]",175,l,1.973443384282291,colour,0.06
011,68,1,1,11,10,510,832.5528300562873,833.1988140519243,"[65, 0, 189]",189,l,0.1203852123580873,colour,0.06
011,68,1,1,11,11,511,833.7201951425523,836.19883492589,"[75, 0, 179]",179,l,1.9602349840570241,colour,0.06
011,68,1,1,11,12,512,836.7212116580922,838.1028405718971,"[55, 0, 199]",199,a,0.8493501152843237,colour,0.06
011,68,1,1,11,13,513,838.5983467935584,839.5348108320031,"[52, 0, 202]",202,a,0.4186314968392253,colour,0.06
011,68,1,1,11,14,514,840.0552522067446,840.6308201518841,"[53, 0, 201]",201,a,0.05247362609952688,colour,0.06
011,68,1,1,11,15,515,841.1490918314084,842.3027975640725,"[63, 0, 191]",191,l,0.6303739249706268,colour,0.06
011,68,1,1,11,16,516,842.8210267082322,843.6388026147615,"[66, 0, 188]",188,l,0.29446024633944035,colour,0.06
011,68,1,1,11,17,517,844.1526502263732,844.8468523463234,"[60, 0, 194]",194,l,0.17083368450403214,colour,0.06
011,68,1,1,11,18,518,845.3441257532686,846.0308235390112,"[77, 0, 177]",177,l,0.16991247958503664,colour,0.06
011,68,1,1,11,19,519,846.5416909209453,847.1908044137526,"[98, 0, 156]",156,l,0.1258537587709725,colour,0.06
011,68,1,1,11,20,520,847.697825105628,848.2308636324015,"[83, 0, 171]",171,l,0.009616134455427527,colour,0.06
011,68,1,1,11,21,521,848.7365968429949,849.505371660227,"[99, 0, 155]",155,l,0.2356264074333012,colour,0.06
011,68,1,1,11,22,522,850.018063334981,850.6308733210899,"[64, 0, 190]",190,a,0.08978695329278708,colour,0.06
011,68,1,1,11,23,523,851.143061267212,851.7747986856848,"[51, 0, 203]",203,a,0.10827288450673223,colour,0.06
011,68,1,1,11,24,524,852.2838465010282,852.9827948543243,"[78, 0, 176]",176,l,0.18334143329411745,colour,0.06
011,68,1,1,11,25,525,853.4952061111107,854.1508180566598,"[38, 0, 216]",216,a,0.13385355100035667,colour,0.06
011,68,1,1,11,26,526,854.6689696130343,855.2228020066395,"[87, 0, 167]",167,l,0.0336844336707145,colour,0.06
011,68,1,1,11,27,527,855.7440172880888,856.3507600824814,"[88, 0, 166]",166,l,0.08331291889771819,colour,0.06
011,68,1,1,11,28,528,856.8688478360418,857.5187903740443,"[50, 0, 204]",204,a,0.12495500314980745,colour,0.06
011,68,1,1,11,29,529,858.0269591258839,858.5588720417581,"[94, 0, 160]",160,l,0.009982804534956813,colour,0.06
011,68,1,1,11,30,530,859.0744529680815,860.2787863726262,"[59, 0, 195]",195,a,0.6718541386071593,colour,0.06
011,68,1,1,11,31,531,860.7985637236852,861.4468072117306,"[85, 0, 169]",169,l,0.12477265275083482,colour,0.06
011,68,1,1,11,32,532,861.95498029585,862.6388317593373,"[12, 0, 242]",242,a,0.16085993824526668,colour,0.06
011,68,1,1,11,33,533,863.1582270802464,863.6953931089956,"[54, 0, 200]",200,a,0.013956313021481037,colour,0.06
011,68,1,1,11,34,534,864.2091607700568,865.014827499399,"[68, 0, 186]",186,l,0.282407782971859,colour,0.06
011,68,1,1,11,35,535,865.521755637601,866.1427623385098,"[81, 0, 173]",173,l,0.09752917010337114,colour,0.06
011,68,1,1,11,36,536,866.6623931790236,868.4787807799876,"[57, 0, 197]",197,a,1.2933169126044959,colour,0.06
011,68,1,1,11,37,537,868.9808346848004,871.350771110272,"[74, 0, 180]",180,l,1.8524807940702885,colour,0.06
011,68,1,1,11,38,538,871.8667261898518,872.8467326173559,"[97, 0, 157]",157,l,0.45433084457181394,colour,0.06
011,68,1,1,11,39,539,873.3409655359574,875.8788416683674,"[93, 0, 161]",161,l,2.0108949509449303,colour,0.06
011,68,1,1,11,40,540,876.3991396834608,878.1667790438514,"[96, 0, 158]",158,l,1.2443276385311037,colour,0.06
011,68,1,1,11,41,541,878.6766184887383,879.2707999711856,"[76, 0, 178]",178,l,0.07037312141619623,colour,0.06
011,68,1,1,11,42,542,879.7847921242937,880.5187639864162,"[80, 0, 174]",174,l,0.20786344283260405,colour,0.06
011,68,1,1,11,43,543,881.0381904211827,882.4947913917713,"[67, 0, 187]",187,l,0.93349365494214,colour,0.06
011,68,1,1,11,44,544,883.0119587280788,883.6709167857189,"[90, 0, 164]",164,l,0.13555220677517354,colour,0.06
011,68,1,1,11,45,545,884.1858644082677,885.3347356861923,"[62, 0, 192]",192,l,0.630555881652981,colour,0.06
011,68,1,1,11,46,546,885.8527525474783,888.8147582614329,"[72, 0, 182]",182,l,2.438615616876632,colour,0.06
011,68,1,1,11,47,547,889.3268894939683,890.3347778276075,"[71, 0, 183]",183,l,0.46160832373425364,colour,0.06
011,68,1,1,11,48,548,890.8512799588498,892.1667625023983,"[69, 0, 185]",185,l,0.7928171225357801,colour,0.06
011,68,1,1,11,49,549,892.679592810804,893.3027207641862,"[56, 0, 198]",198,a,0.10028648329898715,colour,0.06
011,68,1,1,11,50,550,893.8203744997736,896.0787242236547,"[92, 0, 162]",162,l,1.7343735846225172,colour,0.06
011,68,1,1,12,1,551,900.9473680478986,902.1747343314346,"[96, 0, 158]",158,l,0.7031420215498656,colour,0.06
011,68,1,1,12,2,552,902.6823942346964,903.6469296189025,"[81, 0, 173]",173,l,0.4411122042220086,colour,0.06
011,68,1,1,12,3,553,904.159661466023,904.8467015034985,"[75, 0, 179]",179,l,0.16049641883000731,colour,0.06
011,68,1,1,12,4,554,905.3661074582487,906.0787348574959,"[51, 0, 203]",203,a,0.1892475422937423,colour,0.06
011,68,1,1,12,5,555,906.5849615565967,907.1427450093906,"[88, 0, 166]",166,l,0.03428465430624783,colour,0.06
011,68,1,1,12,6,556,907.652414312819,908.1907315524295,"[77, 0, 177]",177,l,0.014834194909781218,colour,0.06
011,68,1,1,12,7,557,908.7117538496386,909.2467151305173,"[95, 0, 159]",159,l,0.008516911184415221,colour,0.06
011,68,1,1,12,8,558,909.7697720341384,910.4306898678187,"[83, 0, 171]",171,l,0.12697070511057973,colour,0.06
011,68,1,1,12,9,559,910.9446780823637,912.270973657025,"[86, 0, 168]",168,l,0.8094563118647784,colour,0.06
011,68,1,1,12,10,560,912.7889885492623,913.4227456080262,"[97, 0, 157]",157,l,0.1096970303915441,colour,0.06
011,68,1,1,12,11,561,913.939115800662,914.6866828193888,"[74, 0, 180]",180,l,0.22280712658539414,colour,0.06
011,68,1,1,12,12,562,915.2006210156251,915.8467137126718,"[55, 0, 199]",199,a,0.12766190385445952,colour,0.06
011,68,1,1,12,13,563,916.3609768315218,917.0626695011742,"[45, 0, 209]",209,a,0.16900781611911952,colour,0.06
011,68,1,1,12,14,564,917.5832085497677,918.1907496692147,"[92, 0, 162]",162,l,0.08969794400036335,colour,0.06
011,68,1,1,12,15,565,918.7166627412662,920.1587174180895,"[65, 0, 189]",189,l,0.9184920755214989,colour,0.06
011,68,1,1,12,16,566,920.6665128041059,921.3986599796917,"[91, 0, 163]",163,l,0.2089606965892017,colour,0.06
011,68,1,1,12,17,567,921.9200205900706,923.6787424981594,"[60, 0, 194]",194,l,1.2352880942635238,colour,0.06
011,68,1,1,12,18,568,924.1981669636443,924.8386682346463,"[90, 0, 164]",164,l,0.11377057549543679,colour,0.06
011,68,1,1,12,19,569,925.3579765157774,925.9027165893931,"[73, 0, 181]",181,l,0.02148033957928419,colour,0.06
011,68,1,1,12,20,570,926.4204743003938,927.2226803083904,"[68, 0, 186]",186,l,0.2788879848085344,colour,0.06
011,68,1,1,12,21,571,927.733001426328,929.0466821263544,"[64, 0, 190]",190,l,0.7901779632084072,colour,0.06
011,68,1,1,12,22,572,929.5517138978466,930.2786985449493,"[71, 0, 183]",183,l,0.19468418695032597,colour,0.06
011,68,1,1,12,23,573,930.7958095613867,931.4627327527851,"[50, 0, 204]",204,a,0.14965818147175014,colour,0.06
011,68,1,1,12,24,574,931.9848889315035,932.55068556685,"[99, 0, 155]",155,l,0.04330490017309785,colour,0.06
011,68,1,1,12,25,575,933.0717834825628,934.4547345361207,"[52, 0, 202]",202,a,0.8656419329345226,colour,0.06
011,68,1,1,12,26,576,934.9733079012949,935.5906636533327,"[63, 0, 191]",191,a,0.09688680781982839,colour,0.06
011,68,1,1,12,27,577,936.1051654426847,937.2226543144789,"[69, 0, 185]",185,l,0.6003443785011768,colour,0.06
011,68,1,1,12,28,578,937.7461531129666,938.510696846759,"[61, 0, 193]",193,l,0.24565332289785147,colour,0.06
011,68,1,1,12,29,579,939.0259154350497,939.6227293815464,"[72, 0, 182]",182,l,0.08132242341525853,colour,0.06
011,68,1,1,12,30,580,940.1369960450102,942.3348337537609,"[76, 0, 178]",178,l,1.6741983075626194,colour,0.06
011,68,1,1,12,31,581,942.8688738299534,943.518712786492,"[78, 0, 176]",176,l,0.13205682719126344,colour,0.06
011,68,1,1,12,32,582,944.0278484292794,945.094702933915,"[54, 0, 200]",200,a,0.5492783566005528,colour,0.06
011,68,1,1,12,33,583,945.6066589052789,946.1426745108329,"[93, 0, 161]",161,l,0.016696690814569592,colour,0.06
011,68,1,1,12,34,584,946.659524013754,947.9586619646288,"[59, 0, 195]",195,l,0.7813404614571482,colour,0.06
011,68,1,1,12,35,585,948.4685344924219,949.190721312305,"[70, 0, 184]",184,l,0.2042617246042937,colour,0.06
011,68,1,1,12,36,586,949.7022542934865,950.438701475272,"[98, 0, 156]",156,l,0.20333067374303937,colour,0.06
011,68,1,1,12,37,587,950.9508650030475,951.5986394209322,"[62, 0, 192]",192,a,0.13330846861936152,colour,0.06
011,68,1,1,12,38,588,952.1138997566886,952.6946759161074,"[89, 0, 165]",165,l,0.05751918209716678,colour,0.06
011,68,1,1,12,39,589,953.2076960583217,953.8786782224197,"[79, 0, 175]",175,l,0.14300100901164114,colour,0.06
011,68,1,1,12,40,590,954.3999482486397,955.1027228122111,"[28, 0, 226]",226,a,0.1825643761549145,colour,0.06
011,68,1,1,12,41,591,955.615635040449,956.2146950885653,"[82, 0, 172]",172,l,0.07568846177309752,colour,0.06
011,68,1,1,12,42,592,956.725003603613,957.4146824066993,"[49, 0, 205]",205,a,0.16621190612204373,colour,0.06
011,68,1,1,12,43,593,957.9327043879312,958.478658687789,"[84, 0, 170]",170,l,0.023443266050890088,colour,0.06
011,68,1,1,12,44,594,958.9951954772696,960.1026794891804,"[58, 0, 196]",196,l,0.5873419595882297,colour,0.06
011,68,1,1,12,45,595,960.6126768661197,961.1667286315933,"[87, 0, 167]",167,l,0.03129063989035785,colour,0.06
011,68,1,1,12,46,596,961.6838179863989,962.2706400698517,"[94, 0, 160]",160,l,0.06850826251320541,colour,0.06
011,68,1,1,12,47,597,962.7894383210223,963.4146894959267,"[80, 0, 174]",174,l,0.10845326585695148,colour,0.06
011,68,1,1,12,48,598,963.9374608614016,964.7747896271758,"[57, 0, 197]",197,a,0.3190787478815764,colour,0.06
011,68,1,1,12,49,599,965.2841615774669,967.1826356619131,"[66, 0, 188]",188,a,1.3769027665257454,colour,0.06
011,68,1,1,12,50,600,967.6942576521542,968.2306584387552,"[85, 0, 169]",169,l,0.017806547693908215,colour,0.06
011,68,1,1,13,1,601,973.0338762362953,973.83064008574,"[95, 0, 159]",159,l,0.2786099298391491,colour,0.06
011,68,1,1,13,2,602,974.3485025595874,975.0226248549297,"[42, 0, 212]",212,a,0.1558797606267035,colour,0.06
011,68,1,1,13,3,603,975.5383515038993,976.3746224003844,"[66, 0, 188]",188,l,0.3185706869699061,colour,0.06
011,68,1,1,13,4,604,976.8993740216829,977.5026537317317,"[80, 0, 174]",174,l,0.0823298804461956,colour,0.06
011,68,1,1,13,5,605,978.0214559209999,978.5666150464676,"[78, 0, 176]",176,l,0.013048892607912421,colour,0.06
011,68,1,1,13,6,606,979.0861411241349,979.7746072767768,"[81, 0, 173]",173,l,0.16307847062125802,colour,0.06
011,68,1,1,13,7,607,980.2946922213305,981.0706169118639,"[70, 0, 184]",184,l,0.25004982156679034,colour,0.06
011,68,1,1,13,8,608,981.5795536625665,982.4066357470583,"[56, 0, 198]",198,a,0.3100230556447059,colour,0.06
011,68,1,1,13,9,609,982.923293447122,985.0066284216009,"[82, 0, 172]",172,l,1.5574443517252803,colour,0.06
011,68,1,1,13,10,610,985.5159846178722,987.1666112656239,"[54, 0, 200]",200,a,1.1331143027637154,colour,0.06
011,68,1,1,13,11,611,987.6853910058271,990.8626132600475,"[86, 0, 168]",168,l,2.6587146611418575,colour,0.06
011,68,1,1,13,12,612,991.3745782896876,992.1186203903053,"[32, 0, 222]",222,a,0.2206779974512756,colour,0.06
011,68,1,1,13,13,613,992.6417852074374,993.7665913370438,"[50, 0, 204]",204,a,0.6013238725718111,colour,0.06
011,68,1,1,13,14,614,994.2825924966019,994.8786148133222,"[99, 0, 155]",155,l,0.07255975226871669,colour,0.06
011,68,1,1,13,15,615,995.3943245271221,996.6066120376345,"[87, 0, 167]",167,l,0.6888080106582493,colour,0.06
011,68,1,1,13,16,616,997.1139210243709,998.4546132315882,"[62, 0, 192]",192,l,0.8177416420076042,colour,0.06
011,68,1,1,13,17,617,998.9748505945317,999.6706446385942,"[72, 0, 182]",182,l,0.1724004023708403,colour,0.06
011,68,1,1,13,18,618,1000.1660854816437,1000.8866362669505,"[59, 0, 195]",195,a,0.18786790105514228,colour,0.06
011,68,1,1,13,19,619,1001.3966907514259,1002.5585711437743,"[88, 0, 166]",166,l,0.638445790624246,colour,0.06
011,68,1,1,13,20,620,1003.0700541064143,1004.1105902721174,"[67, 0, 187]",187,l,0.5171594594139606,colour,0.06
011,68,1,1,13,21,621,1004.6170170446858,1005.3506025443785,"[35, 0, 219]",219,a,0.21694670408032835,colour,0.06
011,68,1,1,13,22,622,1005.8662228551693,1006.4945578412153,"[85, 0, 169]",169,l,0.1050401998218149,colour,0.06
011,68,1,1,13,23,623,1007.006934045814,1007.5426089749672,"[77, 0, 177]",177,l,0.010051727527752519,colour,0.06
011,68,1,1,13,24,624,1008.0561363901943,1009.2225798775908,"[61, 0, 193]",193,a,0.6430856857914478,colour,0.06
011,68,1,1,13,25,625,1009.7437242669985,1010.8225906691514,"[68, 0, 186]",186,l,0.5578606463968754,colour,0.06
011,68,1,1,13,26,626,1011.345436865231,1011.9186381921172,"[75, 0, 179]",179,l,0.045346596045419574,colour,0.06
011,68,1,1,13,27,627,1012.4355184149463,1013.7585521603469,"[53, 0, 201]",201,a,0.7920798433478922,colour,0.06
011,68,1,1,13,28,628,1014.2763878528494,1015.5345926415175,"[97, 0, 157]",157,l,0.7316954345442355,colour,0.06
011,68,1,1,13,29,629,1016.0490550461691,1017.8066454357468,"[60, 0, 194]",194,l,1.234785940963775,colour,0.06
011,68,1,1,13,30,630,1018.3306357534602,1018.9585698046722,"[73, 0, 181]",181,l,0.10988135007210076,colour,0.06
011,68,1,1,13,31,631,1019.4733949410729,1021.3825650848448,"[92, 0, 162]",162,l,1.39141755271703,colour,0.06
011,68,1,1,13,32,632,1021.8930153842084,1022.5265503141563,"[94, 0, 160]",160,l,0.11946873390115798,colour,0.06
011,68,1,1,13,33,633,1023.0421934679616,1023.5986335130874,"[91, 0, 163]",163,l,0.04086502664722502,colour,0.06
011,68,1,1,13,34,634,1024.113240065286,1024.8465998913161,"[79, 0, 175]",175,l,0.2103131623007357,colour,0.06
011,68,1,1,13,35,635,1025.3629909579176,1026.502577325562,"[63, 0, 191]",191,l,0.6162821289617568,colour,0.06
011,68,1,1,13,36,636,1027.019304342568,1028.7185157849453,"[98, 0, 156]",156,l,1.1757768408861011,colour,0.06
011,68,1,1,13,37,637,1029.2303098854609,1030.7025201392826,"[52, 0, 202]",202,a,0.9560889713466167,colour,0.06
011,68,1,1,13,38,638,1031.2240371063817,1031.8705472799484,"[51, 0, 203]",203,a,0.12669186224229634,colour,0.06
011,68,1,1,13,39,639,1032.3769744464662,1033.4066499255132,"[69, 0, 185]",185,l,0.5062778990250081,colour,0.06
011,68,1,1,13,40,640,1033.9238727940246,1034.5425148459617,"[90, 0, 164]",164,l,0.09522517351433635,colour,0.06
011,68,1,1,13,41,641,1035.0490593784489,1036.1825517727993,"[64, 0, 190]",190,l,0.6222449513152242,colour,0.06
011,68,1,1,13,42,642,1036.693262010347,1037.4545565180015,"[74, 0, 180]",180,l,0.2378811736125499,colour,0.06
011,68,1,1,13,43,643,1037.9745871119667,1039.0865322130267,"[84, 0, 170]",170,l,0.5863632534164935,colour,0.06
011,68,1,1,13,44,644,1039.6018847087398,1040.9985549803823,"[89, 0, 165]",165,l,0.8732581194490194,colour,0.06
011,68,1,1,13,45,645,1041.5081478778739,1042.70260757301,"[55, 0, 199]",199,a,0.6769729498773813,colour,0.06
011,68,1,1,13,46,646,1043.2254407722503,1043.9585233309772,"[96, 0, 158]",158,l,0.21292790351435542,colour,0.06
011,68,1,1,13,47,647,1044.471090944251,1045.6785136738326,"[71, 0, 183]",183,l,0.6760320528410375,colour,0.06
011,68,1,1,13,48,648,1046.2005367327947,1046.8865511962213,"[57, 0, 197]",197,a,0.15711131575517356,colour,0.06
011,68,1,1,13,49,649,1047.405516044004,1048.462548039155,"[76, 0, 178]",178,l,0.5382810055743903,colour,0.06
011,68,1,1,13,50,650,1048.9846766486298,1050.12653393019,"[58, 0, 196]",196,a,0.6094930183608085,colour,0.06
011,68,1,1,14,1,651,1055.1984186309855,1058.60654114536,"[64, 0, 190]",190,a,2.887871760642156,colour,0.06
011,68,1,1,14,2,652,1059.1231094424147,1059.7185744678136,"[83, 0, 171]",171,l,0.07034555217251182,colour,0.06
011,68,1,1,14,3,653,1060.2310546475928,1061.3185123978183,"[50, 0, 204]",204,a,0.5727814873680472,colour,0.06
011,68,1,1,14,4,654,1061.8413511109538,1062.862533309497,"[84, 0, 170]",170,l,0.4886773326434195,colour,0.06
011,68,1,1,14,5,655,1063.3730210242793,1065.126507542329,"[86, 0, 168]",168,l,1.2362707387655973,colour,0.06
011,68,1,1,14,6,656,1065.6463207334746,1066.9425178391393,"[89, 0, 165]",165,l,0.7767872123513371,colour,0.06
011,68,1,1,14,7,657,1067.4584654355422,1068.550517394906,"[99, 0, 155]",155,l,0.5731068039312959,colour,0.06
011,68,1,1,14,8,658,1069.0694743655622,1071.126574496273,"[26, 0, 228]",228,a,1.5234113647602499,colour,0.06
011,68,1,1,14,9,659,1071.6851613938343,1072.790535574779,"[65, 0, 189]",189,l,0.5883198783267289,colour,0.06
011,68,1,1,14,10,660,1073.3111144017894,1074.350530076772,"[58, 0, 196]",196,l,0.5125585549976677,colour,0.06
011,68,1,1,14,11,661,1074.863959030481,1075.5505126686767,"[57, 0, 197]",197,a,0.1558202898595482,colour,0.06
011,68,1,1,14,12,662,1076.0685062932316,1076.7985011022538,"[78, 0, 176]",176,l,0.21178732649423182,colour,0.06
011,68,1,1,14,13,663,1077.3219605160411,1077.9665258799214,"[98, 0, 156]",156,l,0.1272176462225616,colour,0.06
011,68,1,1,14,14,664,1078.4814352993853,1079.7504735991824,"[59, 0, 195]",195,a,0.7513105212710798,colour,0.06
011,68,1,1,14,15,665,1080.261415811954,1081.7984707760625,"[90, 0, 164]",164,l,1.0139626145828515,colour,0.06
011,68,1,1,14,16,666,1082.3068037615158,1082.9104647140484,"[82, 0, 172]",172,l,0.0967792880255729,colour,0.06
011,68,1,1,14,17,667,1083.430982101243,1084.3584920596331,"[93, 0, 161]",161,l,0.40400958457030356,colour,0.06
011,68,1,1,14,18,668,1084.8686052272096,1085.9984580944292,"[38, 0, 216]",216,a,0.6064340195152909,colour,0.06
011,68,1,1,14,19,669,1086.510473142378,1087.5745285863522,"[91, 0, 163]",163,l,0.5407630207482725,colour,0.06
011,68,1,1,14,20,670,1088.0886294408701,1089.07046528114,"[54, 0, 200]",200,a,0.45848315861076117,colour,0.06
011,68,1,1,14,21,671,1089.5828249442857,1090.6064493793529,"[74, 0, 180]",180,l,0.5001622643321753,colour,0.06
011,68,1,1,14,22,672,1091.113936778158,1092.4705037204549,"[68, 0, 186]",186,l,0.7973179901018739,colour,0.06
011,68,1,1,14,23,673,1092.9799713750836,1093.8144372771494,"[71, 0, 183]",183,l,0.3110356326214969,colour,0.06
011,68,1,1,14,24,674,1094.323865153361,1095.006518932525,"[92, 0, 162]",162,l,0.16673257015645504,colour,0.06
011,68,1,1,14,25,675,1095.5220915880054,1096.5904616105836,"[55, 0, 199]",199,a,0.5529482101555914,colour,0.06
011,68,1,1,14,26,676,1097.1080342140049,1098.1105264690705,"[62, 0, 192]",192,a,0.4791360287927091,colour,0.06
011,68,1,1,14,27,677,1098.6146382172592,1099.350487147458,"[85, 0, 169]",169,l,0.21242181165143847,colour,0.06
011,68,1,1,14,28,678,1099.8647175771184,1100.9264513012022,"[79, 0, 175]",175,l,0.5383109378162771,colour,0.06
011,68,1,1,14,29,679,1101.4497291522566,1103.6304546631873,"[66, 0, 188]",188,a,1.6503340206108987,colour,0.06
011,68,1,1,14,30,680,1104.1548246480525,1105.6304479676764,"[67, 0, 187]",187,a,0.9555525535251945,colour,0.06
011,68,1,1,14,31,681,1106.153109450359,1107.8464329007547,"[70, 0, 184]",184,l,1.1611592608969659,colour,0.06
011,68,1,1,14,32,682,1108.3660208121873,1109.1024360924494,"[76, 0, 178]",178,l,0.2181818038225174,colour,0.06
011,68,1,1,14,33,683,1109.6194049306214,1110.1504403587896,"[81, 0, 173]",173,l,0.013133569620549679,colour,0.06
011,68,1,1,14,34,684,1110.6747776544653,1111.726430112496,"[52, 0, 202]",202,a,0.532430823193863,colour,0.06
011,68,1,1,14,35,685,1112.2449058038183,1113.3744278405793,"[77, 0, 177]",177,l,0.6023348742164671,colour,0.06
011,68,1,1,14,36,686,1113.8887906023301,1114.6544516761787,"[87, 0, 167]",167,l,0.24850988504476845,colour,0.06
011,68,1,1,14,37,687,1115.1715646618977,1116.2064396906644,"[75, 0, 179]",179,l,0.5038230593781918,colour,0.06
011,68,1,1,14,38,688,1116.7159270376433,1117.9024196297396,"[34, 0, 220]",220,a,0.6675722489599138,colour,0.06
011,68,1,1,14,39,689,1118.4205814262386,1119.0864302068949,"[97, 0, 157]",157,l,0.14765587029978633,colour,0.06
011,68,1,1,14,40,690,1119.5965492820833,1120.6224044589326,"[63, 0, 191]",191,a,0.5080013675615191,colour,0.06
011,68,1,1,14,41,691,1121.1357199852355,1121.7824597705621,"[94, 0, 160]",160,l,0.12094604875892401,colour,0.06
011,68,1,1,14,42,692,1122.3044714077841,1123.4224647961091,"[53, 0, 201]",201,a,0.5851368182338774,colour,0.06
011,68,1,1,14,43,693,1123.9395143724978,1124.9504250774626,"[60, 0, 194]",194,a,0.4795117573812604,colour,0.06
011,68,1,1,14,44,694,1125.4601558209397,1126.438443900086,"[56, 0, 198]",198,a,0.44769927207380533,colour,0.06
011,68,1,1,14,45,695,1126.958918751916,1127.5905419550836,"[88, 0, 166]",166,l,0.1123424912802875,colour,0.06
011,68,1,1,14,46,696,1128.1094032214023,1129.134413992986,"[51, 0, 203]",203,a,0.5061971605755389,colour,0.06
011,68,1,1,14,47,697,1129.6584897753783,1130.4463905231096,"[69, 0, 185]",185,l,0.27008829242549837,colour,0.06
011,68,1,1,14,48,698,1130.9552335385233,1131.6864118536469,"[95, 0, 159]",159,l,0.20677288412116468,colour,0.06
011,68,1,1,14,49,699,1132.2251768957358,1132.902419236023,"[80, 0, 174]",174,l,0.15564187779091299,colour,0.06
011,68,1,1,14,50,700,1133.4182348940521,1134.1346463619266,"[73, 0, 181]",181,l,0.19729223265312612,colour,0.06
011,68,1,1,15,1,701,1139.0088280492928,1141.6944289749954,"[85, 0, 169]",169,l,2.166508866008371,colour,0.06
011,68,1,1,15,2,702,1142.2112528779544,1142.8144569694996,"[71, 0, 183]",183,l,0.07064684410579503,colour,0.06
011,68,1,1,15,3,703,1143.3240585315507,1144.5263982897159,"[88, 0, 166]",166,l,0.6791288608219475,colour,0.06
011,68,1,1,15,4,704,1145.0460870256647,1146.342395589454,"[75, 0, 179]",179,l,0.7724958704784513,colour,0.06
011,68,1,1,15,5,705,1146.8620496669319,1147.9824301532935,"[80, 0, 174]",174,l,0.6019563886802644,colour,0.06
011,68,1,1,15,6,706,1148.4966519183945,1149.5504232656676,"[50, 0, 204]",204,a,0.5354303510393947,colour,0.06
011,68,1,1,15,7,707,1150.0651928700972,1150.9743693151977,"[57, 0, 197]",197,a,0.3912545007187873,colour,0.06
011,68,1,1,15,8,708,1151.4811450350098,1152.6783994585276,"[96, 0, 158]",158,l,0.6793423250783235,colour,0.06
011,68,1,1,15,9,709,1153.1911104319151,1154.1824076254852,"[93, 0, 161]",161,l,0.4734658335801214,colour,0.06
011,68,1,1,15,10,710,1154.6920859874226,1155.622418243438,"[63, 0, 191]",191,l,0.41233745007775724,colour,0.06
011,68,1,1,15,11,711,1156.1376852747053,1157.1184100767132,"[62, 0, 192]",192,l,0.46318449382670224,colour,0.06
011,68,1,1,15,12,712,1157.6307212966494,1158.1984430493321,"[98, 0, 156]",156,l,0.043636912014335394,colour,0.06
011,68,1,1,15,13,713,1158.7191227008589,1159.4703182191588,"[41, 0, 213]",213,a,0.23257843614555895,colour,0.06
011,68,1,1,15,14,714,1159.990167250391,1160.6944171595387,"[77, 0, 177]",177,l,0.17843214771710336,colour,0.06
011,68,1,1,15,15,715,1161.2034129872918,1162.3024356199894,"[99, 0, 155]",155,l,0.5699607650749385,colour,0.06
011,68,1,1,15,16,716,1162.8226162691135,1163.9743476537988,"[83, 0, 171]",171,l,0.6283389246091247,colour,0.06
011,68,1,1,15,17,717,1164.4882452837192,1165.4784467988648,"[56, 0, 198]",198,a,0.4672769436147064,colour,0.06
011,68,1,1,15,18,718,1165.9884091236163,1166.8783336076885,"[68, 0, 186]",186,l,0.3566153855063021,colour,0.06
011,68,1,1,15,19,719,1167.3821353993844,1168.2304370976053,"[61, 0, 193]",193,l,0.3249450782313943,colour,0.06
011,68,1,1,15,20,720,1168.7416514575016,1169.6863378107082,"[60, 0, 194]",194,l,0.4214597020763904,colour,0.06
011,68,1,1,15,21,721,1170.1949508204125,1171.1023671694566,"[59, 0, 195]",195,a,0.38407508889213204,colour,0.06
011,68,1,1,15,22,722,1171.6143089623656,1172.6143881252501,"[78, 0, 176]",176,l,0.48162040673196316,colour,0.06
011,68,1,1,15,23,723,1173.1330457734875,1174.4623944393825,"[24, 0, 230]",230,a,0.8059124890714884,colour,0.06
011,68,1,1,15,24,724,1174.976995083969,1175.7263395278715,"[72, 0, 182]",182,l,0.22601972543634474,colour,0.06
011,68,1,1,15,25,725,1176.2426325269043,1176.7663349434733,"[95, 0, 159]",159,l,0.012124143308028579,colour,0.06
011,68,1,1,15,26,726,1177.277758435579,1179.5663637730759,"[87, 0, 167]",167,l,1.7681430887896568,colour,0.06
011,68,1,1,15,27,727,1180.0875904760323,1181.2383553637192,"[54, 0, 200]",200,a,0.6275366612244397,colour,0.06
011,68,1,1,15,28,728,1181.7528197376523,1182.5503212597687,"[69, 0, 185]",185,l,0.2631755140610039,colour,0.06
011,68,1,1,15,29,729,1183.0589283616282,1183.6223410496023,"[81, 0, 173]",173,l,0.03988198796287179,colour,0.06
011,68,1,1,15,30,730,1184.1371508261655,1184.9663982738275,"[29, 0, 225]",225,a,0.30656430358067155,colour,0.06
011,68,1,1,15,31,731,1185.482492774725,1186.110390198417,"[89, 0, 165]",165,l,0.10449748043902218,colour,0.06
011,68,1,1,15,32,732,1186.623139768606,1187.6223721634597,"[70, 0, 184]",184,l,0.4800903166178614,colour,0.06
011,68,1,1,15,33,733,1188.134606189793,1188.6943667472806,"[84, 0, 170]",170,l,0.03640354354865849,colour,0.06
011,68,1,1,15,34,734,1189.2127959651407,1189.9263465383556,"[94, 0, 160]",160,l,0.19015378085896373,colour,0.06
011,68,1,1,15,35,735,1190.447757954942,1191.286358448211,"[97, 0, 157]",157,l,0.31519385473802686,colour,0.06
011,68,1,1,15,36,736,1191.7963400713634,1193.8623438696377,"[82, 0, 172]",172,l,1.5487439082935452,colour,0.06
011,68,1,1,15,37,737,1194.3780571280513,1195.2383565451019,"[58, 0, 196]",196,a,0.3385733177419752,colour,0.06
011,68,1,1,15,38,738,1195.7515098070726,1196.8143155789003,"[73, 0, 181]",181,l,0.5394345794338733,colour,0.06
011,68,1,1,15,39,739,1197.3350787255913,1198.4383355926257,"[76, 0, 178]",178,l,0.5799573543481529,colour,0.06
011,68,1,1,15,40,740,1198.9444870671723,1200.062312677037,"[51, 0, 203]",203,a,0.5943457160610706,colour,0.06
011,68,1,1,15,41,741,1200.569695706945,1201.5742977929767,"[86, 0, 168]",168,l,0.48127342900261283,colour,0.06
011,68,1,1,15,42,742,1202.0876109560486,1203.8783170660026,"[65, 0, 189]",189,a,1.273574219783768,colour,0.06
011,68,1,1,15,43,743,1204.3997186366469,1205.4063951072749,"[74, 0, 180]",180,l,0.4833009459543973,colour,0.06
011,68,1,1,15,44,744,1205.9155398085713,1206.8943308286835,"[55, 0, 199]",199,a,0.45547575363889337,colour,0.06
011,68,1,1,15,45,745,1207.4088660946582,1208.0462800099049,"[92, 0, 162]",162,l,0.11392456898465753,colour,0.06
011,68,1,1,15,46,746,1208.557758640265,1209.334298517555,"[52, 0, 202]",202,a,0.2530205990187824,colour,0.06
011,68,1,1,15,47,747,1209.8546048034914,1210.6703811557963,"[66, 0, 188]",188,l,0.29246620601043105,colour,0.06
011,68,1,1,15,48,748,1211.1828180125449,1211.7903225042392,"[67, 0, 187]",187,l,0.09145134454593062,colour,0.06
011,68,1,1,15,49,749,1212.2988622586709,1213.0703305860516,"[53, 0, 201]",201,a,0.2388299477752298,colour,0.06
011,68,1,1,15,50,750,1213.5801255262922,1214.3743207147345,"[79, 0, 175]",175,l,0.2743489141575992,colour,0.06
011,68,1,1,16,1,751,1219.5711052804254,1220.7502979440615,"[70, 0, 184]",184,l,0.6599249488208443,colour,0.06
011,68,1,1,16,2,752,1221.25954858982,1222.04633357306,"[93, 0, 161]",161,l,0.25812523206695914,colour,0.06
011,68,1,1,16,3,753,1222.5594895917457,1223.318252459634,"[77, 0, 177]",177,l,0.22716266522184014,colour,0.06
011,68,1,1,16,4,754,1223.8417020272464,1224.7022834380623,"[74, 0, 180]",180,l,0.3431884008459747,colour,0.06
011,68,1,1,16,5,755,1225.2201801764313,1225.838302352,"[82, 0, 172]",172,l,0.08474730467423797,colour,0.06
011,68,1,1,16,6,756,1226.348183150636,1227.5742576206103,"[62, 0, 192]",192,a,0.7093131884466857,colour,0.06
011,68,1,1,16,7,757,1228.093925876543,1228.7262973864563,"[96, 0, 158]",158,l,0.11326330248266459,colour,0.06
011,68,1,1,16,8,758,1229.2398570969235,1230.8143309389707,"[75, 0, 179]",179,l,1.0546051186975092,colour,0.06
011,68,1,1,16,9,759,1231.3320224836934,1232.070298684528,"[71, 0, 183]",183,l,0.21409841254353523,colour,0.06
011,68,1,1,16,10,760,1232.5807501655072,1233.1822981364094,"[84, 0, 170]",170,l,0.05038230610080063,colour,0.06
011,68,1,1,16,11,761,1233.6963930830825,1234.4622609256767,"[52, 0, 202]",202,a,0.23387340060435236,colour,0.06
011,68,1,1,16,12,762,1234.9781372360885,1236.4783109221607,"[63, 0, 191]",191,l,0.9813533795531839,colour,0.06
011,68,1,1,16,13,763,1236.9916772544384,1237.6143554360606,"[81, 0, 173]",173,l,0.10446242825128138,colour,0.06
011,68,1,1,16,14,764,1238.1365222486202,1238.7502892795019,"[92, 0, 162]",162,l,0.08283754740841687,colour,0.06
011,68,1,1,16,15,765,1239.262855711393,1240.366281144321,"[72, 0, 182]",182,l,0.5834129559807479,colour,0.06
011,68,1,1,16,16,766,1240.8754530209117,1242.030259551946,"[64, 0, 190]",190,a,0.635603406932205,colour,0.06
011,68,1,1,16,17,767,1242.5369746196084,1243.1262735980563,"[58, 0, 196]",196,a,0.07029789686203003,colour,0.06
011,68,1,1,16,18,768,1243.636545485584,1244.2383037698455,"[53, 0, 201]",201,a,0.07837960892356932,colour,0.06
011,68,1,1,16,19,769,1244.7459750946146,1245.5182287502103,"[32, 0, 222]",222,a,0.24894941691309214,colour,0.06
011,68,1,1,16,20,770,1246.0251517682336,1246.8622335928958,"[69, 0, 185]",185,l,0.31365234311670065,colour,0.06
011,68,1,1,16,21,771,1247.3588670005556,1248.1023612618446,"[87, 0, 167]",167,l,0.22011716105043888,colour,0.06
011,68,1,1,16,22,772,1248.6089731419925,1249.5342488142196,"[66, 0, 188]",188,l,0.40187494130805135,colour,0.06
011,68,1,1,16,23,773,1250.0466770064086,1250.6542456948664,"[80, 0, 174]",174,l,0.09207874070852995,colour,0.06
011,68,1,1,16,24,774,1251.1643108134158,1252.542222218588,"[57, 0, 197]",197,a,0.8545953512657434,colour,0.06
011,68,1,1,16,25,775,1253.1028212734964,1253.6862661307678,"[91, 0, 163]",163,l,0.0629936361219734,colour,0.06
011,68,1,1,16,26,776,1254.1938236341812,1254.8703637479339,"[78, 0, 176]",176,l,0.15086728753522038,colour,0.06
011,68,1,1,16,27,777,1255.3837269293144,1256.6062260689214,"[61, 0, 193]",193,a,0.6993658298160881,colour,0.06
011,68,1,1,16,28,778,1257.1182509630453,1258.0702502415515,"[67, 0, 187]",187,l,0.43050200352445245,colour,0.06
011,68,1,1,16,29,779,1258.5854062084109,1260.654288230231,"[90, 0, 164]",164,l,1.5461311363615096,colour,0.06
011,68,1,1,16,30,780,1261.1676340827253,1262.3262530392967,"[88, 0, 166]",166,l,0.6351981395855546,colour,0.06
011,68,1,1,16,31,781,1262.8474246039987,1264.0462874930818,"[56, 0, 198]",198,a,0.680621535750106,colour,0.06
011,68,1,1,16,32,782,1264.5684133456089,1265.5261990036815,"[65, 0, 189]",189,l,0.4251394015736878,colour,0.06
011,68,1,1,16,33,783,1266.0374074559659,1266.6942741936073,"[76, 0, 178]",178,l,0.1384962028823793,colour,0.06
011,68,1,1,16,34,784,1267.2136931454297,1268.1502241373528,"[95, 0, 159]",159,l,0.4185373676009476,colour,0.06
011,68,1,1,16,35,785,1268.6607902275864,1269.4942459154408,"[54, 0, 200]",200,a,0.3148653875105083,colour,0.06
011,68,1,1,16,36,786,1270.0144698875956,1271.56623025937,"[98, 0, 156]",156,l,1.0336182673927397,colour,0.06
011,68,1,1,16,37,787,1272.080403187545,1272.750236110296,"[89, 0, 165]",165,l,0.15483134356327355,colour,0.06
011,68,1,1,16,38,788,1273.2696247359272,1275.5103443549015,"[83, 0, 171]",171,l,1.7149396669119596,colour,0.06
011,68,1,1,16,39,789,1276.0224484121427,1277.1581916341092,"[68, 0, 186]",186,l,0.6121774700004607,colour,0.06
011,68,1,1,16,40,790,1277.6737469604705,1278.934263622854,"[48, 0, 206]",206,a,0.7306186605710536,colour,0.06
011,68,1,1,16,41,791,1279.4460766280536,1280.6142203470226,"[86, 0, 168]",168,l,0.6448256957810372,colour,0.06
011,68,1,1,16,42,792,1281.1336968003307,1282.0941814824473,"[73, 0, 181]",181,l,0.4369913977570832,colour,0.06
011,68,1,1,16,43,793,1282.6011612142902,1283.4142101858743,"[55, 0, 199]",199,a,0.294888750417158,colour,0.06
011,68,1,1,16,44,794,1283.9313263222575,1284.710254873149,"[50, 0, 204]",204,a,0.25587519188411534,colour,0.06
011,68,1,1,16,45,795,1285.2282457407564,1286.5022098675836,"[99, 0, 155]",155,l,0.7504543007817119,colour,0.06
011,68,1,1,16,46,796,1287.0170472133905,1288.6301899990067,"[60, 0, 194]",194,a,1.0958962864242494,colour,0.06
011,68,1,1,16,47,797,1289.139602515148,1289.7022086072247,"[97, 0, 157]",157,l,0.03933178563602269,colour,0.06
011,68,1,1,16,48,798,1290.2176957982592,1290.9982194239274,"[18, 0, 236]",236,a,0.25274490704759955,colour,0.06
011,68,1,1,16,49,799,1291.5192685024813,1293.2301917318255,"[59, 0, 195]",195,a,1.1876315937843174,colour,0.06
011,68,1,1,16,50,800,1293.7474457141943,1294.310276298318,"[79, 0, 175]",175,l,0.04291617474518716,colour,0.06
