id,age,condition,counterbalance,block,trialinblock,trial,tstart,tend,trialstim,trialintensity,response,RT,trialtype,colourfreq
152,21,0,2,Practice,1,NA,6.3015613704919815e-06,0.9340170755749568,"[78, 0, 176]",176,a,0.4097156197531149,colour,0.5
152,21,0,2,Practice,2,NA,1.4540642111096531,2.421986667555757,"[14, 0, 240]",240,a,0.44477930071298033,colour,0.5
152,21,0,2,Practice,3,NA,2.9383225959027186,3.5019578066421673,"[43, 0, 211]",211,a,0.04033018450718373,colour,0.5
152,21,0,2,Practice,4,NA,4.016381220542826,4.8699659638805315,"[76, 0, 178]",178,a,0.33036675688344985,colour,0.5
152,21,0,2,Practice,5,NA,5.391740899998695,6.2379839674104005,"[92, 0, 162]",162,a,0.3232991974800825,colour,0.5
152,21,0,2,Practice,6,NA,6.75073156831786,7.4060343449236825,"[45, 0, 209]",209,a,0.13202728878241032,colour,0.5
152,21,0,2,Practice,7,NA,7.922562076011673,9.325955686159432,"[71, 0, 183]",183,a,0.8803599433740601,colour,0.5
152,21,0,2,Practice,8,NA,9.844440042157657,12.381970378104597,"[84, 0, 170]",170,l,2.014202072750777,colour,0.5
152,21,0,2,Practice,9,NA,12.89126946683973,13.525974905816838,"[39, 0, 215]",215,a,0.11133818503003567,colour,0.5
152,21,0,2,Practice,10,NA,14.047534014564008,16.04597950587049,"[7, 0, 247]",247,a,1.475455541512929,colour,0.5
152,21,0,2,1,1,1,4.475990383885801,5.432033275254071,"[16, 0, 238]",238,a,0.43207738595083356,colour,0.5
152,21,0,2,1,2,2,5.945428358390927,6.792025099042803,"[24, 0, 230]",230,a,0.3232164898654446,colour,0.5
152,21,0,2,1,3,3,7.304826262872666,8.112019537948072,"[18, 0, 236]",236,a,0.28415251907426864,colour,0.5
152,21,0,2,1,4,4,8.632926438353024,9.656001458875835,"[8, 0, 246]",246,a,0.4997987449169159,colour,0.5
152,21,0,2,1,5,5,10.164302542805672,10.823963221162558,"[70, 0, 184]",184,l,0.13641984888818115,colour,0.5
152,21,0,2,1,6,6,11.3360574322287,12.295995456632227,"[25, 0, 229]",229,a,0.4365506843896583,colour,0.5
152,21,0,2,1,7,7,12.804864465957507,13.767992639914155,"[34, 0, 220]",220,a,0.43982196610886604,colour,0.5
152,21,0,2,1,8,8,14.289182321401313,15.183957801898941,"[5, 0, 249]",249,a,0.3714322510641068,colour,0.5
152,21,0,2,1,9,9,15.695518745924346,16.584011995000765,"[12, 0, 242]",242,a,0.3652283949777484,colour,0.5
152,21,0,2,1,10,10,17.101696450612508,17.991990361828357,"[55, 0, 199]",199,a,0.36696407257113606,colour,0.5
152,21,0,2,1,11,11,18.50794032146223,19.464026929577813,"[40, 0, 214]",214,a,0.4329036739654839,colour,0.5
152,21,0,2,1,12,12,19.976684733759612,20.536067987210117,"[68, 0, 186]",186,l,0.036004577996209264,colour,0.5
152,21,0,2,1,13,13,21.054797709104605,22.807951427879743,"[71, 0, 183]",183,l,1.229794341721572,colour,0.5
152,21,0,2,1,14,14,23.32037489383947,23.87198442267254,"[96, 0, 158]",158,l,0.028268268681131303,colour,0.5
152,21,0,2,1,15,15,24.38281360163819,24.91200701368507,"[19, 0, 235]",235,a,0.0058990196557715535,colour,0.5
152,21,0,2,1,16,16,25.42969934619032,26.575950763071887,"[80, 0, 174]",174,l,0.6227459231158718,colour,0.5
152,21,0,2,1,17,17,27.08599815843627,27.89595780498348,"[2, 0, 252]",252,a,0.28663453413173556,colour,0.5
152,21,0,2,1,18,18,28.41495140339248,28.951940989354625,"[14, 0, 240]",240,a,0.014449407812207937,colour,0.5
152,21,0,2,1,19,19,29.46101952448953,30.25592363497708,"[10, 0, 244]",244,a,0.2715805734042078,colour,0.5
152,21,0,2,1,20,20,30.773455672315322,31.86405749199912,"[87, 0, 167]",167,l,0.567218811949715,colour,0.5
152,21,0,2,1,21,21,32.38282896159217,33.19196625845507,"[37, 0, 217]",217,a,0.28582360595464706,colour,0.5
152,21,0,2,1,22,22,33.71094764769077,34.423975981771946,"[53, 0, 201]",201,a,0.18961184937506914,colour,0.5
152,21,0,2,1,23,23,34.945409453706816,35.91995718120597,"[85, 0, 169]",169,l,0.4511855934979394,colour,0.5
152,21,0,2,1,24,24,36.42964381398633,37.791940422262996,"[69, 0, 185]",185,l,0.8389202959369868,colour,0.5
152,21,0,2,1,25,25,38.30471401696559,39.15996078879107,"[81, 0, 173]",173,l,0.3325514185708016,colour,0.5
152,21,0,2,1,26,26,39.67964913090691,40.51205837109592,"[57, 0, 197]",197,a,0.30893407261464745,colour,0.5
152,21,0,2,1,27,27,41.02348934614565,42.17596982512623,"[33, 0, 221]",221,a,0.6291719080181792,colour,0.5
152,21,0,2,1,28,28,42.69534033385571,43.55999844043981,"[54, 0, 200]",200,a,0.3412908526370302,colour,0.5
152,21,0,2,1,29,29,44.07033728156239,44.719972619903274,"[79, 0, 175]",175,l,0.12636221351567656,colour,0.5
152,21,0,2,1,30,30,45.22657189692836,45.87995349476114,"[77, 0, 177]",177,l,0.13006278686225414,colour,0.5
152,21,0,2,1,31,31,46.398388226283714,47.695935828378424,"[52, 0, 202]",202,a,0.7740799175808206,colour,0.5
152,21,0,2,1,32,32,48.21096182614565,49.143965930794366,"[59, 0, 195]",195,a,0.4100314839743078,colour,0.5
152,21,0,2,1,33,33,49.66408356465399,50.456333549460396,"[17, 0, 237]",237,a,0.26896701380610466,colour,0.5
152,21,0,2,1,34,34,50.97653152782004,51.91993433807511,"[90, 0, 164]",164,l,0.4200910886283964,colour,0.5
152,21,0,2,1,35,35,52.429574890993536,53.07995971746277,"[42, 0, 212]",212,a,0.12684664351399988,colour,0.5
152,21,0,2,1,36,36,53.60143769404385,54.199997164309025,"[67, 0, 187]",187,l,0.07508075796067715,colour,0.5
152,21,0,2,1,37,37,54.71087911853101,55.75992983253673,"[98, 0, 156]",156,l,0.5256913369521499,colour,0.5
152,21,0,2,1,38,38,56.27340919850394,57.023914699442685,"[97, 0, 157]",157,l,0.22719496069476008,colour,0.5
152,21,0,2,1,39,39,57.53902576782275,58.37594217725564,"[95, 0, 159]",159,l,0.31357436161488295,colour,0.5
152,21,0,2,1,40,40,58.88272459246218,59.73593163792975,"[32, 0, 222]",222,a,0.32988626533187926,colour,0.5
152,21,0,2,1,41,41,60.24218787543941,61.55191397154704,"[31, 0, 223]",223,a,0.786696761730127,colour,0.5
152,21,0,2,1,42,42,62.07024000165984,62.71200039703399,"[75, 0, 179]",179,l,0.11839235376100987,colour,0.5
152,21,0,2,1,43,43,63.226486038649455,63.783916211803444,"[11, 0, 243]",243,a,0.03412081452552229,colour,0.5
152,21,0,2,1,44,44,64.30460531555582,64.99191868200433,"[82, 0, 172]",172,l,0.1640370908426121,colour,0.5
152,21,0,2,1,45,45,65.50768983562011,66.35194280103315,"[13, 0, 241]",241,a,0.320998351322487,colour,0.5
152,21,0,2,1,46,46,66.8671381524764,67.59194680256769,"[3, 0, 251]",251,a,0.2015437961090356,colour,0.5
152,21,0,2,1,47,47,68.10141839564312,68.79193215142004,"[30, 0, 224]",224,a,0.167428495362401,colour,0.5
152,21,0,2,1,48,48,69.30459153093398,70.03188770997804,"[43, 0, 211]",211,a,0.20403605105821043,colour,0.5
152,21,0,2,1,49,49,70.5389462109888,71.28790192934684,"[36, 0, 218]",218,a,0.22559200902469456,colour,0.5
152,21,0,2,1,50,50,71.80455135868397,72.54389133641962,"[74, 0, 180]",180,l,0.2159628776134923,colour,0.5
152,21,0,2,2,1,51,77.49135981500149,78.03190661454573,"[66, 0, 188]",188,l,0.016686056973412633,colour,0.5
152,21,0,2,2,2,52,78.53904152160976,79.31992630369496,"[31, 0, 223]",223,a,0.25765813107136637,colour,0.5
152,21,0,2,2,3,53,79.83576953108422,80.67190218775067,"[92, 0, 162]",162,l,0.312815421144478,colour,0.5
152,21,0,2,2,4,54,81.17950065108016,82.29592968442012,"[64, 0, 190]",190,a,0.5930468132719398,colour,0.5
152,21,0,2,2,5,55,82.80457932176068,83.49589731032029,"[15, 0, 239]",239,a,0.1680090237641707,colour,0.5
152,21,0,2,2,6,56,84.00773434014991,84.80789865250699,"[76, 0, 178]",178,l,0.2773248115554452,colour,0.5
152,21,0,2,2,7,57,85.32022444473114,86.14387258945499,"[27, 0, 227]",227,a,0.30035060143563896,colour,0.5
152,21,0,2,2,8,58,86.66392405715305,87.34397294127848,"[86, 0, 168]",168,l,0.15665051632095128,colour,0.5
152,21,0,2,2,9,59,87.85134651884437,88.39192088751588,"[72, 0, 182]",182,l,0.017256739316508174,colour,0.5
152,21,0,2,2,10,60,88.89817318657879,89.71986785694025,"[91, 0, 163]",163,l,0.2985294592799619,colour,0.5
152,21,0,2,2,11,61,90.2263832448516,91.03989380353596,"[67, 0, 187]",187,l,0.29060055944137275,colour,0.5
152,21,0,2,2,12,62,91.55453068180941,92.43986843980383,"[43, 0, 211]",211,a,0.3620421839877963,colour,0.5
152,21,0,2,2,13,63,92.96070366038475,93.51190516515635,"[73, 0, 181]",181,l,0.02780510624870658,colour,0.5
152,21,0,2,2,14,64,94.02324634336401,94.84793620964047,"[96, 0, 158]",158,l,0.30179719626903534,colour,0.5
152,21,0,2,2,15,65,95.36712239857297,96.1045404097531,"[63, 0, 191]",191,a,0.21421341539826244,colour,0.5
152,21,0,2,2,16,66,96.61696978344116,97.72787079983391,"[6, 0, 248]",248,a,0.5876259222859517,colour,0.5
152,21,0,2,2,17,67,98.24197007878684,98.91989259049296,"[60, 0, 194]",194,l,0.15443434717599303,colour,0.5
152,21,0,2,2,18,68,99.42948036803864,100.43988261825871,"[40, 0, 214]",214,a,0.4874071803642437,colour,0.5
152,21,0,2,2,19,69,100.96067727275658,101.78391621180344,"[33, 0, 221]",221,a,0.2998547498136759,colour,0.5
152,21,0,2,2,20,70,102.30444541422185,102.83984780230094,"[0, 0, 254]",254,a,0.012062309426255524,colour,0.5
152,21,0,2,2,21,71,103.3513413987821,104.40788305620663,"[44, 0, 210]",210,a,0.5333331231959164,colour,0.5
152,21,0,2,2,22,72,104.92936812201515,105.8239179289667,"[3, 0, 251]",251,a,0.37107345776166767,colour,0.5
152,21,0,2,2,23,73,106.3356080543017,107.183869580389,"[36, 0, 218]",218,a,0.3249037243658677,colour,0.5
152,21,0,2,2,24,74,107.69506030960474,108.51201938034501,"[42, 0, 212]",212,a,0.29390295478515327,colour,0.5
152,21,0,2,2,25,75,109.02326091565192,109.85588125721551,"[12, 0, 242]",242,a,0.309387388988398,colour,0.5
152,21,0,2,2,26,76,110.36695619579405,111.13585743738804,"[10, 0, 244]",244,a,0.24488611170090735,colour,0.5
152,21,0,2,2,27,77,111.64816471887752,112.48789397371002,"[1, 0, 253]",253,a,0.31629110872745514,colour,0.5
152,21,0,2,2,28,78,113.00760712800547,113.76788275688887,"[11, 0, 243]",243,a,0.23700919945258647,colour,0.5
152,21,0,2,2,29,79,114.28874909121078,115.03183532843832,"[99, 0, 155]",155,l,0.22004902584012598,colour,0.5
152,21,0,2,2,30,80,115.53876661742106,116.18383019592147,"[79, 0, 175]",175,l,0.12169790000189096,colour,0.5
152,21,0,2,2,31,81,116.69499493122566,117.45582903327886,"[5, 0, 249]",249,a,0.23748220806010067,colour,0.5
152,21,0,2,2,32,82,117.97634366340935,118.84785232052673,"[48, 0, 206]",206,a,0.34818118158727884,colour,0.5
152,21,0,2,2,33,83,119.36684316210449,120.06388924119528,"[88, 0, 166]",166,l,0.17396239400841296,colour,0.5
152,21,0,2,2,34,84,120.56999739282764,121.40784288395662,"[56, 0, 198]",198,a,0.31455346173606813,colour,0.5
152,21,0,2,2,35,85,121.91385493730195,122.55983460065909,"[45, 0, 209]",209,a,0.12274119700305164,colour,0.5
152,21,0,2,2,36,86,123.07007182959933,123.86392082762904,"[51, 0, 203]",203,a,0.27056523936335,colour,0.5
152,21,0,2,2,37,87,124.38245953433216,124.98381530854385,"[23, 0, 231]",231,a,0.07804799091536552,colour,0.5
152,21,0,2,2,38,88,125.4918749651406,126.31182844401337,"[26, 0, 228]",228,a,0.296781572396867,colour,0.5
152,21,0,2,2,39,89,126.81994638976175,127.35984807019122,"[74, 0, 180]",180,l,0.016566721838898957,colour,0.5
152,21,0,2,2,40,90,127.86683370976243,128.63182997214608,"[80, 0, 174]",174,l,0.24149982712697238,colour,0.5
152,21,0,2,2,41,91,129.14803396211937,129.94383997900877,"[49, 0, 205]",205,a,0.272747537936084,colour,0.5
152,21,0,2,2,42,92,130.46063237427734,131.26385804859456,"[89, 0, 165]",165,l,0.279947035596706,colour,0.5
152,21,0,2,2,43,93,131.77312208514195,132.43194859847426,"[83, 0, 171]",171,l,0.13545059482567012,colour,0.5
152,21,0,2,2,44,94,132.94499434053432,133.73582057340536,"[13, 0, 241]",241,a,0.2674621297046542,colour,0.5
152,21,0,2,2,45,95,134.2574383651372,134.7839882854605,"[78, 0, 176]",176,l,0.003255133982747793,colour,0.5
152,21,0,2,2,46,96,135.3042969343951,136.18385658354964,"[59, 0, 195]",195,a,0.3561415891163051,colour,0.5
152,21,0,2,2,47,97,136.69502053118777,137.58381782914512,"[38, 0, 216]",216,a,0.365558831486851,colour,0.5
152,21,0,2,2,48,98,138.101223442005,138.92785811796784,"[54, 0, 200]",200,a,0.3033198034390807,colour,0.5
152,21,0,2,2,49,99,139.44492108514532,140.27983518352266,"[47, 0, 207]",207,a,0.3116011950187385,colour,0.5
152,21,0,2,2,50,100,140.7886214852333,141.6878115811851,"[70, 0, 184]",184,l,0.3755369100254029,colour,0.5
152,21,0,2,3,1,101,146.45973086170852,147.57581921864767,"[72, 0, 182]",182,l,0.5919727963628247,colour,0.5
152,21,0,2,3,2,102,148.0855735928053,148.91981382132508,"[22, 0, 232]",232,a,0.31087651918642223,colour,0.5
152,21,0,2,3,3,103,149.4292105837958,150.2879015355138,"[87, 0, 167]",167,l,0.3352681655669585,colour,0.5
152,21,0,2,3,4,104,150.80430559907109,151.43981999682728,"[70, 0, 184]",184,l,0.11214753764215857,colour,0.5
152,21,0,2,3,5,105,151.96054139593616,152.71982689702418,"[59, 0, 195]",195,a,0.23594621010124683,colour,0.5
152,21,0,2,3,6,106,153.22612133761868,153.87979792570695,"[73, 0, 181]",181,l,0.1304243371123448,colour,0.5
152,21,0,2,3,7,107,154.39795617759228,155.43181390326936,"[47, 0, 207]",207,a,0.5104148533428088,colour,0.5
152,21,0,2,3,8,108,155.94485255610198,156.52786654629745,"[69, 0, 185]",185,l,0.05967548699118197,colour,0.5
152,21,0,2,3,9,109,157.0386291652685,157.83976509480271,"[21, 0, 233]",233,a,0.27779270021710545,colour,0.5
152,21,0,2,3,10,110,158.35116928827483,159.15977292438038,"[54, 0, 200]",200,a,0.28527340362779796,colour,0.5
152,21,0,2,3,11,111,159.67923874373082,160.21601210848894,"[19, 0, 235]",235,a,0.013456129236146808,colour,0.5
152,21,0,2,3,12,112,160.72611897450406,161.57578377251048,"[57, 0, 197]",197,a,0.3264129408635199,colour,0.5
152,21,0,2,3,13,113,162.08550939604174,162.87978256575298,"[48, 0, 206]",206,l,0.271008315612562,colour,0.5
152,21,0,2,3,14,114,163.39797547610942,163.98378104390576,"[61, 0, 193]",193,a,0.062443433911539614,colour,0.5
152,21,0,2,3,15,115,164.49177886673715,165.19181462796405,"[86, 0, 168]",168,l,0.17694853153079748,colour,0.5
152,21,0,2,3,16,116,165.7105439560255,166.59975085326005,"[4, 0, 250]",250,a,0.3659274709643796,colour,0.5
152,21,0,2,3,17,117,167.116783100646,167.97575407649856,"[81, 0, 173]",173,l,0.33563522959593683,colour,0.5
152,21,0,2,3,18,118,168.49177453445736,169.36779784376267,"[91, 0, 163]",163,l,0.3528624305035919,colour,0.5
152,21,0,2,3,19,119,169.8823819467798,170.7197615186451,"[2, 0, 252]",252,a,0.314420735812746,colour,0.5
152,21,0,2,3,20,120,171.22625130659435,171.85580485116225,"[39, 0, 215]",215,a,0.10652696702163666,colour,0.5
152,21,0,2,3,21,121,172.36677266366314,173.271800733055,"[56, 0, 198]",198,l,0.3817844829754904,colour,0.5
152,21,0,2,3,22,122,173.78854074690025,174.4479529086966,"[53, 0, 201]",201,l,0.13603703095577657,colour,0.5
152,21,0,2,3,23,123,174.96044726693071,175.73574377351906,"[11, 0, 243]",243,a,0.2519674557261169,colour,0.5
152,21,0,2,3,24,124,176.2573123346083,177.12772176857106,"[40, 0, 214]",214,a,0.34715521370526403,colour,0.5
152,21,0,2,3,25,125,177.6479398329975,178.3757740050787,"[64, 0, 190]",190,l,0.20446809963323176,colour,0.5
152,21,0,2,3,26,126,178.8823677683249,179.7117955973372,"[37, 0, 217]",217,a,0.30649656208697706,colour,0.5
152,21,0,2,3,27,127,180.22606186685152,181.0157345260959,"[95, 0, 159]",159,l,0.26641962048597634,colour,0.5
152,21,0,2,3,28,128,181.52296119916718,182.33578213409055,"[33, 0, 221]",221,a,0.2895363885909319,colour,0.5
152,21,0,2,3,29,129,182.85107279615477,183.69577277638018,"[20, 0, 234]",234,l,0.32135517557617277,colour,0.5
152,21,0,2,3,30,130,184.2104372237809,184.743783344049,"[10, 0, 244]",244,a,0.010359714971855283,colour,0.5
152,21,0,2,3,31,131,185.25727925158571,185.8318350133486,"[97, 0, 157]",157,l,0.05120701855048537,colour,0.5
152,21,0,2,3,32,132,186.35103971301578,187.25574404140934,"[28, 0, 226]",226,a,0.38139103120192885,colour,0.5
152,21,0,2,3,33,133,187.77297951292712,188.92773366277106,"[31, 0, 223]",223,a,0.6315723970765248,colour,0.5
152,21,0,2,3,34,134,189.44477181776892,190.35975748568308,"[6, 0, 248]",248,a,0.39193388435523957,colour,0.5
152,21,0,2,3,35,135,190.8667419437552,191.42378929897677,"[94, 0, 160]",160,l,0.03378525807056576,colour,0.5
152,21,0,2,3,36,136,191.94475094391964,193.03992609889247,"[88, 0, 166]",166,l,0.5719024239806458,colour,0.5
152,21,0,2,3,37,137,193.55415613460355,194.28774951107334,"[13, 0, 241]",241,a,0.2102879562880844,colour,0.5
152,21,0,2,3,38,138,194.80410316237248,195.5917699658312,"[75, 0, 179]",179,l,0.26420069427695125,colour,0.5
152,21,0,2,3,39,139,196.10103715304285,196.67174189258367,"[74, 0, 180]",180,a,0.04734811943490058,colour,0.5
152,21,0,2,3,40,140,197.17914658389054,198.103746810928,"[44, 0, 210]",210,a,0.40132158843334764,colour,0.5
152,21,0,2,3,41,141,198.6166866084095,199.5757617171621,"[77, 0, 177]",177,l,0.4359161991160363,colour,0.5
152,21,0,2,3,42,142,200.0853388608666,200.97574029199313,"[45, 0, 209]",209,a,0.3677222254918888,colour,0.5
152,21,0,2,3,43,143,201.49163156852592,202.27170424093492,"[90, 0, 164]",164,l,0.25684720289427787,colour,0.5
152,21,0,2,3,44,144,202.7884812762495,203.63175159692764,"[32, 0, 222]",222,a,0.3202980939531699,colour,0.5
152,21,0,2,3,45,145,204.1478984792484,204.99187850975432,"[55, 0, 199]",199,a,0.32112280663568527,colour,0.5
152,21,0,2,3,46,146,205.50718492548913,206.2717286592815,"[38, 0, 216]",216,a,0.24127730424515903,colour,0.5
152,21,0,2,3,47,147,206.7884501623921,207.5197600220563,"[34, 0, 220]",220,a,0.20835614355746657,colour,0.5
152,21,0,2,3,48,148,208.0384669008199,208.77572146616876,"[62, 0, 192]",192,a,0.21416457870509475,colour,0.5
152,21,0,2,3,49,149,209.28843795321882,210.15168412320781,"[46, 0, 208]",208,a,0.33995414059609175,colour,0.5
152,21,0,2,3,50,150,210.6633647964336,211.3676978070289,"[15, 0, 239]",239,a,0.18080546148121357,colour,0.5
152,21,0,2,4,1,151,221.60010492056608,222.27170936088078,"[15, 0, 239]",239,a,0.14742940908763558,colour,0.5
152,21,0,2,4,2,152,222.78845291933976,224.83169519819785,"[55, 0, 199]",199,l,1.5200337447458878,colour,0.5
152,21,0,2,4,3,153,225.35102356539574,225.87969985813834,"[74, 0, 180]",180,a,0.005450429394841194,colour,0.5
152,21,0,2,4,4,154,226.3977883993648,227.19166654197033,"[37, 0, 217]",217,l,0.27054869779385626,colour,0.5
152,21,0,2,4,5,155,227.71026275015902,228.45568882417865,"[87, 0, 167]",167,a,0.2221864260500297,colour,0.5
152,21,0,2,4,6,156,228.9759537562495,230.0556921325624,"[65, 0, 189]",189,l,0.5566877742530778,colour,0.5
152,21,0,2,4,7,157,230.56962993484922,231.0957245696336,"[1, 0, 253]",253,a,0.002756525413133204,colour,0.5
152,21,0,2,4,8,158,231.61641564266756,232.73570320743602,"[56, 0, 198]",198,a,0.5959195231553167,colour,0.5
152,21,0,2,4,9,159,233.25711816863623,234.18367226375267,"[95, 0, 159]",159,l,0.40356217604130507,colour,0.5
152,21,0,2,4,10,160,234.69463968253694,235.23969286342617,"[27, 0, 227]",227,a,0.02177729911636561,colour,0.5
152,21,0,2,4,11,161,235.75710162718315,236.94367298844736,"[9, 0, 245]",245,a,0.6633159595075995,colour,0.5
152,21,0,2,4,12,162,237.46026767324656,238.2637016918743,"[20, 0, 234]",234,a,0.2802235152339563,colour,0.5
152,21,0,2,4,13,163,238.77268058410846,239.59967326570768,"[6, 0, 248]",248,a,0.3035970707423985,colour,0.5
152,21,0,2,4,14,164,240.11639004270546,241.06363954313565,"[35, 0, 219]",219,a,0.4238660988630727,colour,0.5
152,21,0,2,4,15,165,241.58520889177453,242.2876801942475,"[62, 0, 192]",192,l,0.1792048729257658,colour,0.5
152,21,0,2,4,16,166,242.8039688610006,243.60768526699394,"[38, 0, 216]",216,a,0.28049408725928515,colour,0.5
152,21,0,2,4,17,167,244.11655348865315,244.9277108196402,"[39, 0, 215]",215,a,0.28804450132884085,colour,0.5
152,21,0,2,4,18,168,245.44455638411455,246.23966726346407,"[85, 0, 169]",169,l,0.27180782216601074,colour,0.5
152,21,0,2,4,19,169,246.7579590290552,247.3596420888789,"[51, 0, 203]",203,a,0.07921653077937663,colour,0.5
152,21,0,2,4,20,170,247.86641347652767,248.48765097092837,"[71, 0, 183]",183,l,0.09792734810616821,colour,0.5
152,21,0,2,4,21,171,249.0069876088528,249.78366690746043,"[14, 0, 240]",240,a,0.25358931196387857,colour,0.5
152,21,0,2,4,22,172,250.30396059027407,251.2156458320096,"[21, 0, 233]",233,a,0.3883849414996803,colour,0.5
152,21,0,2,4,23,173,251.72583146719262,252.52767159265932,"[30, 0, 224]",224,a,0.2787997634150088,colour,0.5
152,21,0,2,4,24,174,253.03829833492637,253.67968103231397,"[94, 0, 160]",160,l,0.11805600952357054,colour,0.5
152,21,0,2,4,25,175,254.19452743651345,254.73570123827085,"[68, 0, 186]",186,a,0.01790067693218589,colour,0.5
152,21,0,2,4,26,176,255.25705357803963,255.86363253265154,"[59, 0, 195]",195,a,0.08322469762060791,colour,0.5
152,21,0,2,4,27,177,256.38187073520385,257.0956619482022,"[86, 0, 168]",168,l,0.19024475931655616,colour,0.5
152,21,0,2,4,28,178,257.61633647966664,258.43165715271607,"[67, 0, 187]",187,a,0.2920585758984089,colour,0.5
152,21,0,2,4,29,179,258.9445504765026,259.83963315654546,"[53, 0, 201]",201,a,0.37186429975554347,colour,0.5
152,21,0,2,4,30,180,260.3507695349399,261.1836793529801,"[83, 0, 171]",171,l,0.30965047772042453,colour,0.5
152,21,0,2,4,31,181,261.69448175036814,262.50365803809837,"[50, 0, 204]",204,a,0.2859137966297567,colour,0.5
152,21,0,2,4,32,182,263.0226551811211,263.8636857017409,"[79, 0, 175]",175,l,0.3176817774074152,colour,0.5
152,21,0,2,4,33,183,264.38193650741596,265.27964023000095,"[91, 0, 163]",163,l,0.3744372931541875,colour,0.5
152,21,0,2,4,34,184,265.7882130673388,266.5996709027095,"[80, 0, 174]",174,l,0.2881457197945565,colour,0.5
152,21,0,2,4,35,185,267.1162982766982,267.97570287657436,"[84, 0, 170]",170,l,0.3361421088920906,colour,0.5
152,21,0,2,4,36,186,268.4913420919329,269.4556746457238,"[70, 0, 184]",184,a,0.44112126261461526,colour,0.5
152,21,0,2,4,37,187,269.97569618117996,270.83164399827365,"[31, 0, 223]",223,a,0.3327258920762688,colour,0.5
152,21,0,2,4,38,188,271.35069194738753,272.51170509157237,"[48, 0, 206]",206,a,0.6376777917612344,colour,0.5
152,21,0,2,4,39,189,273.0225783812348,273.87162878003437,"[49, 0, 205]",205,a,0.325746160116978,colour,0.5
152,21,0,2,4,40,190,274.3818758551497,275.2076633691322,"[46, 0, 208]",208,a,0.3024139584740624,colour,0.5
152,21,0,2,4,41,191,275.725702285883,276.58365123241674,"[12, 0, 242]",242,a,0.3348396614892408,colour,0.5
152,21,0,2,4,42,192,277.1007559472928,277.7356004137546,"[96, 0, 158]",158,l,0.11160875693894923,colour,0.5
152,21,0,2,4,43,193,278.2569110059412,279.015679781558,"[24, 0, 230]",230,a,0.23546493088360876,colour,0.5
152,21,0,2,4,44,194,279.5226043750299,280.3676666931715,"[0, 0, 254]",254,a,0.32182463945355266,colour,0.5
152,21,0,2,4,45,195,280.8818876706064,281.7116376652848,"[28, 0, 226]",226,a,0.3063433562638238,colour,0.5
152,21,0,2,4,46,196,282.22567392897326,283.1036010880489,"[5, 0, 249]",249,a,0.35485528933349997,colour,0.5
152,21,0,2,4,47,197,283.6162348674843,284.43962740630377,"[40, 0, 214]",214,a,0.3001308355014771,colour,0.5
152,21,0,2,4,48,198,284.95999828283675,285.71959058963694,"[72, 0, 182]",182,l,0.23633217881433666,colour,0.5
152,21,0,2,4,49,199,286.22557940601837,287.0156329139136,"[10, 0, 244]",244,a,0.2669127151602879,colour,0.5
152,21,0,2,4,50,200,287.52251694130246,288.4156725347275,"[13, 0, 241]",241,l,0.3698466286296025,colour,0.5
152,21,0,2,5,1,201,301.3966966593871,302.4557719256263,"[50, 0, 204]",204,l,0.5349569487152621,colour,0.5
152,21,0,2,5,2,202,302.97558826755267,303.7356374352239,"[28, 0, 226]",226,a,0.23694185179192573,colour,0.5
152,21,0,2,5,3,203,304.2567885199096,305.0556200587889,"[77, 0, 177]",177,l,0.2755706232273951,colour,0.5
152,21,0,2,5,4,204,305.56936015060637,306.3996052092407,"[16, 0, 238]",238,a,0.30749377922620624,colour,0.5
152,21,0,2,5,5,205,306.91302943683695,307.7196193403797,"[48, 0, 206]",206,a,0.2831060712924227,colour,0.5
152,21,0,2,5,6,206,308.24119577836245,309.08757117774803,"[2, 0, 252]",252,a,0.32358158472925425,colour,0.5
152,21,0,2,5,7,207,309.600575566059,310.1915873789694,"[68, 0, 186]",186,l,0.06772332813125104,colour,0.5
152,21,0,2,5,8,208,310.7099779997952,311.45560769201256,"[63, 0, 191]",191,l,0.22241997648961842,colour,0.5
152,21,0,2,5,9,209,311.97557684604544,312.8075512807118,"[36, 0, 218]",218,a,0.3089143803808838,colour,0.5
152,21,0,2,5,10,210,313.31927409535274,314.1835690762382,"[51, 0, 203]",203,a,0.3409419053932652,colour,0.5
152,21,0,2,5,11,211,314.6944045566488,315.55958726559766,"[19, 0, 235]",235,a,0.34205176238901913,colour,0.5
152,21,0,2,5,12,212,316.0693573936587,316.9116013526218,"[62, 0, 192]",192,l,0.3189759540837258,colour,0.5
152,21,0,2,5,13,213,317.42867180297617,318.2316229669377,"[66, 0, 188]",188,l,0.27969970065169036,colour,0.5
152,21,0,2,5,14,214,318.74123831361067,319.8235863109585,"[54, 0, 200]",200,a,0.5592190199531615,colour,0.5
152,21,0,2,5,15,215,320.33488416613545,321.1115827631438,"[82, 0, 172]",172,l,0.2534207460703328,colour,0.5
152,21,0,2,5,16,216,321.6317236338509,322.2475489019416,"[24, 0, 230]",230,a,0.09241508494596928,colour,0.5
152,21,0,2,5,17,217,322.7567251108121,323.5275609220844,"[83, 0, 171]",171,l,0.2474776158342138,colour,0.5
152,21,0,2,5,18,218,324.0379281201167,324.8635766066145,"[45, 0, 209]",209,a,0.30220403883140534,colour,0.5
152,21,0,2,5,19,219,325.3816864154069,326.10355303878896,"[7, 0, 247]",247,a,0.1988857319811359,colour,0.5
152,21,0,2,5,20,220,326.6160812677117,327.39959260611795,"[21, 0, 233]",233,a,0.2602752350503579,colour,0.5
152,21,0,2,5,21,221,327.91300501837395,328.77558322635014,"[41, 0, 213]",213,a,0.33929996308870614,colour,0.5
152,21,0,2,5,22,222,329.28802795987576,329.91155842354055,"[43, 0, 211]",211,a,0.10029357252642512,colour,0.5
152,21,0,2,5,23,223,330.4286009108182,331.1755444719456,"[60, 0, 194]",194,l,0.22365113790147007,colour,0.5
152,21,0,2,5,24,224,331.6941942431731,332.51957373309415,"[46, 0, 208]",208,a,0.30203980521764606,colour,0.5
152,21,0,2,5,25,225,333.03792969544884,333.67156584351324,"[84, 0, 170]",170,l,0.11025983572471887,colour,0.5
152,21,0,2,5,26,226,334.17854793858714,334.99159651622176,"[8, 0, 246]",246,a,0.28964430221822113,colour,0.5
152,21,0,2,5,27,227,335.5068261321867,336.29555868182797,"[90, 0, 164]",164,l,0.2654570617014542,colour,0.5
152,21,0,2,5,28,228,336.80358210462146,337.63152356026694,"[59, 0, 195]",195,a,0.30470062617678195,colour,0.5
152,21,0,2,5,29,229,338.14733921852894,338.9595638711471,"[74, 0, 180]",180,a,0.2888904818100855,colour,0.5
152,21,0,2,5,30,230,339.47536456328817,340.71157149912324,"[33, 0, 221]",221,a,0.7129802848212421,colour,0.5
152,21,0,2,5,31,231,341.2254053262295,342.0155620216392,"[96, 0, 158]",158,l,0.2668989305384457,colour,0.5
152,21,0,2,5,32,232,342.5223349846201,343.4795109698316,"[73, 0, 181]",181,a,0.4339788726065308,colour,0.5
152,21,0,2,5,33,233,343.99107585230377,344.80752410541754,"[31, 0, 223]",223,a,0.29369776137173176,colour,0.5
152,21,0,2,5,34,234,345.3191768154502,346.28751596063375,"[12, 0, 242]",242,a,0.4451093433890492,colour,0.5
152,21,0,2,5,35,235,346.803559261607,347.6155204315437,"[37, 0, 217]",217,a,0.2886549620889127,colour,0.5
152,21,0,2,5,36,236,348.13158500019927,348.6795211310964,"[92, 0, 162]",162,l,0.0245562739437446,colour,0.5
152,21,0,2,5,37,237,349.19422456924804,349.9915055378806,"[52, 0, 202]",202,a,0.274044077610597,colour,0.5
152,21,0,2,5,38,238,350.50666347390506,351.3995299846865,"[67, 0, 187]",187,l,0.36956345359794796,colour,0.5
152,21,0,2,5,39,239,351.9129199477611,352.8075193791883,"[89, 0, 165]",165,l,0.3713763249106705,colour,0.5
152,21,0,2,5,40,240,353.3191527908202,354.1355376347201,"[4, 0, 250]",250,a,0.2930490975268185,colour,0.5
152,21,0,2,5,41,241,354.6473084985046,355.5435085184872,"[15, 0, 239]",239,a,0.37286072911228985,colour,0.5
152,21,0,2,5,42,242,356.05348068941385,356.91152415890247,"[55, 0, 199]",199,a,0.3347274154657498,colour,0.5
152,21,0,2,5,43,243,357.4284654278308,358.4235069116112,"[5, 0, 249]",249,a,0.47168722667265683,colour,0.5
152,21,0,2,5,44,244,358.944162932341,359.71150257613044,"[99, 0, 155]",155,l,0.24407597118988633,colour,0.5
152,21,0,2,5,45,245,360.22542777541094,361.039509410155,"[58, 0, 196]",196,a,0.29103812179528177,colour,0.5
152,21,0,2,5,46,246,361.553547249292,362.3594987291144,"[25, 0, 229]",229,a,0.2827019856777042,colour,0.5
152,21,0,2,5,47,247,362.8660156924743,363.75953283614945,"[30, 0, 224]",224,a,0.3703747756080702,colour,0.5
152,21,0,2,5,48,248,364.272201274056,364.9195558524225,"[13, 0, 241]",241,a,0.12402946595102549,colour,0.5
152,21,0,2,5,49,249,365.4284307694761,368.67148707446177,"[20, 0, 234]",234,a,2.7197048048255965,colour,0.5
152,21,0,2,5,50,250,369.1784309663344,370.1275008212542,"[65, 0, 189]",189,l,0.425749862450175,colour,0.5
152,21,0,2,6,1,251,381.11511713371146,381.7354905308457,"[36, 0, 218]",218,a,0.09633384877815843,colour,0.5
152,21,0,2,6,2,252,382.2565380340675,382.81546994054224,"[63, 0, 191]",191,l,0.035698559950105846,colour,0.5
152,21,0,2,6,3,253,383.33462737873197,384.4555135628907,"[81, 0, 173]",173,l,0.5975882470374927,colour,0.5
152,21,0,2,6,4,254,384.9753058801871,385.78349322162103,"[54, 0, 200]",200,a,0.2851359515916556,colour,0.5
152,21,0,2,6,5,255,386.30336824653205,387.12750554736704,"[28, 0, 226]",226,a,0.30082991148810834,colour,0.5
152,21,0,2,6,6,256,387.64722027711105,388.4876190694049,"[12, 0, 242]",242,a,0.3170689536491409,colour,0.5
152,21,0,2,6,7,257,389.00648978806566,389.7755213925848,"[39, 0, 215]",215,a,0.24570727976970375,colour,0.5
152,21,0,2,6,8,258,390.2877967725508,391.143463383778,"[64, 0, 190]",190,l,0.3324092401890084,colour,0.5
152,21,0,2,6,9,259,391.66278111725114,392.3914951403858,"[79, 0, 175]",175,l,0.2054779197787866,colour,0.5
152,21,0,2,6,10,260,392.91272538807243,393.7754638910992,"[70, 0, 184]",184,l,0.33939015364740044,colour,0.5
152,21,0,2,6,11,261,394.2877644771943,394.9114721713122,"[88, 0, 166]",166,l,0.1004688338143751,colour,0.5
152,21,0,2,6,12,262,395.4283074957784,396.31947338115424,"[89, 0, 165]",165,l,0.36809834791347384,colour,0.5
152,21,0,2,6,13,263,396.83459587115794,397.8315108784009,"[97, 0, 157]",157,l,0.4735642948653549,colour,0.5
152,21,0,2,6,14,264,398.35024847718887,399.207516464754,"[3, 0, 251]",251,a,0.33399486262351274,colour,0.5
152,21,0,2,6,15,265,399.72517216962297,400.5434502293356,"[67, 0, 187]",187,l,0.295105759287253,colour,0.5
152,21,0,2,6,16,266,401.0533936495194,401.7354491769802,"[14, 0, 240]",240,a,0.15881272871047258,colour,0.5
152,21,0,2,6,17,267,402.25644626806024,402.80746975471266,"[9, 0, 245]",245,a,0.02760227583348751,colour,0.5
152,21,0,2,6,18,268,403.3189397203969,404.20743336330634,"[23, 0, 231]",231,a,0.3651799520011991,colour,0.5
152,21,0,2,6,19,269,404.72513751126826,405.4714694301365,"[61, 0, 193]",193,l,0.22311668936163187,colour,0.5
152,21,0,2,6,20,270,405.9908100065077,406.81545576208737,"[95, 0, 159]",159,l,0.3020854912465438,colour,0.5
152,21,0,2,6,21,271,407.33454900351353,408.15146199439187,"[24, 0, 230]",230,a,0.2935276200296357,colour,0.5
152,21,0,2,6,22,272,408.6626550866058,409.50345875218045,"[85, 0, 169]",169,a,0.31744389468804,colour,0.5
152,21,0,2,6,23,273,410.0220715019386,410.91141388216056,"[5, 0, 249]",249,a,0.3659696124959737,colour,0.5
152,21,0,2,6,24,274,411.42837996338494,412.15143639442977,"[32, 0, 222]",222,a,0.1998380507575348,colour,0.5
152,21,0,2,6,25,275,412.6626393328188,413.51971512369346,"[75, 0, 179]",179,l,0.33372547233011574,colour,0.5
152,21,0,2,6,26,276,414.0376287973486,414.69545100443065,"[76, 0, 178]",178,l,0.13450260844547302,colour,0.5
152,21,0,2,6,27,277,415.2103749961825,416.03148638131097,"[15, 0, 239]",239,a,0.29869526834227145,colour,0.5
152,21,0,2,6,28,278,416.53767172654625,417.447447604849,"[57, 0, 197]",197,a,0.3864322550361976,colour,0.5
152,21,0,2,6,29,279,417.95949888660107,418.7594075932866,"[91, 0, 163]",163,l,0.27675097854807973,colour,0.5
152,21,0,2,6,30,280,419.27201065281406,420.3754376609577,"[13, 0, 241]",241,a,0.5801452187588438,colour,0.5
152,21,0,2,6,31,281,420.89698456053156,421.887453496689,"[80, 0, 174]",174,l,0.4671540637500584,colour,0.5
152,21,0,2,6,32,282,422.39697904663626,423.2874041084433,"[17, 0, 237]",237,a,0.36699361097998917,colour,0.5
152,21,0,2,6,33,283,423.8033564310754,424.5833995650755,"[33, 0, 221]",221,a,0.2568936765892431,colour,0.5
152,21,0,2,6,34,284,425.1000454497989,425.9755221015075,"[11, 0, 243]",243,a,0.35209403780754656,colour,0.5
152,21,0,2,6,35,285,426.4907190281665,427.2074215479661,"[66, 0, 188]",188,l,0.19343175797257572,colour,0.5
152,21,0,2,6,36,286,427.7250898559578,428.519427222549,"[84, 0, 170]",170,l,0.271142223267816,colour,0.5
152,21,0,2,6,37,287,429.03762840351555,429.9033987300936,"[86, 0, 168]",168,l,0.3424530909396708,colour,0.5
152,21,0,2,6,38,288,430.41262535122223,431.5034016445279,"[40, 0, 214]",214,a,0.5675303437747061,colour,0.5
152,21,0,2,6,39,289,432.0219620128628,432.79141030600294,"[65, 0, 189]",189,a,0.24615823291242123,colour,0.5
152,21,0,2,6,40,290,433.3031776251737,434.4713926302502,"[4, 0, 250]",250,a,0.6448481449624524,colour,0.5
152,21,0,2,6,41,291,434.99067294830456,435.95937049295753,"[60, 0, 194]",194,a,0.4461538218893111,colour,0.5
152,21,0,2,6,42,292,436.4750998989912,437.37539394409396,"[0, 0, 254]",254,a,0.3771170185646042,colour,0.5
152,21,0,2,6,43,293,437.8813418005593,438.7193818514934,"[16, 0, 238]",238,l,0.31475117232184857,colour,0.5
152,21,0,2,6,44,294,439.24069086823147,439.98339468135964,"[46, 0, 208]",208,a,0.2195035497425124,colour,0.5
152,21,0,2,6,45,295,440.49068279447965,441.3754230886698,"[29, 0, 225]",225,a,0.36149434477556497,colour,0.5
152,21,0,2,6,46,296,441.89694084366783,442.5594261827646,"[78, 0, 176]",176,l,0.1391409281641245,colour,0.5
152,21,0,2,6,47,297,443.06876032368746,443.91140127915423,"[74, 0, 180]",180,l,0.3193292337236926,colour,0.5
152,21,0,2,6,48,298,444.4281515328912,444.9674384202808,"[34, 0, 220]",220,a,0.01594877801835537,colour,0.5
152,21,0,2,6,49,299,445.47498292685486,446.2074172156863,"[49, 0, 205]",205,a,0.20923678239341825,colour,0.5
152,21,0,2,6,50,300,446.7250114806229,447.70342243963387,"[19, 0, 235]",235,a,0.45523196330759674,colour,0.5
152,21,0,2,7,1,301,458.5210951586487,459.9353691475699,"[6, 0, 248]",248,l,0.8901202252600342,colour,0.5
152,21,0,2,7,2,302,460.44368598540314,461.87938832631335,"[61, 0, 193]",193,l,0.9122988531598821,colour,0.5
152,21,0,2,7,3,303,462.3968293853104,463.19135816092603,"[70, 0, 184]",184,l,0.27117648778948933,colour,0.5
152,21,0,2,7,4,304,463.7093324868474,464.3593593077967,"[90, 0, 164]",164,l,0.12678165908437222,colour,0.5
152,21,0,2,7,5,305,464.86554544081446,465.6393662078772,"[71, 0, 183]",183,l,0.25043421471491456,colour,0.5
152,21,0,2,7,6,306,466.14747942751274,466.7433473569108,"[30, 0, 224]",224,a,0.0731879360973835,colour,0.5
152,21,0,2,7,7,307,467.25618239154574,468.03936644422356,"[8, 0, 246]",246,a,0.25985421414952725,colour,0.5
152,21,0,2,7,8,308,468.5530529731186,469.38337089307606,"[39, 0, 215]",215,a,0.307038493687287,colour,0.5
152,21,0,2,7,9,309,469.89678527461365,470.74335326463915,"[49, 0, 205]",205,a,0.32401127030607313,colour,0.5
152,21,0,2,7,10,310,471.25615600391757,472.0393770780647,"[54, 0, 200]",200,a,0.2602358504664153,colour,0.5
152,21,0,2,7,11,311,472.55301910231356,473.15940074028913,"[75, 0, 179]",179,l,0.08327826054301113,colour,0.5
152,21,0,2,7,12,312,473.6780702038668,474.58335624204483,"[51, 0, 203]",203,a,0.3820857747923583,colour,0.5
152,21,0,2,7,13,313,475.09987964085303,475.6393894448411,"[89, 0, 165]",165,l,0.01614609465468675,colour,0.5
152,21,0,2,7,14,314,476.1467480561696,476.7193456176901,"[16, 0, 238]",238,a,0.04916177841369063,colour,0.5
152,21,0,2,7,15,315,477.24052387767006,477.84739191504195,"[34, 0, 220]",220,a,0.08355316484812647,colour,0.5
152,21,0,2,7,16,316,478.365489514661,478.975385043188,"[98, 0, 156]",156,a,0.08652906224597245,colour,0.5
152,21,0,2,7,17,317,479.49058157613035,480.3993228218751,"[55, 0, 199]",199,a,0.38604707398917526,colour,0.5
152,21,0,2,7,18,318,480.9124036161229,481.82335906196386,"[74, 0, 180]",180,l,0.38768822862766683,colour,0.5
152,21,0,2,7,19,319,482.334251650027,482.9273803832475,"[60, 0, 194]",194,a,0.06985600222833455,colour,0.5
152,21,0,2,7,20,320,483.4436332100304,484.03139382752124,"[33, 0, 221]",221,l,0.06439808965660632,colour,0.5
152,21,0,2,7,21,321,484.537403911585,485.1673639047658,"[19, 0, 235]",235,a,0.10669041296932846,colour,0.5
152,21,0,2,7,22,322,485.6780146715464,486.4233470102772,"[62, 0, 192]",192,a,0.2220985983731225,colour,0.5
152,21,0,2,7,23,323,486.94359500706196,487.7353235402843,"[22, 0, 232]",232,a,0.2684081469196826,colour,0.5
152,21,0,2,7,24,324,488.2561205577804,489.12736927683,"[10, 0, 244]",244,a,0.34795078192837536,colour,0.5
152,21,0,2,7,25,325,489.64674490550533,490.4393359605456,"[1, 0, 253]",253,a,0.26930690254084766,colour,0.5
152,21,0,2,7,26,326,490.9592629731633,491.751325093559,"[50, 0, 204]",204,a,0.2689575614640489,colour,0.5
152,21,0,2,7,27,327,492.2717231455026,492.9033687978517,"[92, 0, 162]",162,l,0.10830321069806814,colour,0.5
152,21,0,2,7,28,328,493.4123567485949,494.2953318267828,"[99, 0, 155]",155,l,0.3596409073797986,colour,0.5
152,21,0,2,7,29,329,494.802918474772,495.6473821476102,"[76, 0, 178]",178,a,0.32112910808064044,colour,0.5
152,21,0,2,7,30,330,496.1623344962718,497.05535893910564,"[25, 0, 229]",229,a,0.37000692379660904,colour,0.5
152,21,0,2,7,31,331,497.56860987469554,498.4553422400495,"[52, 0, 202]",202,a,0.36349389888346195,colour,0.5
152,21,0,2,7,32,332,498.97482814546674,500.0633083189605,"[40, 0, 214]",214,a,0.5653842791216448,colour,0.5
152,21,0,2,7,33,333,500.5842057670234,501.41531492292415,"[14, 0, 240]",240,a,0.3078124002786353,colour,0.5
152,21,0,2,7,34,334,501.9278589056339,502.7833207171643,"[32, 0, 222]",222,a,0.3320618683937937,colour,0.5
152,21,0,2,7,35,335,503.3029251701664,504.1513241484063,"[46, 0, 208]",208,a,0.325366493081674,colour,0.5
152,21,0,2,7,36,336,504.6623199239839,505.4713079534704,"[95, 0, 159]",159,l,0.2856310155475512,colour,0.5
152,21,0,2,7,37,337,505.9903775640996,506.7912827000255,"[7, 0, 247]",247,a,0.2782775240484625,colour,0.5
152,21,0,2,7,38,338,507.30290193331894,508.15929952193983,"[65, 0, 189]",189,l,0.333079565432854,colour,0.5
152,21,0,2,7,39,339,508.6779130593641,509.447373955627,"[15, 0, 239]",239,a,0.24612475605681539,colour,0.5
152,21,0,2,7,40,340,509.95919247472193,510.75935915019363,"[27, 0, 227]",227,a,0.27707826416008174,colour,0.5
152,21,0,2,7,41,341,511.27159908413887,512.1833382827463,"[9, 0, 245]",245,a,0.3883601293200627,colour,0.5
152,21,0,2,7,42,342,512.6934916225728,513.5032771893311,"[2, 0, 252]",252,a,0.28651322959922254,colour,0.5
152,21,0,2,7,43,343,514.0216878963402,514.8634462436894,"[41, 0, 213]",213,a,0.3184891609707847,colour,0.5
152,21,0,2,7,44,344,515.3810082132695,516.1913518593647,"[36, 0, 218]",218,a,0.2869653644738719,colour,0.5
152,21,0,2,7,45,345,516.7091615578393,517.4552863140125,"[42, 0, 212]",212,a,0.22295127424877137,colour,0.5
152,21,0,2,7,46,346,517.9747990008909,518.8952839351259,"[59, 0, 195]",195,a,0.3973591076210141,colour,0.5
152,21,0,2,7,47,347,519.4122023610398,519.9673576819478,"[94, 0, 160]",160,l,0.031813273089937866,colour,0.5
152,21,0,2,7,48,348,520.4747706440976,521.3272896412527,"[88, 0, 166]",166,l,0.3293904137099162,colour,0.5
152,21,0,2,7,49,349,521.8340854472481,522.7112757210853,"[80, 0, 174]",174,l,0.35385846602730453,colour,0.5
152,21,0,2,7,50,350,523.2247578441165,524.1352418566821,"[81, 0, 173]",173,l,0.3873195891501382,colour,0.5
152,21,0,2,8,1,351,542.2395026360173,542.7992533475626,"[1, 0, 253]",253,a,0.0356272739591077,colour,0.5
152,21,0,2,8,2,352,543.3184056658065,544.1032966453349,"[87, 0, 167]",167,l,0.2615402671508491,colour,0.5
152,21,0,2,8,3,353,544.6152534042485,545.3672574876109,"[51, 0, 203]",203,a,0.22870102629531175,colour,0.5
152,21,0,2,8,4,354,545.880960557959,546.7352522541769,"[22, 0, 232]",232,a,0.3311276666354388,colour,0.5
152,21,0,2,8,5,355,547.2559200903634,548.0712573048659,"[64, 0, 190]",190,l,0.2920310066547245,colour,0.5
152,21,0,2,8,6,356,548.5839611889096,549.4395336711314,"[25, 0, 229]",229,a,0.3326136461691931,colour,0.5
152,21,0,2,8,7,357,549.9589927950874,550.6633439225843,"[62, 0, 192]",192,l,0.18082633533049375,colour,0.5
152,21,0,2,8,8,358,551.1777137735626,551.9596107387915,"[55, 0, 199]",199,a,0.2588885047007352,colour,0.5
152,21,0,2,8,9,359,552.4746032597031,553.1673603601521,"[47, 0, 207]",207,a,0.16956077551003546,colour,0.5
152,21,0,2,8,10,360,553.67764051829,554.6792797036469,"[33, 0, 221]",221,a,0.4786133955931291,colour,0.5
152,21,0,2,8,11,361,555.1933577150339,556.0473213378573,"[59, 0, 195]",195,a,0.33101620827801526,colour,0.5
152,21,0,2,8,12,362,556.5683471796801,557.4312262856402,"[89, 0, 165]",165,l,0.33965087949763983,colour,0.5
152,21,0,2,8,13,363,557.9433886319166,558.6553657919867,"[99, 0, 155]",155,l,0.18877059512306005,colour,0.5
152,21,0,2,8,14,364,559.162074164371,559.9912519013742,"[94, 0, 160]",160,l,0.30622559634502977,colour,0.5
152,21,0,2,8,15,365,560.5057521151612,561.2552249528235,"[43, 0, 211]",211,a,0.2260921929264441,colour,0.5
152,21,0,2,8,16,366,561.7713923151605,562.5832262730692,"[86, 0, 168]",168,l,0.28846197784878314,colour,0.5
152,21,0,2,8,17,367,563.0995326628909,563.9192474713782,"[81, 0, 173]",173,l,0.29648540052585304,colour,0.5
152,21,0,2,8,18,368,564.4276867951266,565.1832563627977,"[15, 0, 239]",239,a,0.23224445525556803,colour,0.5
152,21,0,2,8,19,369,565.6932549213525,566.727215440711,"[41, 0, 213]",213,a,0.5106909391470253,colour,0.5
152,21,0,2,8,20,370,567.2403060811339,568.0952377764042,"[95, 0, 159]",159,l,0.3317909025354311,colour,0.5
152,21,0,2,8,21,371,568.6151427336736,569.455229600193,"[75, 0, 179]",179,a,0.3167263079667464,colour,0.5
152,21,0,2,8,22,372,569.9745571797248,570.7832754249685,"[48, 0, 206]",206,a,0.2855553971603513,colour,0.5
152,21,0,2,8,23,373,571.3027227334678,572.0712265849579,"[97, 0, 157]",157,l,0.24521930504124612,colour,0.5
152,21,0,2,8,24,374,572.5838859643554,573.3352122395299,"[60, 0, 194]",194,a,0.2279334212653339,colour,0.5
152,21,0,2,8,25,375,573.8495332535822,574.7272567944601,"[5, 0, 249]",249,a,0.35450988670345396,colour,0.5
152,21,0,2,8,26,376,575.240211952012,576.0952338379575,"[56, 0, 198]",198,a,0.3317944472655654,colour,0.5
152,21,0,2,8,27,377,576.6150757798459,577.4552311756415,"[45, 0, 209]",209,a,0.3167428495362401,colour,0.5
152,21,0,2,8,28,378,577.9745158259757,578.7592094888678,"[66, 0, 188]",188,a,0.2614804026670754,colour,0.5
152,21,0,2,8,29,379,579.2714506043121,580.8152320578229,"[13, 0, 241]",241,a,1.0205469254869968,colour,0.5
152,21,0,2,8,30,380,581.3338834043825,582.8872368816519,"[14, 0, 240]",240,a,1.0300949247321114,colour,0.5
152,21,0,2,8,31,381,583.396366616711,584.2872241210425,"[30, 0, 224]",224,a,0.3675367240794003,colour,0.5
152,21,0,2,8,32,382,584.8026313612936,585.7031936153071,"[39, 0, 215]",215,a,0.37838953372556716,colour,0.5
152,21,0,2,8,33,383,586.2244872720912,587.119224943337,"[19, 0, 235]",235,a,0.37158073077443987,colour,0.5
152,21,0,2,8,34,384,587.6307268106611,588.3031768375076,"[7, 0, 247]",247,a,0.1490874991286546,colour,0.5
152,21,0,2,8,35,385,588.818229222903,589.4951970528346,"[16, 0, 238]",238,a,0.15365965280216187,colour,0.5
152,21,0,2,8,36,386,590.0057143060258,590.9912215751829,"[65, 0, 189]",189,a,0.46223296283278614,colour,0.5
152,21,0,2,8,37,387,591.5057607798371,592.1352288598428,"[80, 0, 174]",174,l,0.10619495518039912,colour,0.5
152,21,0,2,8,38,388,592.6463183707092,593.4793617023388,"[24, 0, 230]",230,a,0.30974815145600587,colour,0.5
152,21,0,2,8,39,389,593.99006366916,594.6872208127752,"[68, 0, 186]",186,a,0.17459491011686623,colour,0.5
152,21,0,2,8,40,390,595.208773619961,596.1111704068026,"[85, 0, 169]",169,l,0.3794194400543347,colour,0.5
152,21,0,2,8,41,391,596.6307130260393,597.4952261974104,"[29, 0, 225]",225,a,0.3413184218807146,colour,0.5
152,21,0,2,8,42,392,598.0056977644563,598.7432099047583,"[2, 0, 252]",252,a,0.21428076305892318,colour,0.5
152,21,0,2,8,43,393,599.255657395348,599.8951653876575,"[78, 0, 176]",176,l,0.11654521781019866,colour,0.5
152,21,0,2,8,44,394,600.4119061891688,600.9511812612182,"[9, 0, 245]",245,a,0.015912938048131764,colour,0.5
152,21,0,2,8,45,395,601.4587962661171,602.0711663265247,"[26, 0, 228]",228,a,0.08930449222680181,colour,0.5
152,21,0,2,8,46,396,602.5838351583807,603.1671697387937,"[67, 0, 187]",187,l,0.06009887100663036,colour,0.5
152,21,0,2,8,47,397,603.6775109430309,604.2157175119501,"[10, 0, 244]",244,a,0.014964557834900916,colour,0.5
152,21,0,2,8,48,398,604.724365180009,605.4951576682506,"[3, 0, 251]",251,a,0.24753157258965075,colour,0.5
152,21,0,2,8,49,399,606.0056359306909,606.5991612664657,"[91, 0, 163]",163,l,0.0702010109089315,colour,0.5
152,21,0,2,8,50,400,607.1149871646194,607.7031569876708,"[79, 0, 175]",175,l,0.06469111074693501,colour,0.5
152,21,0,2,9,1,401,612.223579064128,612.7751763837878,"[4, 0, 250]",250,a,0.027632995741441846,colour,0.5
152,21,0,2,9,2,402,613.2868590261787,614.2631766956765,"[84, 0, 170]",170,l,0.4530154000967741,colour,0.5
152,21,0,2,9,3,403,614.7712851891993,615.7431433448801,"[33, 0, 221]",221,a,0.4486460769549012,colour,0.5
152,21,0,2,9,4,404,616.2556258876575,617.0312358954689,"[54, 0, 200]",200,a,0.25231325218919665,colour,0.5
152,21,0,2,9,5,405,617.5527508935193,618.383178696502,"[42, 0, 212]",212,a,0.30732836411334574,colour,0.5
152,21,0,2,9,6,406,618.8963252629619,619.5031787279295,"[81, 0, 173]",173,l,0.08363035856746137,colour,0.5
152,21,0,2,9,7,407,620.0211995277787,620.7911436725408,"[43, 0, 211]",211,a,0.24665172153618187,colour,0.5
152,21,0,2,9,8,408,621.302493121475,621.9593106284738,"[32, 0, 222]",222,a,0.1338567016646266,colour,0.5
152,21,0,2,9,9,409,622.4743425338529,623.215106657357,"[67, 0, 187]",187,l,0.2174894232302904,colour,0.5
152,21,0,2,9,10,410,623.724355333834,624.5112234184053,"[68, 0, 186]",186,l,0.2636197719257325,colour,0.5
152,21,0,2,9,11,411,625.0212251277408,625.8151662856108,"[12, 0, 242]",242,a,0.270616045454517,colour,0.5
152,21,0,2,9,12,412,626.3335844755638,626.9111437040847,"[17, 0, 237]",237,a,0.05412817152682692,colour,0.5
152,21,0,2,9,13,413,627.427452457021,628.2711355278734,"[66, 0, 188]",188,l,0.3204481491120532,colour,0.5
152,21,0,2,9,14,414,628.7867767123971,629.5831943715457,"[0, 0, 254]",254,a,0.2731016051257029,colour,0.5
152,21,0,2,9,15,415,630.099303444731,631.0071230917238,"[10, 0, 244]",244,a,0.3845677898498252,colour,0.5
152,21,0,2,9,16,416,631.5211546292994,632.4471963313408,"[16, 0, 238]",238,a,0.40270516800228506,colour,0.5
152,21,0,2,9,17,417,632.9586032817606,633.5671388613991,"[82, 0, 172]",172,l,0.08538651617709547,colour,0.5
152,21,0,2,9,18,418,634.0836539893644,634.7511431368766,"[58, 0, 196]",196,a,0.14411677361931652,colour,0.5
152,21,0,2,9,19,419,635.27120011847,636.09511410899,"[46, 0, 208]",208,a,0.3006420471938327,colour,0.5
152,21,0,2,9,20,420,636.61486979865,637.3111400018679,"[15, 0, 239]",239,a,0.17284820473287255,colour,0.5
152,21,0,2,9,21,421,637.8179216295248,638.6471840433078,"[41, 0, 213]",213,a,0.30591130757238716,colour,0.5
152,21,0,2,9,22,422,639.1617208848475,639.6871215635911,"[45, 0, 209]",209,a,0.002287061419337988,colour,0.5
152,21,0,2,9,23,423,640.2086345924763,641.0711237912765,"[2, 0, 252]",252,a,0.33936415996868163,colour,0.5
152,21,0,2,9,24,424,641.5836287832353,642.4551264126785,"[75, 0, 179]",179,l,0.3481937847100198,colour,0.5
152,21,0,2,9,25,425,642.9742188663222,643.5832128822803,"[74, 0, 180]",180,l,0.0857275864109397,colour,0.5
152,21,0,2,9,26,426,644.0992175863357,644.935108421836,"[22, 0, 232]",232,a,0.31264961208216846,colour,0.5
152,21,0,2,9,27,427,645.4429447678849,646.3510972145014,"[88, 0, 166]",166,l,0.3847816480556503,colour,0.5
152,21,0,2,9,28,428,646.8647727157222,647.9191068684449,"[30, 0, 224]",224,a,0.5309558711014688,colour,0.5
152,21,0,2,9,29,429,648.4273606908973,649.5751398348948,"[40, 0, 214]",214,a,0.6248935632174835,colour,0.5
152,21,0,2,9,30,430,650.0836260262877,651.0391679460881,"[55, 0, 199]",199,l,0.4321778166340664,colour,0.5
152,21,0,2,9,31,431,651.5523976139957,652.4632191522978,"[70, 0, 184]",184,l,0.3874519213568419,colour,0.5
152,21,0,2,9,32,432,652.9743090569973,653.7992305044318,"[9, 0, 245]",245,a,0.3015793996164575,colour,0.5
152,21,0,2,9,33,433,654.3180212724255,655.1511240748223,"[99, 0, 155]",155,l,0.30969813314732164,colour,0.5
152,21,0,2,9,34,434,655.6617551493691,656.5191546813585,"[87, 0, 167]",167,l,0.3340622102841735,colour,0.5
152,21,0,2,9,35,435,657.0368064477807,657.8950854369905,"[97, 0, 157]",157,l,0.334914886043407,colour,0.5
152,21,0,2,9,36,436,658.4117986693745,659.4071485341992,"[65, 0, 189]",189,l,0.4720137247350067,colour,0.5
152,21,0,2,9,37,437,659.9273981063161,660.7751267591957,"[92, 0, 162]",162,l,0.32446419273037463,colour,0.5
152,21,0,2,9,38,438,661.2867869524052,662.0951030811993,"[83, 0, 171]",171,l,0.28525568055920303,colour,0.5
152,21,0,2,9,39,439,662.6148178110598,663.3351137781283,"[25, 0, 229]",229,a,0.19684718712233007,colour,0.5
152,21,0,2,9,40,440,663.8492741031805,664.7511065092403,"[73, 0, 181]",181,l,0.3785742473555729,colour,0.5
152,21,0,2,9,41,441,665.2711579770548,666.0471606488572,"[95, 0, 159]",159,l,0.2527094609104097,colour,0.5
152,21,0,2,9,42,442,666.5680214694003,667.4070874880999,"[34, 0, 220]",220,a,0.31579289387445897,colour,0.5
152,21,0,2,9,43,443,667.9274075585417,668.7430606372654,"[53, 0, 201]",201,l,0.29240161541383713,colour,0.5
152,21,0,2,9,44,444,669.2554549586494,670.1350476908265,"[98, 0, 156]",156,l,0.35628613037988544,colour,0.5
152,21,0,2,9,45,445,670.6460926971631,671.5510849265847,"[69, 0, 185]",185,a,0.3816533323843032,colour,0.5
152,21,0,2,9,46,446,672.0680084724445,672.9671276761219,"[26, 0, 228]",228,a,0.3758472603512928,colour,0.5
152,21,0,2,9,47,447,673.474296453991,674.2551312175347,"[89, 0, 165]",165,l,0.2576734909089282,colour,0.5
152,21,0,2,9,48,448,674.7710315525765,675.6630894982954,"[21, 0, 233]",233,a,0.3687170794000849,colour,0.5
152,21,0,2,9,49,449,676.1773242602358,677.087058784673,"[36, 0, 218]",218,a,0.38641610741615295,colour,0.5
152,21,0,2,9,50,450,677.5991746571381,678.4550763942534,"[19, 0, 235]",235,a,0.33256756619084626,colour,0.5
152,21,0,2,10,1,451,683.3171449659858,684.1030623072293,"[32, 0, 222]",222,a,0.26178484526462853,colour,0.5
152,21,0,2,10,2,452,684.6147390418919,685.4630931216525,"[86, 0, 168]",168,l,0.3250159703893587,colour,0.5
152,21,0,2,10,3,453,685.9741987802554,686.7590673106024,"[72, 0, 182]",182,l,0.2616024947492406,colour,0.5
152,21,0,2,10,4,454,687.2710508509772,688.1110782469623,"[57, 0, 197]",197,a,0.31667353271041065,colour,0.5
152,21,0,2,10,5,455,688.6304637216963,689.4550771819195,"[17, 0, 237]",237,a,0.3013111907057464,colour,0.5
152,21,0,2,10,6,456,689.9741712110117,690.7830938621191,"[45, 0, 209]",209,a,0.28564992011524737,colour,0.5
152,21,0,2,10,7,457,691.3023249494145,691.9110669041984,"[40, 0, 214]",214,a,0.08543929143343121,colour,0.5
152,21,0,2,10,8,458,692.4273000387475,693.1750852479599,"[24, 0, 230]",230,a,0.22444946295581758,colour,0.5
152,21,0,2,10,9,459,693.6928854942089,694.3750548430253,"[69, 0, 185]",185,a,0.15899626084137708,colour,0.5
152,21,0,2,10,10,460,694.8960420879303,695.6710857457947,"[47, 0, 207]",207,a,0.2517689575906843,colour,0.5
152,21,0,2,10,11,461,696.1773923955625,696.9110428795684,"[5, 0, 249]",249,a,0.21039705153089017,colour,0.5
152,21,0,2,10,12,462,697.4272106357384,698.3270493954187,"[62, 0, 192]",192,l,0.3765644532395527,colour,0.5
152,21,0,2,10,13,463,698.8334627773147,699.7190049411729,"[18, 0, 236]",236,a,0.3625923863146454,colour,0.5
152,21,0,2,10,14,464,700.239986672299,701.0950302197598,"[79, 0, 175]",175,l,0.3321382744470611,colour,0.5
152,21,0,2,10,15,465,701.6147587341256,702.3751166767906,"[60, 0, 194]",194,a,0.23701156245078892,colour,0.5
152,21,0,2,10,16,466,702.8960042787949,703.7510198632954,"[61, 0, 193]",193,a,0.33169834897853434,colour,0.5
152,21,0,2,10,17,467,704.2709370296216,705.1030690026237,"[64, 0, 190]",190,a,0.308977001812309,colour,0.5
152,21,0,2,10,18,468,705.6146728758467,706.3270155246137,"[83, 0, 171]",171,l,0.18897185020614415,colour,0.5
152,21,0,2,10,19,469,706.8335179156857,707.7270323025296,"[34, 0, 220]",220,a,0.37020148360170424,colour,0.5
152,21,0,2,10,20,470,708.2396495405119,709.2391721996246,"[16, 0, 238]",238,a,0.47614043904468417,colour,0.5
152,21,0,2,10,21,471,709.7553761895979,710.6070763816824,"[99, 0, 155]",155,l,0.32848102413117886,colour,0.5
152,21,0,2,10,22,472,711.1147063527023,711.7590515568154,"[9, 0, 245]",245,a,0.12102166702970862,colour,0.5
152,21,0,2,10,23,473,712.2708941004239,713.0870493323309,"[36, 0, 218]",218,a,0.29276749794371426,colour,0.5
152,21,0,2,10,24,474,713.5990643803962,714.3990294069517,"[13, 0, 241]",241,a,0.2761066470993683,colour,0.5
152,21,0,2,10,25,475,714.9115399128059,715.5830198979238,"[78, 0, 176]",176,l,0.14814266352914274,colour,0.5
152,21,0,2,10,26,476,716.0991069157608,717.1350177585846,"[73, 0, 181]",181,l,0.51266883185599,colour,0.5
152,21,0,2,10,27,477,717.645913497312,718.4950143084861,"[70, 0, 184]",184,l,0.32575403712689877,colour,0.5
152,21,0,2,10,28,478,719.0053224295843,719.8630417642416,"[98, 0, 156]",156,l,0.3343662591651082,colour,0.5
152,21,0,2,10,29,479,720.3802626635879,721.0151252468349,"[27, 0, 227]",227,a,0.11144452320877463,colour,0.5
152,21,0,2,10,30,480,721.5366044049151,722.071026905207,"[46, 0, 208]",208,l,0.011289190617389977,colour,0.5
152,21,0,2,10,31,481,722.5834153188625,723.9269676330732,"[68, 0, 186]",186,l,0.8202539832564071,colour,0.5
152,21,0,2,10,32,482,724.4427643866511,725.3430371640716,"[31, 0, 223]",223,a,0.376998471096158,colour,0.5
152,21,0,2,10,33,483,725.8490149527788,726.4070185651071,"[30, 0, 224]",224,a,0.03475766279734671,colour,0.5
152,21,0,2,10,34,484,726.9270562482998,727.6629807968857,"[26, 0, 228]",228,a,0.21251200244296342,colour,0.5
152,21,0,2,10,35,485,728.1770721990615,728.8470153986709,"[19, 0, 235]",235,a,0.14654246880672872,colour,0.5
152,21,0,2,10,36,486,729.364567522076,729.9750140405959,"[21, 0, 233]",233,a,0.0870465753832832,colour,0.5
152,21,0,2,10,37,487,730.4895701805362,731.6789705349365,"[39, 0, 215]",215,a,0.6659956850344315,colour,0.5
152,21,0,2,10,38,488,732.1927208666457,732.9030163059942,"[4, 0, 250]",250,a,0.18708848056849092,colour,0.5
152,21,0,2,10,39,489,733.4114871374331,734.2950092672836,"[84, 0, 170]",170,l,0.3601418789476156,colour,0.5
152,21,0,2,10,40,490,734.8020169622032,735.8150063842768,"[75, 0, 179]",179,l,0.4898915585363284,colour,0.5
152,21,0,2,10,41,491,736.3333076020936,737.1910048814025,"[66, 0, 188]",188,l,0.33433711458928883,colour,0.5
152,21,0,2,10,42,492,737.7090638842201,738.4710259599378,"[48, 0, 206]",206,a,0.23945222375914454,colour,0.5
152,21,0,2,10,43,493,738.9896028697258,739.591111456044,"[2, 0, 252]",252,l,0.07884986058343202,colour,0.5
152,21,0,2,10,44,494,740.0989537098212,740.8310209345073,"[77, 0, 177]",177,l,0.2089729057624936,colour,0.5
152,21,0,2,10,45,495,741.3487715561641,742.1829881540034,"[94, 0, 160]",160,l,0.3106610856484622,colour,0.5
152,21,0,2,10,46,496,742.6926590328803,743.5589795617852,"[87, 0, 167]",167,l,0.34323960065376014,colour,0.5
152,21,0,2,10,47,497,744.0677367190365,744.9109979812056,"[52, 0, 202]",202,a,0.3200109804747626,colour,0.5
152,21,0,2,10,48,498,745.4270176513819,746.0630428669974,"[50, 0, 204]",204,a,0.11267647240310907,colour,0.5
152,21,0,2,10,49,499,746.5833546667127,747.6229901073966,"[58, 0, 196]",196,a,0.5166246170410886,colour,0.5
152,21,0,2,10,50,500,748.1301254084101,749.0789857372874,"[23, 0, 231]",231,a,0.42539894592482597,colour,0.5
152,21,0,2,11,1,501,795.0823038865346,796.1028929535532,"[41, 0, 213]",213,a,0.4965443986002356,colour,0.5
152,21,0,2,11,2,502,796.6143542546779,797.4228984201327,"[5, 0, 249]",249,a,0.28513083152938634,colour,0.5
152,21,0,2,11,3,503,797.9424843624001,798.8309185346588,"[64, 0, 190]",190,l,0.3652744749560952,colour,0.5
152,21,0,2,11,4,504,799.3486281963997,799.9669539901661,"[73, 0, 181]",181,l,0.09481833083555102,colour,0.5
152,21,0,2,11,5,505,800.4737068670802,801.1588773195399,"[45, 0, 209]",209,a,0.16190835530869663,colour,0.5
152,21,0,2,11,6,506,801.6767362487735,802.5189573647222,"[52, 0, 202]",202,a,0.3187928160186857,colour,0.5
152,21,0,2,11,7,507,803.0361920485739,803.8948818187928,"[1, 0, 253]",253,a,0.33529809780884534,colour,0.5
152,21,0,2,11,8,508,804.4111815132201,805.2629246345023,"[54, 0, 200]",200,a,0.32833136280532926,colour,0.5
152,21,0,2,11,9,509,805.7706117131747,806.3029243825004,"[93, 0, 161]",161,l,0.008996221469715238,colour,0.5
152,21,0,2,11,10,510,806.8174781593261,807.5909346193075,"[37, 0, 217]",217,a,0.2501589166931808,colour,0.5
152,21,0,2,11,11,511,808.0985137842363,808.6788815257605,"[43, 0, 211]",211,a,0.057555416016839445,colour,0.5
152,21,0,2,11,12,512,809.1924294208875,810.0709248991916,"[99, 0, 155]",155,l,0.3553066364256665,colour,0.5
152,21,0,2,11,13,513,810.5830659779022,811.2389098984422,"[29, 0, 225]",225,a,0.1327066725352779,colour,0.5
152,21,0,2,11,14,514,811.7548547380138,812.3668845158536,"[42, 0, 212]",212,a,0.0886089609703049,colour,0.5
152,21,0,2,11,15,515,812.8799700362142,813.4709271047032,"[25, 0, 229]",229,a,0.06755554990377277,colour,0.5
152,21,0,2,11,16,516,813.989302759408,814.5429063285701,"[83, 0, 171]",171,l,0.0309869849588722,colour,0.5
152,21,0,2,11,17,517,815.0517367409775,815.5908948408905,"[65, 0, 189]",189,a,0.015855042729526758,colour,0.5
152,21,0,2,11,18,518,816.0985854641767,816.6708919736557,"[23, 0, 231]",231,a,0.048860092647373676,colour,0.5
152,21,0,2,11,19,519,817.1924416301772,817.7428688345244,"[0, 0, 254]",254,a,0.0272127625066787,colour,0.5
152,21,0,2,11,20,520,818.2548543440644,818.9189343641046,"[19, 0, 235]",235,a,0.14071394759230316,colour,0.5
152,21,0,2,11,21,521,819.4267600764288,820.3669093281496,"[60, 0, 194]",194,a,0.41684658848680556,colour,0.5
152,21,0,2,11,22,522,820.879878270207,821.5670325229876,"[22, 0, 232]",232,a,0.16380826651584357,colour,0.5
152,21,0,2,11,23,523,822.0829690918326,822.8068939524237,"[70, 0, 184]",184,l,0.20059896039310843,colour,0.5
152,21,0,2,11,24,524,823.3174230209552,824.1349003924988,"[24, 0, 230]",230,a,0.2941648621344939,colour,0.5
152,21,0,2,11,25,525,824.6455078363651,825.3348558092257,"[92, 0, 162]",162,l,0.1660854818765074,colour,0.5
152,21,0,2,11,26,526,825.8485167380422,826.6148469556356,"[48, 0, 206]",206,a,0.2428841944783926,colour,0.5
152,21,0,2,11,27,527,827.1299595993478,827.8228919610847,"[28, 0, 226]",226,a,0.1696348184486851,colour,0.5
152,21,0,2,11,28,528,828.3330252148444,829.0549075920135,"[97, 0, 157]",157,l,0.19863445847295225,colour,0.5
152,21,0,2,11,29,529,829.5674027379137,830.1108935333323,"[46, 0, 208]",208,a,0.020219639874994755,colour,0.5
152,21,0,2,11,30,530,830.6298426272115,831.3188814312452,"[74, 0, 180]",180,l,0.16569636238273233,colour,0.5
152,21,0,2,11,31,531,831.8329901625402,832.9029107553652,"[3, 0, 251]",251,a,0.5467096955981106,colour,0.5
152,21,0,2,11,32,532,833.4110976241063,834.0228788853856,"[88, 0, 166]",166,l,0.08843133656773716,colour,0.5
152,21,0,2,11,33,533,834.5361790517345,835.3269103678176,"[36, 0, 218]",218,a,0.2674207759555429,colour,0.5
152,21,0,2,11,34,534,835.833003159496,836.6068239266751,"[94, 0, 160]",160,l,0.250631925300695,colour,0.5
152,21,0,2,11,35,535,837.114179781056,838.3108686422929,"[57, 0, 197]",197,a,0.6731857304694131,colour,0.5
152,21,0,2,11,36,536,838.81731668266,839.5109055850189,"[2, 0, 252]",252,a,0.17025591304991394,colour,0.5
152,21,0,2,11,37,537,840.0203921442153,840.9910274093272,"[89, 0, 165]",165,l,0.44727982650510967,colour,0.5
152,21,0,2,11,38,538,841.5048179134028,842.374883126351,"[79, 0, 175]",175,l,0.3467948450706899,colour,0.5
152,21,0,2,11,39,539,842.8953804273624,843.6948897744296,"[71, 0, 183]",183,l,0.2761669054161757,colour,0.5
152,21,0,2,11,40,540,844.2079465441639,844.870869839564,"[20, 0, 234]",234,a,0.1397553273709491,colour,0.5
152,21,0,2,11,41,541,845.3797632673522,846.0468577815918,"[91, 0, 163]",163,l,0.1437445895280689,colour,0.5
152,21,0,2,11,42,542,846.5673720178893,847.198859344353,"[86, 0, 168]",168,l,0.10814803547691554,colour,0.5
152,21,0,2,11,43,543,847.7079552087234,848.2868255493231,"[15, 0, 239]",239,a,0.05561730184126645,colour,0.5
152,21,0,2,11,44,544,848.801661319565,849.5828922919463,"[33, 0, 221]",221,a,0.2579184629721567,colour,0.5
152,21,0,2,11,45,545,850.0984365905169,850.8788077979116,"[32, 0, 222]",222,a,0.2569326674565673,colour,0.5
152,21,0,2,11,46,546,851.3953678242397,851.9589077243581,"[67, 0, 187]",187,l,0.0401702830567956,colour,0.5
152,21,0,2,11,47,547,852.4734284181613,853.1268328590086,"[58, 0, 196]",196,a,0.12992060859687626,colour,0.5
152,21,0,2,11,48,548,853.6454357625917,854.3988450871548,"[6, 0, 248]",248,a,0.23012399044819176,colour,0.5
152,21,0,2,11,49,549,854.9110704488121,855.6387919810368,"[55, 0, 199]",199,a,0.20450905966572464,colour,0.5
152,21,0,2,11,50,550,856.1454156765249,856.7348194179358,"[75, 0, 179]",179,l,0.0661510966019705,colour,0.5
152,21,0,2,12,1,551,862.3945368099958,863.4227948387852,"[81, 0, 173]",173,l,0.5041566465515643,colour,0.5
152,21,0,2,12,2,552,863.9422697165282,864.4949056070764,"[32, 0, 222]",222,a,0.029552205465734005,colour,0.5
152,21,0,2,12,3,553,865.004613507539,865.6068711881526,"[61, 0, 193]",193,l,0.07916218019090593,colour,0.5
152,21,0,2,12,4,554,866.1141305504134,866.6468000438763,"[83, 0, 171]",171,l,0.009418423986062407,colour,0.5
152,21,0,2,12,5,555,867.1609012921108,868.2148226946592,"[98, 0, 156]",156,l,0.5308251144597307,colour,0.5
152,21,0,2,12,6,556,868.7234140428482,869.5188104602275,"[17, 0, 237]",237,a,0.272037040325813,colour,0.5
152,21,0,2,12,7,557,870.035961648915,870.9748438993702,"[86, 0, 168]",168,l,0.41562015330418944,colour,0.5
152,21,0,2,12,8,558,871.4890109198168,872.0154025142547,"[46, 0, 208]",208,a,0.0029971651965752244,colour,0.5
152,21,0,2,12,9,559,872.5359722827561,873.1267804775853,"[71, 0, 183]",183,a,0.06755830685142428,colour,0.5
152,21,0,2,12,10,560,873.6453136705095,874.1828692125855,"[40, 0, 214]",214,a,0.014284780365414917,colour,0.5
152,21,0,2,12,11,561,874.6922183197457,875.3189511419041,"[77, 0, 177]",177,l,0.10376492771320045,colour,0.5
152,21,0,2,12,12,562,875.8327908767387,877.2148376607802,"[84, 0, 170]",170,l,0.8587413638597354,colour,0.5
152,21,0,2,12,13,563,877.7234211320756,878.606789268204,"[85, 0, 169]",169,l,0.36011391587089747,colour,0.5
152,21,0,2,12,14,564,879.114044298185,879.8547906986205,"[41, 0, 213]",213,a,0.21736221108585596,colour,0.5
152,21,0,2,12,15,565,880.3640244089765,881.3187731236685,"[45, 0, 209]",209,a,0.4314448698423803,colour,0.5
152,21,0,2,12,16,566,881.8327987536322,882.5108283912996,"[8, 0, 246]",246,a,0.15475218056235462,colour,0.5
152,21,0,2,12,17,567,883.0203051043209,883.7027958312538,"[23, 0, 231]",231,a,0.15918451896868646,colour,0.5
152,21,0,2,12,18,568,884.2234337350819,885.0387681927532,"[89, 0, 165]",165,l,0.29207275435328484,colour,0.5
152,21,0,2,12,19,569,885.5515260336688,886.3027743273415,"[0, 0, 254]",254,a,0.22791845514439046,colour,0.5
152,21,0,2,12,20,570,886.8170815567719,887.7987823082367,"[31, 0, 223]",223,a,0.45834767597261816,colour,0.5
152,21,0,2,12,21,571,888.3171299998648,889.1668014931493,"[13, 0, 241]",241,a,0.32639876229222864,colour,0.5
152,21,0,2,12,22,572,889.6765609874856,890.3667825098382,"[49, 0, 205]",205,a,0.16698187449947,colour,0.5
152,21,0,2,12,23,573,890.8796443259344,891.6547750235768,"[7, 0, 247]",247,a,0.25180558511056006,colour,0.5
152,21,0,2,12,24,574,892.1608272491721,892.8708190334728,"[47, 0, 207]",207,a,0.1868202716577798,colour,0.5
152,21,0,2,12,25,575,893.3795769783901,893.9987869556062,"[94, 0, 160]",160,l,0.09580767108127475,colour,0.5
152,21,0,2,12,26,576,894.5202570551774,895.4147733852733,"[20, 0, 234]",234,a,0.3709367933915928,colour,0.5
152,21,0,2,12,27,577,895.9264729629504,896.6147929987637,"[59, 0, 195]",195,a,0.16506266477517784,colour,0.5
152,21,0,2,12,28,578,897.1295901722042,897.9667850304395,"[48, 0, 206]",206,a,0.31386108114384115,colour,0.5
152,21,0,2,12,29,579,898.4733799751848,899.1587894919794,"[88, 0, 166]",166,l,0.16212142584845424,colour,0.5
152,21,0,2,12,30,580,899.6764869444305,900.2547653350048,"[21, 0, 233]",233,a,0.055021019536070526,colour,0.5
152,21,0,2,12,31,581,900.7701729692053,901.4627997067291,"[66, 0, 188]",188,l,0.1695501416688785,colour,0.5
152,21,0,2,12,32,582,901.9732893906767,902.79873032053,"[38, 0, 216]",216,a,0.30208746052812785,colour,0.5
152,21,0,2,12,33,583,903.3170535938116,904.0070372334449,"[93, 0, 161]",161,l,0.16672508709598333,colour,0.5
152,21,0,2,12,34,584,904.5203700888669,905.3107386732008,"[65, 0, 189]",189,a,0.2672919884789735,colour,0.5
152,21,0,2,12,35,585,905.8170984921744,906.7027655051788,"[87, 0, 167]",167,l,0.36236868205014616,colour,0.5
152,21,0,2,12,36,586,907.2232714707498,907.7907710946165,"[96, 0, 158]",158,l,0.044102437677793205,colour,0.5
152,21,0,2,12,37,587,908.3014411599142,908.9267411717447,"[79, 0, 175]",175,a,0.10188785952050239,colour,0.5
152,21,0,2,12,38,588,909.4420940614073,910.2387314863736,"[53, 0, 201]",201,a,0.27355492138303816,colour,0.5
152,21,0,2,12,39,589,910.7544124493143,911.3747567018727,"[34, 0, 220]",220,a,0.0969454909209162,colour,0.5
152,21,0,2,12,40,590,911.8951122184517,912.5987272486091,"[33, 0, 221]",221,a,0.1805191357852891,colour,0.5
152,21,0,2,12,41,591,913.1139832522022,913.6388049779925,"[70, 0, 184]",184,l,0.001474164193496108,colour,0.5
152,21,0,2,12,42,592,914.1607748676324,914.8470047648298,"[50, 0, 204]",204,a,0.16315015056170523,colour,0.5
152,21,0,2,12,43,593,915.3639535168186,915.9987400879618,"[56, 0, 198]",198,a,0.11141144030261785,colour,0.5
152,21,0,2,12,44,594,916.5201219661394,917.1027165107662,"[69, 0, 185]",185,l,0.05921586917247623,colour,0.5
152,21,0,2,12,45,595,917.6140395720722,918.2147321101511,"[11, 0, 243]",243,a,0.07742177625186741,colour,0.5
152,21,0,2,12,46,596,918.7232628060738,919.6147937864298,"[2, 0, 252]",252,a,0.36811095103621483,colour,0.5
152,21,0,2,12,47,597,920.129530701437,920.894757757429,"[43, 0, 211]",211,a,0.24191100196912885,colour,0.5
152,21,0,2,12,48,598,921.4107230769005,922.1506936015794,"[9, 0, 245]",245,a,0.21658239688258618,colour,0.5
152,21,0,2,12,49,599,922.6607461168896,923.3107465502108,"[72, 0, 182]",182,l,0.1266316039254889,colour,0.5
152,21,0,2,12,50,600,923.8169897907646,924.566758800298,"[3, 0, 251]",251,a,0.2264860385330394,colour,0.5
152,21,0,2,13,1,601,929.5348978718976,930.4467528611422,"[87, 0, 167]",167,l,0.3877354901051149,colour,0.5
152,21,0,2,13,2,602,930.9575816461584,931.7027556590037,"[94, 0, 160]",160,l,0.22190679563209414,colour,0.5
152,21,0,2,13,3,603,932.2232568984618,933.2067208966473,"[72, 0, 182]",182,a,0.46018181496765465,colour,0.5
152,21,0,2,13,4,604,933.7232415385079,934.3667029530043,"[37, 0, 217]",217,a,0.12018001894466579,colour,0.5
152,21,0,2,13,5,605,934.879431649344,935.6307468967279,"[64, 0, 190]",190,a,0.22796138422563672,colour,0.5
152,21,0,2,13,6,606,936.1450301016448,936.9187295644078,"[86, 0, 168]",168,l,0.25038340874016285,colour,0.5
152,21,0,2,13,7,607,937.4263583538122,938.134759395849,"[61, 0, 193]",193,a,0.18508144340012223,colour,0.5
152,21,0,2,13,8,608,938.6450383723713,939.462709909887,"[9, 0, 245]",245,a,0.29436217877082527,colour,0.5
152,21,0,2,13,9,609,939.9731617846992,940.6867076319177,"[28, 0, 226]",226,a,0.19017465482465923,colour,0.5
152,21,0,2,13,10,610,941.207571996958,941.9027406141395,"[36, 0, 218]",218,a,0.17195811378769577,colour,0.5
152,21,0,2,13,11,611,942.4107018093346,943.3107166178524,"[69, 0, 185]",185,l,0.3768153327982873,colour,0.5
152,21,0,2,13,12,612,943.8168972370913,944.5187419311842,"[50, 0, 204]",204,a,0.17848059092648327,colour,0.5
152,21,0,2,13,13,613,945.0356512985891,945.7027198190335,"[84, 0, 170]",170,l,0.14373789413366467,colour,0.5
152,21,0,2,13,14,614,946.2231938831974,947.0307242899435,"[51, 0, 203]",203,l,0.2842029312159866,colour,0.5
152,21,0,2,13,15,615,947.5512058371678,948.1427296494367,"[63, 0, 191]",191,a,0.0681601029355079,colour,0.5
152,21,0,2,13,16,616,948.6606358401477,950.3906948460499,"[18, 0, 236]",236,a,1.2067917886888608,colour,0.5
152,21,0,2,13,17,617,950.910588381812,951.6947239654837,"[15, 0, 239]",239,a,0.2607647852273658,colour,0.5
152,21,0,2,13,18,618,952.2074896832928,953.0467715293635,"[38, 0, 216]",216,a,0.31606385961640626,colour,0.5
152,21,0,2,13,19,619,953.5668860124424,955.054683887749,"[6, 0, 248]",248,a,0.9644538582069799,colour,0.5
152,21,0,2,13,20,620,955.5666662466247,956.2546751443297,"[62, 0, 192]",192,l,0.16449158859904855,colour,0.5
152,21,0,2,13,21,621,956.7699086987413,957.6626881696284,"[57, 0, 197]",197,l,0.3693239955464378,colour,0.5
152,21,0,2,13,22,622,958.1762112525757,959.006727670785,"[13, 0, 241]",241,a,0.3072590472875163,colour,0.5
152,21,0,2,13,23,623,959.5199419787386,960.254801174975,"[54, 0, 200]",200,l,0.2115151792531833,colour,0.5
152,21,0,2,13,24,624,960.7700004647486,961.3587338809157,"[93, 0, 161]",161,l,0.06540357752237469,colour,0.5
152,21,0,2,13,25,625,961.8793371263891,962.7746809259988,"[2, 0, 252]",252,a,0.37200726568698883,colour,0.5
152,21,0,2,13,26,626,963.285574301728,963.934666920919,"[46, 0, 208]",208,l,0.1257241836283356,colour,0.5
152,21,0,2,13,27,627,964.4417986772023,965.102666098508,"[97, 0, 157]",157,a,0.1376825178740546,colour,0.5
152,21,0,2,13,28,628,965.6137552155415,966.6387006088626,"[74, 0, 180]",180,l,0.5016502131475136,colour,0.5
152,21,0,2,13,29,629,967.144985597115,968.1746405962622,"[68, 0, 186]",186,l,0.5064015665557235,colour,0.5
152,21,0,2,13,30,630,968.6918465294875,969.4786803494208,"[88, 0, 166]",166,l,0.2638399316929281,colour,0.5
152,21,0,2,13,31,631,969.9886832402553,970.8146846124437,"[99, 0, 155]",155,l,0.30322724976576865,colour,0.5
152,21,0,2,13,32,632,971.3324198741466,972.1906740510603,"[98, 0, 156]",156,l,0.33499050443060696,colour,0.5
152,21,0,2,13,33,633,972.7074491172098,973.2866849463899,"[8, 0, 246]",246,a,0.0559272583341226,colour,0.5
152,21,0,2,13,34,634,973.8011138741858,974.3666852299357,"[32, 0, 222]",222,a,0.042198981856927276,colour,0.5
152,21,0,2,13,35,635,974.8794332246762,975.6066856868565,"[27, 0, 227]",227,a,0.20417114009615034,colour,0.5
152,21,0,2,13,36,636,976.1136882618302,976.750653192983,"[65, 0, 189]",189,a,0.11362445878330618,colour,0.5
152,21,0,2,13,37,637,977.269887037226,978.3826525186887,"[11, 0, 243]",243,a,0.5893875936744735,colour,0.5
152,21,0,2,13,38,638,978.8949015110265,979.6146728758467,"[16, 0, 238]",238,a,0.19643837539479136,colour,0.5
152,21,0,2,13,39,639,980.129203415825,980.8787518717581,"[33, 0, 221]",221,a,0.22622413118369877,colour,0.5
152,21,0,2,13,40,640,981.3948747295653,982.2546798705589,"[5, 0, 249]",249,a,0.33640322857536376,colour,0.5
152,21,0,2,13,41,641,982.7698098435067,983.6146468820516,"[4, 0, 250]",250,a,0.32150483690202236,colour,0.5
152,21,0,2,13,42,642,984.1292207449442,984.9906339575537,"[0, 0, 254]",254,a,0.33797585405409336,colour,0.5
152,21,0,2,13,43,643,985.5042602280155,986.2626150718424,"[59, 0, 195]",195,l,0.23508132516872138,colour,0.5
152,21,0,2,13,44,644,986.7698267789092,987.3906712153694,"[45, 0, 209]",209,a,0.09751184098422527,colour,0.5
152,21,0,2,13,45,645,987.9104796804022,988.6546375715407,"[42, 0, 212]",212,a,0.22080796642694622,colour,0.5
152,21,0,2,13,46,646,989.1760856157634,989.9826286516618,"[25, 0, 229]",229,a,0.28334159089718014,colour,0.5
152,21,0,2,13,47,647,990.4885174313094,991.0707882348215,"[80, 0, 174]",174,l,0.058936632703989744,colour,0.5
152,21,0,2,13,48,648,991.5823318496114,992.1186542611104,"[73, 0, 181]",181,l,0.013006357476115227,colour,0.5
152,21,0,2,13,49,649,992.6292120803846,993.2626371271908,"[43, 0, 211]",211,a,0.11010899278335273,colour,0.5
152,21,0,2,13,50,650,993.7698137819534,994.4146957976045,"[47, 0, 207]",207,a,0.1215320909395814,colour,0.5
152,21,0,2,14,1,651,1002.362767647719,1003.1345987068489,"[65, 0, 189]",189,a,0.2476615416817367,colour,0.5
152,21,0,2,14,2,652,1003.6448855603812,1004.3346836987184,"[71, 0, 183]",183,l,0.16658172733150423,colour,0.5
152,21,0,2,14,3,653,1004.8479247881332,1005.5586396730505,"[19, 0, 235]",235,a,0.18744530470576137,colour,0.5
152,21,0,2,14,4,654,1006.0667131142691,1006.7506417714758,"[37, 0, 217]",217,a,0.16064923082012683,colour,0.5
152,21,0,2,14,5,655,1007.2698421388632,1008.2626489426475,"[8, 0, 246]",246,a,0.4695458881324157,colour,0.5
152,21,0,2,14,6,656,1008.7698523788713,1009.6066266100388,"[51, 0, 203]",203,a,0.3134837771067396,colour,0.5
152,21,0,2,14,7,657,1010.1135791665874,1010.8067045126809,"[12, 0, 242]",242,a,0.16981401829980314,colour,0.5
152,21,0,2,14,8,658,1011.3166613235371,1012.0386051406385,"[68, 0, 186]",186,l,0.19870928907766938,colour,0.5
152,21,0,2,14,9,659,1012.5510333328275,1013.1026664923411,"[10, 0, 244]",244,a,0.02828244713600725,colour,0.5
152,21,0,2,14,10,660,1013.6134877944132,1014.254600707558,"[55, 0, 199]",199,a,0.11769603472203016,colour,0.5
152,21,0,2,14,11,661,1014.7698232342955,1015.7348205994349,"[17, 0, 237]",237,a,0.441760080284439,colour,0.5
152,21,0,2,14,12,662,1016.2541178527754,1016.9426702575292,"[25, 0, 229]",229,a,0.16525367985013872,colour,0.5
152,21,0,2,14,13,663,1017.4572563297115,1018.3346336802933,"[24, 0, 230]",230,a,0.35407547501381487,colour,0.5
152,21,0,2,14,14,664,1018.8479618096026,1019.6945916333934,"[46, 0, 208]",208,a,0.32343743729870766,colour,0.5
152,21,0,2,14,15,665,1020.2072088713758,1021.0386023838073,"[99, 0, 155]",155,l,0.30807233846280724,colour,0.5
152,21,0,2,14,16,666,1021.5509959174087,1022.3026341182413,"[27, 0, 227]",227,a,0.22839146363548934,colour,0.5
152,21,0,2,14,17,667,1022.8166022467194,1023.6226033510175,"[77, 0, 177]",177,l,0.2827614563284442,colour,0.5
152,21,0,2,14,18,668,1024.129193175817,1024.894598249928,"[74, 0, 180]",180,l,0.24216660764068365,colour,0.5
152,21,0,2,14,19,669,1025.41035404359,1026.2226397424238,"[9, 0, 245]",245,a,0.2890771646052599,colour,0.5
152,21,0,2,14,20,670,1026.7383900221903,1027.5346206045942,"[64, 0, 190]",190,l,0.2728326085489243,colour,0.5
152,21,0,2,14,21,671,1028.0509435359854,1028.8625876602018,"[60, 0, 194]",194,l,0.28837493783794343,colour,0.5
152,21,0,2,14,22,672,1029.379085065215,1029.9665983476443,"[86, 0, 168]",168,l,0.06419250229373574,colour,0.5
152,21,0,2,14,23,673,1030.472789994441,1031.1345786206657,"[42, 0, 212]",212,a,0.13837647379841655,colour,0.5
152,21,0,2,14,24,674,1031.6446858806303,1032.3826068326598,"[32, 0, 222]",222,a,0.21463561803102493,colour,0.5
152,21,0,2,14,25,675,1032.8946545699146,1033.5106066562003,"[93, 0, 161]",161,l,0.09262815536931157,colour,0.5
152,21,0,2,14,26,676,1034.0196568345418,1034.750563002308,"[59, 0, 195]",195,a,0.2075940523063764,colour,0.5
152,21,0,2,14,27,677,1035.2696290683234,1036.1745968793985,"[88, 0, 166]",166,l,0.3816072524059564,colour,0.5
152,21,0,2,14,28,678,1036.6915306652663,1037.5185816360172,"[61, 0, 193]",193,a,0.30390505807008594,colour,0.5
152,21,0,2,14,29,679,1038.035210585338,1039.0385637868894,"[16, 0, 238]",238,a,0.4799965814454481,colour,0.5
152,21,0,2,14,30,680,1039.5509226621361,1040.3825753249694,"[50, 0, 204]",204,a,0.30839489796198905,colour,0.5
152,21,0,2,14,31,681,1040.8946738683153,1041.8065776943695,"[72, 0, 182]",182,l,0.3890517221298069,colour,0.5
152,21,0,2,14,32,682,1042.3165171759902,1043.1025672432734,"[38, 0, 216]",216,a,0.2627158963587135,colour,0.5
152,21,0,2,14,33,683,1043.613372003776,1044.4785913403612,"[85, 0, 169]",169,l,0.3422443529125303,colour,0.5
152,21,0,2,14,34,684,1044.9883622560883,1045.5585790207842,"[98, 0, 156]",156,l,0.04758363892324269,colour,0.5
152,21,0,2,14,35,685,1046.0664705053205,1047.0465899666306,"[41, 0, 213]",213,a,0.4568786318413913,colour,0.5
152,21,0,2,14,36,686,1047.5664791699965,1048.3105602611322,"[63, 0, 191]",191,a,0.22076267411466688,colour,0.5
152,21,0,2,14,37,687,1048.8320472962223,1049.6545670730993,"[28, 0, 226]",226,a,0.2990772984921932,colour,0.5
152,21,0,2,14,38,688,1050.1759150805883,1050.7186016433407,"[49, 0, 205]",205,a,0.019611936062574387,colour,0.5
152,21,0,2,14,39,689,1051.238288016175,1051.9025712604634,"[3, 0, 251]",251,a,0.1408624273026362,colour,0.5
152,21,0,2,14,40,690,1052.4102516437415,1053.0705535027664,"[92, 0, 162]",162,l,0.13690506666898727,colour,0.5
152,21,0,2,14,41,691,1053.582079788437,1054.2385522866389,"[22, 0, 232]",232,a,0.13308082579169422,colour,0.5
152,21,0,2,14,42,692,1054.7539674037835,1055.4785688911797,"[14, 0, 240]",240,a,0.20120272575877607,colour,0.5
152,21,0,2,14,43,693,1055.9883717084303,1056.7905343933962,"[67, 0, 187]",187,l,0.2796807959675789,colour,0.5
152,21,0,2,14,44,694,1057.3008566930657,1058.0625627691625,"[34, 0, 220]",220,a,0.238434920553118,colour,0.5
152,21,0,2,14,45,695,1058.5820171670057,1059.3986568290275,"[57, 0, 197]",197,a,0.29318970057647675,colour,0.5
152,21,0,2,14,46,696,1059.9102528252406,1060.6065391763113,"[48, 0, 206]",206,a,0.1730045615695417,colour,0.5
152,21,0,2,14,47,697,1061.1133385269204,1061.766580309486,"[39, 0, 215]",215,a,0.12990958092268556,colour,0.5
152,21,0,2,14,48,698,1062.2852800991386,1062.9585390848806,"[87, 0, 167]",167,l,0.150018943939358,colour,0.5
152,21,0,2,14,49,699,1063.4726616007974,1064.1745232302928,"[11, 0, 243]",243,a,0.1785109171178192,colour,0.5
152,21,0,2,14,50,700,1064.6914570161607,1065.4705060838023,"[96, 0, 158]",158,l,0.2559437210438773,colour,0.5
152,21,0,2,15,1,701,1070.7686168851797,1071.502514704247,"[48, 0, 206]",206,a,0.20973460318055004,colour,0.5
152,21,0,2,15,2,702,1072.019513474661,1072.8384913980262,"[45, 0, 209]",209,a,0.2956618693424389,colour,0.5
152,21,0,2,15,3,703,1073.347688874579,1074.1185156274587,"[28, 0, 226]",226,a,0.2475843479624018,colour,0.5
152,21,0,2,15,4,704,1074.6288414716255,1075.462533860933,"[27, 0, 227]",227,a,0.31039563368540257,colour,0.5
152,21,0,2,15,5,705,1075.9727423391305,1076.8625258264365,"[33, 0, 221]",221,a,0.36658479925245047,colour,0.5
152,21,0,2,15,6,706,1077.378869631677,1078.2144883198198,"[22, 0, 232]",232,a,0.31230420956853777,colour,0.5
152,21,0,2,15,7,707,1078.7226326531963,1079.6065230285749,"[19, 0, 235]",235,a,0.36055108450818807,colour,0.5
152,21,0,2,15,8,708,1080.1132353392895,1081.1504951033276,"[89, 0, 165]",165,l,0.5138960547046736,colour,0.5
152,21,0,2,15,9,709,1081.6600694902008,1082.6545670730993,"[68, 0, 186]",186,l,0.47113702434580773,colour,0.5
152,21,0,2,15,10,710,1083.1757217023987,1084.0145226630848,"[86, 0, 168]",168,l,0.3156416572164744,colour,0.5
152,21,0,2,15,11,711,1084.5351274838904,1085.2144674459705,"[71, 0, 183]",183,a,0.15601012343540788,colour,0.5
152,21,0,2,15,12,712,1085.7225727885962,1086.3264877715847,"[82, 0, 172]",172,l,0.08052409824449569,colour,0.5
152,21,0,2,15,13,713,1086.8476282224292,1087.478546835715,"[11, 0, 243]",243,a,0.10766872542444617,colour,0.5
152,21,0,2,15,14,714,1087.988141308655,1088.6785605415935,"[91, 0, 163]",163,l,0.16769867343828082,colour,0.5
152,21,0,2,15,15,715,1089.191308536334,1090.286519137444,"[60, 0, 194]",194,a,0.5719201470492408,colour,0.5
152,21,0,2,15,16,716,1090.8005967548816,1091.8624982573092,"[44, 0, 210]",210,a,0.5384858053876087,colour,0.5
152,21,0,2,15,17,717,1092.3788196132518,1093.4545238289284,"[42, 0, 212]",212,a,0.5523751648142934,colour,0.5
152,21,0,2,15,18,718,1093.9726040993119,1094.7744843970286,"[95, 0, 159]",159,l,0.27859929588157684,colour,0.5
152,21,0,2,15,19,719,1095.2850981424563,1096.310516938218,"[36, 0, 218]",218,a,0.5020440587541088,colour,0.5
152,21,0,2,15,20,720,1096.8318543118658,1097.4705068714684,"[51, 0, 203]",203,a,0.11525182879995555,colour,0.5
152,21,0,2,15,21,721,1097.9881972348085,1098.574518346577,"[88, 0, 166]",166,l,0.06374863826204091,colour,0.5
152,21,0,2,15,22,722,1099.081813154975,1099.9264702060027,"[40, 0, 214]",214,a,0.3215064122341573,colour,0.5
152,21,0,2,15,23,723,1100.441266197944,1101.262480770587,"[54, 0, 200]",200,a,0.29798634618055075,colour,0.5
152,21,0,2,15,24,724,1101.7694085148396,1102.6145752021112,"[49, 0, 205]",205,a,0.3218486640835181,colour,0.5
152,21,0,2,15,25,725,1103.1287666410208,1103.9665168215288,"[80, 0, 174]",174,l,0.31447666184976697,colour,0.5
152,21,0,2,15,26,726,1104.4881586378906,1105.2704608703498,"[47, 0, 207]",207,a,0.258948763133958,colour,0.5
152,21,0,2,15,27,727,1105.784998499439,1106.5265042342944,"[46, 0, 208]",208,a,0.2181148501113057,colour,0.5
152,21,0,2,15,28,728,1107.0350140563678,1107.790537544177,"[55, 0, 199]",199,a,0.2321983752772212,colour,0.5
152,21,0,2,15,29,729,1108.3005900594871,1109.1904464082327,"[6, 0, 248]",248,a,0.366448528598994,colour,0.5
152,21,0,2,15,30,730,1109.7068331426708,1110.5345225370256,"[78, 0, 176]",176,l,0.30433631886262447,colour,0.5
152,21,0,2,15,31,731,1111.0506379117724,1111.838503607316,"[66, 0, 188]",188,a,0.2645114385522902,colour,0.5
152,21,0,2,15,32,732,1112.3474832872162,1113.222466844134,"[73, 0, 181]",181,a,0.35157967533450574,colour,0.5
152,21,0,2,15,33,733,1113.7381773456,1114.4544407274807,"[85, 0, 169]",169,l,0.19335613958537579,colour,0.5
152,21,0,2,15,34,734,1114.9724997302983,1115.758459212957,"[3, 0, 251]",251,a,0.26266942254733294,colour,0.5
152,21,0,2,15,35,735,1116.2693356534,1117.0544463988626,"[94, 0, 160]",160,l,0.2618746421067044,colour,0.5
152,21,0,2,15,36,736,1117.566216868814,1118.1424748313148,"[57, 0, 197]",197,a,0.05295057315379381,colour,0.5
152,21,0,2,15,37,737,1118.660016714828,1119.4864556494867,"[50, 0, 204]",204,a,0.30310712684877217,colour,0.5
152,21,0,2,15,38,738,1120.003676155,1120.8304951506434,"[23, 0, 231]",231,a,0.303373760310933,colour,0.5
152,21,0,2,15,39,739,1121.3474305118434,1122.1105902722338,"[17, 0, 237]",237,a,0.239760211086832,colour,0.5
152,21,0,2,15,40,740,1122.6288804623764,1123.4065018397523,"[12, 0, 242]",242,a,0.2545475383521989,colour,0.5
152,21,0,2,15,41,741,1123.9255635733716,1124.6704681958072,"[62, 0, 192]",192,l,0.22180833423044533,colour,0.5
152,21,0,2,15,42,742,1125.1912313426146,1126.0624320124043,"[59, 0, 195]",195,l,0.3480090709635988,colour,0.5
152,21,0,2,15,43,743,1126.5817631365499,1127.1504423280712,"[8, 0, 246]",246,a,0.04532296524848789,colour,0.5
152,21,0,2,15,44,744,1127.6599458226701,1128.310452347505,"[29, 0, 225]",225,a,0.127116821706295,colour,0.5
152,21,0,2,15,45,745,1128.8317479734542,1129.4304854620714,"[77, 0, 177]",177,l,0.07529579778201878,colour,0.5
152,21,0,2,15,46,746,1129.9411960934522,1130.7664081989788,"[69, 0, 185]",185,l,0.3020634358981624,colour,0.5
152,21,0,2,15,47,747,1131.2849792010384,1132.1504517802969,"[79, 0, 175]",175,l,0.34218803292606026,colour,0.5
152,21,0,2,15,48,748,1132.6599332195474,1133.5424029938877,"[35, 0, 219]",219,a,0.359362852293998,colour,0.5
152,21,0,2,15,49,749,1134.0505496903788,1134.910449748044,"[16, 0, 238]",238,a,0.33655761601403356,colour,0.5
152,21,0,2,15,50,750,1135.4255879918346,1136.262593016494,"[14, 0, 240]",240,a,0.3138543857494369,colour,0.5
152,21,0,2,16,1,751,1140.9871720545925,1141.6944337012246,"[66, 0, 188]",188,a,0.18378411582671106,colour,0.5
152,21,0,2,16,2,752,1142.2067224719794,1143.0224417167483,"[57, 0, 197]",197,a,0.29242091381456703,colour,0.5
152,21,0,2,16,3,753,1143.5349163826322,1144.2704183349852,"[83, 0, 171]",171,l,0.2122406428679824,colour,0.5
152,21,0,2,16,4,754,1144.7848504135618,1145.4624275226379,"[43, 0, 211]",211,a,0.1542263966985047,colour,0.5
152,21,0,2,16,5,755,1145.9724162350176,1146.7264320817776,"[7, 0, 247]",247,a,0.23070254968479276,colour,0.5
152,21,0,2,16,6,756,1147.237977272016,1148.038396796328,"[84, 0, 170]",170,l,0.27705266419798136,colour,0.5
152,21,0,2,16,7,757,1148.5504445335828,1149.3824047897942,"[29, 0, 225]",225,a,0.30860993766691536,colour,0.5
152,21,0,2,16,8,758,1149.8942469396861,1150.6864563584095,"[91, 0, 163]",163,l,0.2689536231337115,colour,0.5
152,21,0,2,16,9,759,1151.2067461027764,1151.958431171137,"[6, 0, 248]",248,a,0.22832726675551385,colour,0.5
152,21,0,2,16,10,760,1152.472318955115,1153.214435150614,"[70, 0, 184]",184,l,0.21883519378025085,colour,0.5
152,21,0,2,16,11,761,1153.7222466844833,1154.4064211013028,"[19, 0, 235]",235,a,0.1607307568192482,colour,0.5
152,21,0,2,16,12,762,1154.9255348227452,1155.6784163940465,"[75, 0, 179]",179,l,0.22983490768820047,colour,0.5
152,21,0,2,16,13,763,1156.1910682905,1156.9344499119325,"[74, 0, 180]",180,l,0.22010180121287704,colour,0.5
152,21,0,2,16,14,764,1157.4410464321263,1158.254615279846,"[37, 0, 217]",217,a,0.29031856602523476,colour,0.5
152,21,0,2,16,15,765,1158.7691844166256,1159.5664185177302,"[85, 0, 169]",169,l,0.27391962241381407,colour,0.5
152,21,0,2,16,16,766,1160.0816221397836,1160.7744162618183,"[49, 0, 205]",205,a,0.16944144037552178,colour,0.5
152,21,0,2,16,17,767,1161.2848389920546,1162.238418772933,"[5, 0, 249]",249,a,0.4303389514097944,colour,0.5
152,21,0,2,16,18,768,1162.7535483520478,1163.4464389662025,"[82, 0, 172]",172,l,0.1696824737591669,colour,0.5
152,21,0,2,16,19,769,1163.9567289705155,1164.6864445430692,"[62, 0, 192]",192,a,0.2064412662293762,colour,0.5
152,21,0,2,16,20,770,1165.2066468537087,1166.0303977919975,"[17, 0, 237]",237,a,0.30043488438241184,colour,0.5
152,21,0,2,16,21,771,1166.5504023920512,1167.3744034223491,"[41, 0, 213]",213,a,0.3007082131225616,colour,0.5
152,21,0,2,16,22,772,1167.8941252413206,1168.630466872477,"[40, 0, 214]",214,a,0.21294680796563625,colour,0.5
152,21,0,2,16,23,773,1169.1441372536356,1170.0063838436035,"[38, 0, 216]",216,a,0.33892541588284075,colour,0.5
152,21,0,2,16,24,774,1170.519177524373,1171.0544113465585,"[20, 0, 234]",234,a,0.011963454307988286,colour,0.5
152,21,0,2,16,25,775,1171.5660766597139,1172.5103817703202,"[18, 0, 236]",236,a,0.4210839733714238,colour,0.5
152,21,0,2,16,26,776,1173.0191716166446,1173.862437605043,"[86, 0, 168]",168,l,0.31992590974550694,colour,0.5
152,21,0,2,16,27,777,1174.3784749982879,1175.1983760958537,"[26, 0, 228]",228,a,0.2966263972921297,colour,0.5
152,21,0,2,16,28,778,1175.7066157398513,1176.550430355128,"[52, 0, 202]",202,a,0.32046508439816535,colour,0.5
152,21,0,2,16,29,779,1177.0660400320776,1177.9103674343787,"[61, 0, 193]",193,a,0.3210286775138229,colour,0.5
152,21,0,2,16,30,780,1178.4253438075539,1178.9904535763199,"[98, 0, 156]",156,l,0.04204932053107768,colour,0.5
152,21,0,2,16,31,781,1179.5035351582337,1180.1583507478936,"[71, 0, 183]",183,a,0.13150229258462787,colour,0.5
152,21,0,2,16,32,782,1180.6756326933391,1181.4143700873246,"[24, 0, 230]",230,a,0.21588607784360647,colour,0.5
152,21,0,2,16,33,783,1181.9253351429943,1182.7423855859088,"[69, 0, 185]",185,a,0.29391634557396173,colour,0.5
152,21,0,2,16,34,784,1183.253529053647,1184.0863813702017,"[67, 0, 187]",187,a,0.3096591423964128,colour,0.5
152,21,0,2,16,35,785,1184.5972357552964,1185.142365342239,"[55, 0, 199]",199,a,0.021789114573039114,colour,0.5
152,21,0,2,16,36,786,1185.6596425615717,1186.5103660165332,"[27, 0, 227]",227,a,0.3273790441453457,colour,0.5
152,21,0,2,16,37,787,1187.0190763060236,1187.8783840199467,"[44, 0, 210]",210,a,0.3359727553324774,colour,0.5
152,21,0,2,16,38,788,1188.39403741376,1189.166413949104,"[92, 0, 162]",162,l,0.2490549674257636,colour,0.5
152,21,0,2,16,39,789,1189.6752916229889,1190.5263648129767,"[36, 0, 218]",218,a,0.32793869881425053,colour,0.5
152,21,0,2,16,40,790,1191.0347375767305,1191.9023692177143,"[88, 0, 166]",166,l,0.3444045960204676,colour,0.5
152,21,0,2,16,41,791,1192.409667570726,1193.2063621032285,"[93, 0, 161]",161,l,0.2732264540391043,colour,0.5
152,21,0,2,16,42,792,1193.72218642605,1194.5503886075458,"[22, 0, 232]",232,a,0.3049759241985157,colour,0.5
152,21,0,2,16,43,793,1195.065927786054,1195.7423591982806,"[76, 0, 178]",178,l,0.15315592428669333,colour,0.5
152,21,0,2,16,44,794,1196.2533919953275,1196.9744004291715,"[90, 0, 164]",164,l,0.19791805336717516,colour,0.5
152,21,0,2,16,45,795,1197.4878258383833,1198.2463661835063,"[39, 0, 215]",215,a,0.2352735218591988,colour,0.5
152,21,0,2,16,46,796,1198.7534187769052,1199.5903974139364,"[14, 0, 240]",240,a,0.31365234311670065,colour,0.5
152,21,0,2,16,47,797,1200.0971751030302,1200.750373168732,"[48, 0, 206]",206,a,0.12984499020967633,colour,0.5
152,21,0,2,16,48,798,1201.2689823738765,1202.0463658684166,"[81, 0, 173]",173,l,0.2539898529648781,colour,0.5
152,21,0,2,16,49,799,1202.565942358342,1203.206378250965,"[8, 0, 246]",246,a,0.11718364153057337,colour,0.5
152,21,0,2,16,50,800,1203.7221175030572,1204.5503291367786,"[28, 0, 226]",226,a,0.3049739549169317,colour,0.5
