id,age,condition,counterbalance,block,trialinblock,trial,tstart,tend,trialstim,trialintensity,response,RT,trialtype,colourfreq
158,21,1,1,Practice,1,NA,5.5138953030109406e-06,0.6522880087140948,"[15, 0, 239]",239,a,0.12784081068821251,colour,0.5
158,21,1,1,Practice,2,NA,1.1727636642754078,4.572312080534175,"[55, 0, 199]",199,l,2.8762610948178917,colour,0.5
158,21,1,1,Practice,3,NA,5.081250019837171,6.156300510745496,"[39, 0, 215]",215,l,0.5517084246966988,colour,0.5
158,21,1,1,Practice,4,NA,6.674936512252316,7.660270871594548,"[31, 0, 223]",223,l,0.46184381330385804,colour,0.5
158,21,1,1,Practice,5,NA,8.175461508799344,9.148351124720648,"[93, 0, 161]",161,l,0.4499228848144412,colour,0.5
158,21,1,1,Practice,6,NA,9.659287832211703,10.236275651259348,"[3, 0, 251]",251,a,0.05345001141540706,colour,0.5
158,21,1,1,Practice,7,NA,10.753259075107053,11.356409684987739,"[77, 0, 177]",177,l,0.0799144881311804,colour,0.5
158,21,1,1,Practice,8,NA,11.862535170512274,14.772318854695186,"[48, 0, 206]",206,a,2.386682257754728,colour,0.5
158,21,1,1,Practice,9,NA,15.285693074343726,15.87628708849661,"[56, 0, 198]",198,a,0.06716293864883482,colour,0.5
158,21,1,1,Practice,10,NA,16.39506763126701,17.62829806585796,"[84, 0, 170]",170,l,0.7099521714262664,colour,0.5
158,21,1,1,1,1,1,4.394686388317496,6.495963473105803,"[3, 0, 251]",251,a,1.5780208769720048,colour,0.5
158,21,1,1,1,2,2,7.004831307800487,8.008023035246879,"[83, 0, 171]",171,l,0.4804447623901069,colour,0.5
158,21,1,1,1,3,3,8.520446117036045,9.447984769009054,"[31, 0, 223]",223,a,0.40434112725779414,colour,0.5
158,21,1,1,1,4,4,9.957834067987278,10.83995165140368,"[82, 0, 172]",172,l,0.3587593697011471,colour,0.5
158,21,1,1,1,5,5,11.348551671020687,12.623987815808505,"[10, 0, 244]",244,a,0.7521267679985613,colour,0.5
158,21,1,1,1,6,6,13.131105793174356,14.095902663189918,"[39, 0, 215]",215,a,0.44142368994653225,colour,0.5
158,21,1,1,1,7,7,14.615489802556112,15.55198490456678,"[35, 0, 219]",219,a,0.413899767678231,colour,0.5
158,21,1,1,1,8,8,16.068627651780844,16.96793464035727,"[44, 0, 210]",210,a,0.37602006085217,colour,0.5
158,21,1,1,1,9,9,17.47482536872849,18.26393741928041,"[30, 0, 224]",224,a,0.2657313875388354,colour,0.5
158,21,1,1,1,10,10,18.773130177054554,19.70391018106602,"[46, 0, 208]",208,a,0.40744699630886316,colour,0.5
158,21,1,1,1,11,11,20.210764281451702,21.00794544746168,"[76, 0, 178]",178,l,0.2739745827857405,colour,0.5
158,21,1,1,1,12,12,21.52315026312135,22.776084021432325,"[61, 0, 193]",193,a,0.7296011443249881,colour,0.5
158,21,1,1,1,13,13,23.288802093826234,24.231939407531172,"[86, 0, 168]",168,l,0.4203635670710355,colour,0.5
158,21,1,1,1,14,14,24.74322860687971,25.775967443129048,"[2, 0, 252]",252,a,0.5093703821767122,colour,0.5
158,21,1,1,1,15,15,26.2900517671369,27.295968120452017,"[45, 0, 209]",209,a,0.48255695798434317,colour,0.5
158,21,1,1,1,16,16,27.80566578847356,29.071922960458323,"[72, 0, 182]",182,l,0.742898564087227,colour,0.5
158,21,1,1,1,17,17,29.58692337013781,30.52793942950666,"[98, 0, 156]",156,l,0.4150974531657994,colour,0.5
158,21,1,1,1,18,18,31.042611765442416,31.847944360459223,"[53, 0, 201]",201,a,0.281946811825037,colour,0.5
158,21,1,1,1,19,19,32.35510211624205,33.264112680917606,"[4, 0, 250]",250,a,0.38590756291523576,colour,0.5
158,21,1,1,1,20,20,33.7770296453964,34.71992907603271,"[91, 0, 163]",163,l,0.4195656350348145,colour,0.5
158,21,1,1,1,21,21,35.23008281784132,36.3359907430131,"[85, 0, 169]",169,l,0.5825457728933543,colour,0.5
158,21,1,1,1,22,22,36.85531597468071,37.767965281615034,"[78, 0, 176]",176,l,0.38978773285634816,colour,0.5
158,21,1,1,1,23,23,38.277017436223105,39.15191621775739,"[11, 0, 243]",243,a,0.35166265978477895,colour,0.5
158,21,1,1,1,24,24,39.66894296463579,40.632010851055384,"[24, 0, 230]",230,a,0.43970849085599184,colour,0.5
158,21,1,1,1,25,25,41.15329113393091,41.95198978832923,"[0, 0, 254]",254,a,0.27536997897550464,colour,0.5
158,21,1,1,1,26,26,42.46577912173234,43.28793130046688,"[16, 0, 238]",238,a,0.2987530049867928,colour,0.5
158,21,1,1,1,27,27,43.793953992426395,44.66400886303745,"[52, 0, 202]",202,a,0.346773850498721,colour,0.5
158,21,1,1,1,28,28,45.18455383554101,45.93596380390227,"[90, 0, 164]",164,l,0.22813446214422584,colour,0.5
158,21,1,1,1,29,29,46.450182429281995,47.375989734660834,"[57, 0, 197]",197,l,0.40249635302461684,colour,0.5
158,21,1,1,1,30,30,47.887651906348765,48.79992745351046,"[65, 0, 189]",189,l,0.38754990021698177,colour,0.5
158,21,1,1,1,31,31,49.31095395772718,50.18398472806439,"[88, 0, 166]",166,l,0.3496946117375046,colour,0.5
158,21,1,1,1,32,32,50.70151638542302,51.53595576947555,"[20, 0, 234]",234,a,0.31098704086616635,colour,0.5
158,21,1,1,1,33,33,52.04542028065771,52.83991305460222,"[17, 0, 237]",237,a,0.27128737210296094,colour,0.5
158,21,1,1,1,34,34,53.35780193004757,54.25591044570319,"[47, 0, 207]",207,a,0.3748527017887682,colour,0.5
158,21,1,1,1,35,35,54.765406858408824,55.519950265064836,"[89, 0, 165]",165,l,0.2311296605039388,colour,0.5
158,21,1,1,1,36,36,56.03103505843319,56.871918155578896,"[28, 0, 226]",226,a,0.3178498060442507,colour,0.5
158,21,1,1,1,37,37,57.390351720154285,58.31992576783523,"[40, 0, 214]",214,a,0.40673177200369537,colour,0.5
158,21,1,1,1,38,38,58.82777787395753,59.67993638594635,"[55, 0, 199]",199,a,0.3286455166526139,colour,0.5
158,21,1,1,1,39,39,60.18730957549997,61.143936899490654,"[32, 0, 222]",222,a,0.4334463409613818,colour,0.5
158,21,1,1,1,40,40,61.65605199383572,62.48797627771273,"[43, 0, 211]",211,a,0.3086184514686465,colour,0.5
158,21,1,1,1,41,41,62.99975620931946,63.824011131655425,"[64, 0, 190]",190,l,0.29831386683508754,colour,0.5
158,21,1,1,1,42,42,64.3304725678172,65.1519461502321,"[79, 0, 175]",175,l,0.29797791643068194,colour,0.5
158,21,1,1,1,43,43,65.65857772785239,66.4959244823549,"[67, 0, 187]",187,l,0.31395703298039734,colour,0.5
158,21,1,1,1,44,44,67.00234298920259,67.81592547474429,"[37, 0, 217]",217,a,0.29041725606657565,colour,0.5
158,21,1,1,1,45,45,68.33041585399769,69.0719682527706,"[95, 0, 159]",159,l,0.21806736662983894,colour,0.5
158,21,1,1,1,46,46,69.58390099648386,70.18396385433152,"[13, 0, 241]",241,a,0.0766652594320476,colour,0.5
158,21,1,1,1,47,47,70.69325586105697,71.55192464613356,"[70, 0, 184]",184,l,0.3352975742891431,colour,0.5
158,21,1,1,1,48,48,72.06826964579523,72.84018283896148,"[97, 0, 157]",157,l,0.24857545923441648,colour,0.5
158,21,1,1,1,49,49,73.34950280888006,74.11991032911465,"[6, 0, 248]",248,a,0.2469425741583109,colour,0.5
158,21,1,1,1,50,50,74.63073912262917,75.40793497115374,"[59, 0, 195]",195,a,0.25320551195181906,colour,0.5
158,21,1,1,2,1,51,79.92791477474384,80.58427554392256,"[92, 0, 162]",162,l,0.13219556491822004,colour,0.5
158,21,1,1,2,2,52,81.10061778663658,81.86397034488618,"[90, 0, 164]",164,l,0.24002860905602574,colour,0.5
158,21,1,1,2,3,53,82.38181550358422,83.13607612880878,"[30, 0, 224]",224,a,0.23094061436131597,colour,0.5
158,21,1,1,2,4,54,83.6488820288796,84.42390384804457,"[27, 0, 227]",227,a,0.25161752523854375,colour,0.5
158,21,1,1,2,5,55,84.93021680414677,85.5359250495676,"[49, 0, 205]",205,a,0.08243785914964974,colour,0.5
158,21,1,1,2,6,56,86.0550624167081,86.80792055651546,"[96, 0, 158]",158,l,0.22976537817157805,colour,0.5
158,21,1,1,2,7,57,87.32310095359571,88.29619852034375,"[43, 0, 211]",211,a,0.449768103659153,colour,0.5
158,21,1,1,2,8,58,88.80609350535087,89.63995787408203,"[74, 0, 180]",180,l,0.3108046902343631,colour,0.5
158,21,1,1,2,9,59,90.15007026214153,90.97589347884059,"[89, 0, 165]",165,l,0.30243349517695606,colour,0.5
158,21,1,1,2,10,60,91.49380559124984,92.26405754243024,"[36, 0, 218]",218,a,0.246905158739537,colour,0.5
158,21,1,1,2,11,61,92.77504072361626,93.64793128473684,"[33, 0, 221]",221,a,0.34949571965262294,colour,0.5
158,21,1,1,2,12,62,94.16566734830849,94.92024698853493,"[8, 0, 246]",246,a,0.23132618935778737,colour,0.5
158,21,1,1,2,13,63,95.43137864978053,96.32788342470303,"[65, 0, 189]",189,l,0.3735553731676191,colour,0.5
158,21,1,1,2,14,64,96.83997055608779,97.6479427064769,"[50, 0, 204]",204,a,0.2849955733399838,colour,0.5
158,21,1,1,2,15,65,98.16803002986126,99.02401436120272,"[54, 0, 200]",200,a,0.3326458097435534,colour,0.5
158,21,1,1,2,16,66,99.54294692841358,100.3679950563237,"[29, 0, 225]",225,a,0.3025118703953922,colour,0.5
158,21,1,1,2,17,67,100.88670982676558,101.72790366830304,"[46, 0, 208]",208,a,0.3178324766922742,colour,0.5
158,21,1,1,2,18,68,102.24767433968373,103.03993282560259,"[88, 0, 166]",166,l,0.2694764684420079,colour,0.5
158,21,1,1,2,19,69,103.5603494043462,104.34412484266795,"[72, 0, 182]",182,l,0.2608673903159797,colour,0.5
158,21,1,1,2,20,70,104.85706386272795,105.79194734734483,"[55, 0, 199]",199,a,0.4115871044341475,colour,0.5
158,21,1,1,2,21,71,106.31021392135881,107.23999237501994,"[13, 0, 241]",241,a,0.4073245101608336,colour,0.5
158,21,1,1,2,22,72,107.74785353965126,108.65591651084833,"[98, 0, 156]",156,l,0.3850808802526444,colour,0.5
158,21,1,1,2,23,73,109.16967906267382,110.09590935870074,"[40, 0, 214]",214,a,0.4036735584959388,colour,0.5
158,21,1,1,2,24,74,110.60693113668822,111.66396908462048,"[71, 0, 183]",183,l,0.533889259910211,colour,0.5
158,21,1,1,2,25,75,112.1693852536846,113.42408226011321,"[61, 0, 193]",193,l,0.7312155186664313,colour,0.5
158,21,1,1,2,26,76,113.9364943143446,114.87989196018316,"[22, 0, 232]",232,a,0.42048959783278406,colour,0.5
158,21,1,1,2,27,77,115.38944469299167,116.46388511662371,"[84, 0, 170]",170,l,0.5511920927092433,colour,0.5
158,21,1,1,2,28,78,116.98332259431481,117.89598962455057,"[23, 0, 231]",231,a,0.3883265645708889,colour,0.5
158,21,1,1,2,29,79,118.40669356891885,119.32789130159654,"[67, 0, 187]",187,l,0.3983274938073009,colour,0.5
158,21,1,1,2,30,80,119.84436233178712,120.8800246862229,"[26, 0, 228]",228,a,0.5124675864353776,colour,0.5
158,21,1,1,2,31,81,121.39086568891071,122.40804879274219,"[7, 0, 247]",247,a,0.49400251428596675,colour,0.5
158,21,1,1,2,32,82,122.92229695664719,123.67990015214309,"[11, 0, 243]",243,a,0.23180431849323213,colour,0.5
158,21,1,1,2,33,83,124.1904154443182,124.80789338098839,"[76, 0, 178]",178,l,0.09413429512642324,colour,0.5
158,21,1,1,2,34,84,125.31542213982902,126.09596252790652,"[91, 0, 163]",163,l,0.25725503568537533,colour,0.5
158,21,1,1,2,35,85,126.61225750902668,127.46389338746667,"[60, 0, 194]",194,l,0.3283536769449711,colour,0.5
158,21,1,1,2,36,86,127.9718368658796,128.85597133426927,"[64, 0, 190]",190,a,0.36083021154627204,colour,0.5
158,21,1,1,2,37,87,129.36218189052306,130.27223732834682,"[75, 0, 179]",179,l,0.3860036612022668,colour,0.5
158,21,1,1,2,38,88,130.78397866291925,131.62390747130848,"[35, 0, 219]",219,a,0.31659895135089755,colour,0.5
158,21,1,1,2,39,89,132.14342765673064,132.7439064157661,"[51, 0, 203]",203,a,0.07679719757288694,colour,0.5
158,21,1,1,2,40,90,133.25286641041748,133.95199136366136,"[4, 0, 250]",250,a,0.1763196988031268,colour,0.5
158,21,1,1,2,41,91,134.47158756130375,135.25609988556243,"[19, 0, 235]",235,a,0.2614884856157005,colour,0.5
158,21,1,1,2,42,92,135.77004242502153,136.5201097726822,"[17, 0, 237]",237,a,0.22736016102135181,colour,0.5
158,21,1,1,2,43,93,137.0301626897417,137.7360031097196,"[93, 0, 161]",161,l,0.18268779362551868,colour,0.5
158,21,1,1,2,44,94,138.23938467074186,139.0878890804015,"[94, 0, 160]",160,l,0.32565031852573156,colour,0.5
158,21,1,1,2,45,95,139.59869896923192,140.36789541342296,"[37, 0, 217]",217,a,0.24643136211670935,colour,0.5
158,21,1,1,2,46,96,140.87977735092863,141.60799727775156,"[25, 0, 229]",229,a,0.2053406296763569,colour,0.5
158,21,1,1,2,47,97,142.1142361909151,142.8319231022615,"[5, 0, 249]",249,a,0.19468749104999006,colour,0.5
158,21,1,1,2,48,98,143.34923066128977,144.1039512983989,"[42, 0, 212]",212,a,0.2324447117280215,colour,0.5
158,21,1,1,2,49,99,144.61553509463556,146.53605777560733,"[12, 0, 242]",242,a,1.397036860929802,colour,0.5
158,21,1,1,2,50,100,147.05304907634854,147.799927059561,"[83, 0, 171]",171,l,0.22440198436379433,colour,0.5
158,21,1,1,3,1,101,152.02096717525274,152.66389346611686,"[44, 0, 210]",210,a,0.11896667419932783,colour,0.5
158,21,1,1,3,2,102,153.17963863839395,153.72793281287886,"[71, 0, 183]",183,l,0.02547592343762517,colour,0.5
158,21,1,1,3,3,103,154.24199468782172,155.35186549043283,"[27, 0, 227]",227,a,0.5865401581395417,colour,0.5
158,21,1,1,3,4,104,155.8670569153037,156.57585905655287,"[46, 0, 208]",208,a,0.18571016704663634,colour,0.5
158,21,1,1,3,5,105,157.08577373391017,157.83206724980846,"[29, 0, 225]",225,a,0.2228864652570337,colour,0.5
158,21,1,1,3,6,106,158.35271777305752,159.1121444751043,"[22, 0, 232]",232,a,0.23680340452119708,colour,0.5
158,21,1,1,3,7,107,159.61815259465948,160.23185000452213,"[48, 0, 206]",206,a,0.09103787853382528,colour,0.5
158,21,1,1,3,8,108,160.7432171853725,161.46396349207498,"[74, 0, 180]",180,l,0.19742353889159858,colour,0.5
158,21,1,1,3,9,109,161.9774728009943,162.8239032176789,"[34, 0, 220]",220,a,0.3232911811210215,colour,0.5
158,21,1,1,3,10,110,163.3369513330981,164.0879032588564,"[42, 0, 212]",212,a,0.22764766868203878,colour,0.5
158,21,1,1,3,11,111,164.60260710236616,165.32785940007307,"[30, 0, 224]",224,a,0.20192677294835448,colour,0.5
158,21,1,1,3,12,112,165.83699071779847,166.57583739515394,"[38, 0, 216]",216,a,0.21560189104638994,colour,0.5
158,21,1,1,3,13,113,167.08690682868473,168.65588815393858,"[51, 0, 203]",203,a,1.0456687975674868,colour,0.5
158,21,1,1,3,14,114,169.16644952609204,169.919867714867,"[0, 0, 254]",254,a,0.23021711921319366,colour,0.5
158,21,1,1,3,15,115,170.43204503692687,171.17589828372002,"[25, 0, 229]",229,a,0.2206509958487004,colour,0.5
158,21,1,1,3,16,116,171.69734949572012,172.43190364632756,"[60, 0, 194]",194,a,0.21116876136511564,colour,0.5
158,21,1,1,3,17,117,172.94742747722194,173.70839726761915,"[83, 0, 171]",171,l,0.23622445133514702,colour,0.5
158,21,1,1,3,18,118,174.33932740567252,174.9359039394185,"[53, 0, 201]",201,a,0.0734794398304075,colour,0.5
158,21,1,1,3,19,119,175.44872835022397,176.3838690163102,"[88, 0, 166]",166,l,0.41197110433131456,colour,0.5
158,21,1,1,3,20,120,176.90190834086388,177.7519408725202,"[33, 0, 221]",221,a,0.3272922618780285,colour,0.5
158,21,1,1,3,21,121,178.26108124875464,179.07981838961132,"[81, 0, 173]",173,l,0.2957967973779887,colour,0.5
158,21,1,1,3,22,122,179.58917301800102,180.37588772852905,"[49, 0, 205]",205,a,0.2620178144425154,colour,0.5
158,21,1,1,3,23,123,180.8876889278181,181.68797753797844,"[23, 0, 231]",231,a,0.2774687835481018,colour,0.5
158,21,1,1,3,24,124,182.19997605402023,183.04786370089278,"[95, 0, 159]",159,l,0.3255656415130943,colour,0.5
158,21,1,1,3,25,125,183.5594762477558,184.5039742991794,"[19, 0, 235]",235,a,0.4217723540496081,colour,0.5
158,21,1,1,3,26,126,185.01247546332888,185.78392352443188,"[94, 0, 160]",160,l,0.24865304678678513,colour,0.5
158,21,1,1,3,27,127,186.29539349931292,187.15988844702952,"[47, 0, 207]",207,a,0.3417727949563414,colour,0.5
158,21,1,1,3,28,128,187.6702001208905,188.4238609187305,"[72, 0, 182]",182,l,0.2301769470795989,colour,0.5
158,21,1,1,3,29,129,188.9361185852904,189.85594652197324,"[59, 0, 195]",195,a,0.39651580271311104,colour,0.5
158,21,1,1,3,30,130,190.3733131578192,191.360062999418,"[3, 0, 251]",251,a,0.4556206539273262,colour,0.5
158,21,1,1,3,31,131,191.88127239001915,192.8479530250188,"[87, 0, 167]",167,l,0.4440730914939195,colour,0.5
158,21,1,1,3,32,132,193.3654677469749,194.22393685230054,"[36, 0, 218]",218,a,0.3346406393684447,colour,0.5
158,21,1,1,3,33,133,194.7406733345706,195.6238976251334,"[57, 0, 197]",197,a,0.3599633565172553,colour,0.5
158,21,1,1,3,34,134,196.13121134391986,197.07985462341458,"[62, 0, 192]",192,a,0.425515859387815,colour,0.5
158,21,1,1,3,35,135,197.59980607009493,198.73598381131887,"[73, 0, 181]",181,l,0.6121858290862292,colour,0.5
158,21,1,1,3,36,136,199.24220303213224,200.13587526744232,"[61, 0, 193]",193,a,0.3701123723294586,colour,0.5
158,21,1,1,3,37,137,200.64876741962507,201.50390261923894,"[31, 0, 223]",223,a,0.33238232671283185,colour,0.5
158,21,1,1,3,38,138,202.0233975984156,202.96790628344752,"[1, 0, 253]",253,a,0.4210937572643161,colour,0.5
158,21,1,1,3,39,139,203.4765815276187,204.3358930691611,"[56, 0, 198]",198,a,0.33548110630363226,colour,0.5
158,21,1,1,3,40,140,204.84951738105156,205.60789172700606,"[26, 0, 228]",228,a,0.23518706113100052,colour,0.5
158,21,1,1,3,41,141,206.11519796261564,206.98388343094848,"[66, 0, 188]",188,l,0.34531189454719424,colour,0.5
158,21,1,1,3,42,142,207.49006169196218,208.5359530125279,"[90, 0, 164]",164,l,0.5225086882710457,colour,0.5
158,21,1,1,3,43,143,209.05546965333633,210.03185898414813,"[7, 0, 247]",247,a,0.4530957075767219,colour,0.5
158,21,1,1,3,44,144,210.53991037630476,211.34384560608305,"[16, 0, 238]",238,a,0.28069398808293045,colour,0.5
158,21,1,1,3,45,145,211.8523499208968,212.62386611755937,"[63, 0, 191]",191,l,0.24809890589676797,colour,0.5
158,21,1,1,3,46,146,213.13352558249608,214.05587019468658,"[75, 0, 179]",179,l,0.3989584350492805,colour,0.5
158,21,1,1,3,47,147,214.57100963173434,215.43186623090878,"[12, 0, 242]",242,a,0.33761614514514804,colour,0.5
158,21,1,1,3,48,148,215.94603444403037,216.7358487220481,"[77, 0, 177]",177,l,0.2640425763092935,colour,0.5
158,21,1,1,3,49,149,217.24530929489993,218.04782549780793,"[92, 0, 162]",162,l,0.279123330488801,colour,0.5
158,21,1,1,3,50,150,218.5579280394595,219.33582769078203,"[76, 0, 178]",178,l,0.2548762063961476,colour,0.5
158,21,1,1,4,1,151,223.93458061711863,224.6878448119387,"[86, 0, 168]",168,l,0.22941131051629782,colour,0.5
158,21,1,1,4,2,152,225.20110914879479,226.00778318289667,"[6, 0, 248]",248,a,0.28336505102925,colour,0.5
158,21,1,1,4,3,153,226.52913199504837,227.2638373824302,"[98, 0, 156]",156,l,0.21144721028394997,colour,0.5
158,21,1,1,4,4,154,227.77905992115848,228.53583800955676,"[88, 0, 166]",166,l,0.23348958510905504,colour,0.5
158,21,1,1,4,5,155,229.04466606583446,229.78383215214126,"[20, 0, 234]",234,a,0.215694444719702,colour,0.5
158,21,1,1,4,6,156,230.2946597642731,231.0558217514772,"[99, 0, 155]",155,l,0.23751862882636487,colour,0.5
158,21,1,1,4,7,157,231.57737418194301,232.35184501041658,"[79, 0, 175]",175,l,0.2513012667186558,colour,0.5
158,21,1,1,4,8,158,232.85859828651883,233.58382616587915,"[91, 0, 163]",163,l,0.20191771467216313,colour,0.5
158,21,1,1,4,9,159,234.09294645581394,234.8878224415239,"[26, 0, 228]",228,a,0.2714110396336764,colour,0.5
158,21,1,1,4,10,160,235.40548209892586,236.1598104655277,"[45, 0, 209]",209,a,0.2316243308596313,colour,0.5
158,21,1,1,4,11,161,236.67100317263976,237.43181700026616,"[3, 0, 251]",251,a,0.23756825365126133,colour,0.5
158,21,1,1,4,12,162,237.95230447128415,238.71184460096993,"[92, 0, 162]",162,l,0.23406814481131732,colour,0.5
158,21,1,1,4,13,163,239.22008818993345,239.95982968527824,"[27, 0, 227]",227,a,0.21644117683172226,colour,0.5
158,21,1,1,4,14,164,240.47006377135403,241.26381572103128,"[31, 0, 223]",223,a,0.27035907725803554,colour,0.5
158,21,1,1,4,15,165,241.78256042371504,242.51989788352512,"[89, 0, 165]",165,l,0.2140678612049669,colour,0.5
158,21,1,1,4,16,166,243.03263249760494,243.78380418918096,"[77, 0, 177]",177,l,0.22787688695825636,colour,0.5
158,21,1,1,4,17,167,244.29818783607334,244.97582179890014,"[12, 0, 242]",242,a,0.15427299193106592,colour,0.5
158,21,1,1,4,18,168,245.48571205767803,246.2878336268477,"[11, 0, 243]",243,a,0.2787696570158005,colour,0.5
158,21,1,1,4,19,169,246.79968287516385,247.5437673095148,"[76, 0, 178]",178,l,0.22071282961405814,colour,0.5
158,21,1,1,4,20,170,248.06534967198968,248.96777670807205,"[52, 0, 202]",202,a,0.3790991483256221,colour,0.5
158,21,1,1,4,21,171,249.48713620449416,250.2798424931243,"[41, 0, 213]",213,a,0.2694477178156376,colour,0.5
158,21,1,1,4,22,172,250.7997703088913,251.38381387782283,"[0, 0, 254]",254,a,0.0607727887108922,colour,0.5
158,21,1,1,4,23,173,251.89342135516927,252.98377394187264,"[30, 0, 224]",224,a,0.5655875550583005,colour,0.5
158,21,1,1,4,24,174,253.50419445894659,254.35180995822884,"[87, 0, 167]",167,l,0.3245278575923294,colour,0.5
158,21,1,1,4,25,175,254.86343983444385,255.71183121018112,"[70, 0, 184]",184,l,0.3249937773216516,colour,0.5
158,21,1,1,4,26,176,256.2343379291706,257.1438372565899,"[54, 0, 200]",200,a,0.38227236503735185,colour,0.5
158,21,1,1,4,27,177,257.66051466204226,258.495836654678,"[33, 0, 221]",221,a,0.31213707104325294,colour,0.5
158,21,1,1,4,28,178,259.00540199060924,259.7278493177146,"[84, 0, 170]",170,l,0.19924507616087794,colour,0.5
158,21,1,1,4,29,179,260.23976788297296,261.1118034045212,"[7, 0, 247]",247,a,0.3490750922355801,colour,0.5
158,21,1,1,4,30,180,261.6304484643042,262.33582572150044,"[57, 0, 197]",197,a,0.18285242118872702,colour,0.5
158,21,1,1,4,31,181,262.8490975413006,263.5677670983132,"[62, 0, 192]",192,a,0.1952428137883544,colour,0.5
158,21,1,1,4,32,182,264.0834709168412,264.7438103174791,"[38, 0, 216]",216,a,0.1372639681212604,colour,0.5
158,21,1,1,4,33,183,265.25536418147385,265.99983734148555,"[53, 0, 201]",201,a,0.2213205338921398,colour,0.5
158,21,1,1,4,34,184,266.5210203444585,267.2958590250928,"[43, 0, 211]",211,a,0.25155529752373695,colour,0.5
158,21,1,1,4,35,185,267.80330822686665,268.56781120900996,"[46, 0, 208]",208,a,0.24123259587213397,colour,0.5
158,21,1,1,4,36,186,269.0844878270291,269.8397689068224,"[56, 0, 198]",198,a,0.23189805378206074,colour,0.5
158,21,1,1,4,37,187,270.3501160268206,270.9438052761834,"[42, 0, 212]",212,a,0.07030307222157717,colour,0.5
158,21,1,1,4,38,188,271.4594590761699,272.2717970085796,"[37, 0, 217]",217,a,0.2889497862197459,colour,0.5
158,21,1,1,4,39,189,272.79259443632327,273.57577201677486,"[59, 0, 195]",195,a,0.2639236350078136,colour,0.5
158,21,1,1,4,40,190,274.0856996907387,275.263810207136,"[68, 0, 186]",186,l,0.6548149238806218,colour,0.5
158,21,1,1,4,41,191,275.7731419925112,276.743816225091,"[15, 0, 239]",239,a,0.44738888018764555,colour,0.5
158,21,1,1,4,42,192,277.25751379248686,278.06381761142984,"[22, 0, 232]",232,a,0.28293497138656676,colour,0.5
158,21,1,1,4,43,193,278.571303834673,279.4637795658782,"[55, 0, 199]",199,a,0.3687161882407963,colour,0.5
158,21,1,1,4,44,194,279.9781061052345,280.79985971190035,"[85, 0, 169]",169,l,0.29822052526287735,colour,0.5
158,21,1,1,4,45,195,281.30627231136896,282.11977917840704,"[18, 0, 236]",236,a,0.28997772419825196,colour,0.5
158,21,1,1,4,46,196,282.63686736510135,283.4557738599833,"[16, 0, 238]",238,a,0.2955423730891198,colour,0.5
158,21,1,1,4,47,197,283.96493471600115,284.4958134177141,"[25, 0, 229]",229,a,0.007433447754010558,colour,0.5
158,21,1,1,4,48,198,285.0276188389398,285.6957489058841,"[50, 0, 204]",204,a,0.1448880375828594,colour,0.5
158,21,1,1,4,49,199,286.2149563776329,286.9841268276796,"[96, 0, 158]",158,l,0.24565075943246484,colour,0.5
158,21,1,1,4,50,200,287.49682126939297,288.28777415608056,"[13, 0, 241]",241,a,0.26862733671441674,colour,0.5
158,21,1,1,5,1,201,298.6093914923258,299.3918357314542,"[28, 0, 226]",226,a,0.2583038473967463,colour,0.4
158,21,1,1,5,2,202,299.90713900863193,300.68779479363,"[73, 0, 181]",181,l,0.25681274686940014,colour,0.4
158,21,1,1,5,3,203,301.20532211870886,301.9837751232553,"[68, 0, 186]",186,l,0.25543625513091683,colour,0.4
158,21,1,1,5,4,204,302.50207556784153,303.2561613256112,"[81, 0, 173]",173,l,0.230682251509279,colour,0.4
158,21,1,1,5,5,205,303.76783767552115,304.5281142971944,"[90, 0, 164]",164,l,0.2369581861421466,colour,0.4
158,21,1,1,5,6,206,305.04899167548865,305.7437949574087,"[14, 0, 240]",240,a,0.1714230126235634,colour,0.4
158,21,1,1,5,7,207,306.2521051063668,306.99978180928156,"[91, 0, 163]",163,l,0.22429879661649466,colour,0.4
158,21,1,1,5,8,208,307.5178750909399,308.27178204245865,"[17, 0, 237]",237,a,0.23105246666818857,colour,0.4
158,21,1,1,5,9,209,308.78472578851506,309.51996838185005,"[62, 0, 192]",192,l,0.21194424387067556,colour,0.4
158,21,1,1,5,10,210,310.0346671056468,310.79978527501225,"[63, 0, 191]",191,l,0.2417733462061733,colour,0.4
158,21,1,1,5,11,211,311.31597825023346,311.91981690889224,"[88, 0, 166]",166,l,0.08060253714211285,colour,0.4
158,21,1,1,5,12,212,312.42685217852704,313.00777845690027,"[30, 0, 224]",224,a,0.05753419385291636,colour,0.4
158,21,1,1,5,13,213,313.5204780185595,314.7277705485467,"[25, 0, 229]",229,a,0.6839717314578593,colour,0.4
158,21,1,1,5,14,214,315.2392543077003,316.0078745551873,"[89, 0, 165]",165,l,0.24519507959485054,colour,0.4
158,21,1,1,5,15,215,316.52050598175265,317.2877678545192,"[97, 0, 157]",157,l,0.24399503134191036,colour,0.4
158,21,1,1,5,16,216,317.80175214167684,318.5277365988586,"[96, 0, 158]",158,l,0.2004730876069516,colour,0.4
158,21,1,1,5,17,217,319.0383137250319,319.9280608915724,"[12, 0, 242]",242,a,0.36658823885954916,colour,0.4
158,21,1,1,5,18,218,320.444631958846,321.255794655066,"[85, 0, 169]",169,l,0.28779069776646793,colour,0.4
158,21,1,1,5,19,219,321.77274578344077,323.0237540290691,"[51, 0, 203]",203,a,0.7276649980340153,colour,0.4
158,21,1,1,5,20,220,323.5405456498265,324.1837625990156,"[15, 0, 239]",239,a,0.13174461130984128,colour,0.4
158,21,1,1,5,21,221,324.69538814295083,325.5037647730205,"[35, 0, 219]",219,a,0.2850448037497699,colour,0.4
158,21,1,1,5,22,222,326.02348897070624,327.1837960758712,"[1, 0, 253]",253,a,0.6369859129190445,colour,0.4
158,21,1,1,5,23,223,327.6952979522757,328.4717628227081,"[79, 0, 175]",175,l,0.253098385874182,colour,0.4
158,21,1,1,5,24,224,328.992144349264,329.91178481513634,"[47, 0, 207]",207,a,0.3962015137076378,colour,0.4
158,21,1,1,5,25,225,330.4309895299375,331.22374820010737,"[56, 0, 198]",198,a,0.2693445300683379,colour,0.4
158,21,1,1,5,26,226,331.7435838559177,332.48780849948525,"[77, 0, 177]",177,l,0.2209700110834092,colour,0.4
158,21,1,1,5,27,227,332.99356455751695,333.73584242048673,"[43, 0, 211]",211,a,0.21930246730335057,colour,0.4
158,21,1,1,5,28,228,334.2430285331793,334.983777880203,"[72, 0, 182]",182,l,0.21733638853766024,colour,0.4
158,21,1,1,5,29,229,335.49300450854935,336.25577220576815,"[66, 0, 188]",188,l,0.23935395083390176,colour,0.4
158,21,1,1,5,30,230,336.7743302255403,337.5597881737631,"[92, 0, 162]",162,l,0.2620418390724808,colour,0.4
158,21,1,1,5,31,231,338.07117741019465,338.767762450967,"[55, 0, 199]",199,a,0.17327566375024617,colour,0.4
158,21,1,1,5,32,232,339.27434479794465,340.06381209753454,"[75, 0, 179]",179,l,0.2662099103908986,colour,0.4
158,21,1,1,5,33,233,340.5772926558275,341.3197867402341,"[57, 0, 197]",197,l,0.21914650429971516,colour,0.4
158,21,1,1,5,34,234,341.8273186495062,342.3997721206397,"[29, 0, 225]",225,a,0.05290374718606472,colour,0.4
158,21,1,1,5,35,235,342.917266756529,343.46377444593236,"[95, 0, 159]",159,l,0.02312230016104877,colour,0.4
158,21,1,1,5,36,236,343.97979097790085,344.5120575928595,"[33, 0, 221]",221,a,0.008891859324648976,colour,0.4
158,21,1,1,5,37,237,345.02673780568875,345.79179414128885,"[39, 0, 215]",215,a,0.23678174312226474,colour,0.4
158,21,1,1,5,38,238,346.313019285677,347.0557559793815,"[44, 0, 210]",210,a,0.2194777289405465,colour,0.4
158,21,1,1,5,39,239,347.56292515667155,348.9677262958139,"[16, 0, 238]",238,a,0.8815689559560269,colour,0.4
158,21,1,1,5,40,240,349.4847825812176,350.23974897828884,"[83, 0, 171]",171,l,0.2316554447170347,colour,0.4
158,21,1,1,5,41,241,350.75039542117156,351.49574961466715,"[50, 0, 204]",204,a,0.2210208170581609,colour,0.4
158,21,1,1,5,42,242,352.01697948528454,352.9037633552216,"[58, 0, 196]",196,l,0.3633728807326406,colour,0.4
158,21,1,1,5,43,243,353.4232406113297,353.98375503718853,"[52, 0, 202]",202,a,0.03715818119235337,colour,0.4
158,21,1,1,5,44,244,354.50136428209953,355.25583758414723,"[9, 0, 245]",245,a,0.23114344500936568,colour,0.4
158,21,1,1,5,45,245,355.76701532513835,356.50393806537613,"[7, 0, 247]",247,a,0.21372797223739326,colour,0.4
158,21,1,1,5,46,246,357.0168825990986,357.88774406630546,"[64, 0, 190]",190,l,0.3477856407407671,colour,0.4
158,21,1,1,5,47,247,358.40755924233235,359.2157783340663,"[38, 0, 216]",216,a,0.28484276100061834,colour,0.4
158,21,1,1,5,48,248,359.7357289928477,360.49575079628266,"[74, 0, 180]",180,l,0.23549544252455235,colour,0.4
158,21,1,1,5,49,249,361.002578509273,361.7997313181404,"[87, 0, 167]",167,l,0.2738682443741709,colour,0.4
158,21,1,1,5,50,250,362.3150920968037,362.97578123258427,"[2, 0, 252]",252,a,0.13742229412309825,colour,0.4
158,21,1,1,6,1,251,367.6267742756754,368.5037998254411,"[81, 0, 173]",173,l,0.3536318896804005,colour,0.28
158,21,1,1,6,2,252,369.0199321480468,369.78371517988853,"[78, 0, 176]",176,l,0.24044096563011408,colour,0.28
158,21,1,1,6,3,253,370.3011369542219,371.09571755561046,"[20, 0, 234]",234,a,0.27118221507407725,colour,0.28
158,21,1,1,6,4,254,371.6136934712995,372.38375952700153,"[2, 0, 252]",252,a,0.24672280810773373,colour,0.28
158,21,1,1,6,5,255,372.89484628965147,373.6078019300476,"[16, 0, 238]",238,a,0.18949266336858273,colour,0.28
158,21,1,1,6,6,256,374.1292610189412,374.8717373802792,"[87, 0, 167]",167,l,0.21917564887553453,colour,0.28
158,21,1,1,6,7,257,375.3806146674324,376.1357441167347,"[65, 0, 189]",189,l,0.23177556786686182,colour,0.28
158,21,1,1,6,8,258,376.6462286890019,377.65575897251256,"[51, 0, 203]",203,a,0.4861216575372964,colour,0.28
158,21,1,1,6,9,259,378.16184389195405,378.91974129038863,"[6, 0, 248]",248,a,0.2348231473006308,colour,0.28
158,21,1,1,6,10,260,379.4274531872943,380.1757501976099,"[89, 0, 165]",165,l,0.2249541562050581,colour,0.28
158,21,1,1,6,11,261,380.69311328884214,381.4636925258674,"[50, 0, 204]",204,a,0.24712689383886755,colour,0.28
158,21,1,1,6,12,262,381.97437953506596,382.74376226821914,"[1, 0, 253]",253,a,0.24609423009678721,colour,0.28
158,21,1,1,6,13,263,383.2557225811761,384.0238221643958,"[53, 0, 201]",201,a,0.24495325842872262,colour,0.28
158,21,1,1,6,14,264,384.538241651142,385.2717828301247,"[80, 0, 174]",174,l,0.20995335280895233,colour,0.28
158,21,1,1,6,15,265,385.7881105004344,386.5357497879304,"[14, 0, 240]",240,a,0.22444609506055713,colour,0.28
158,21,1,1,6,16,266,387.05386866955087,387.77581305545755,"[92, 0, 162]",162,l,0.19872795650735497,colour,0.28
158,21,1,1,6,17,267,388.28821959579363,389.06377547001466,"[71, 0, 183]",183,l,0.2523993095383048,colour,0.28
158,21,1,1,6,18,268,389.5850848972332,390.3357308045961,"[84, 0, 170]",170,l,0.22532515903003514,colour,0.28
158,21,1,1,6,19,269,390.8527595207561,391.5996942180209,"[52, 0, 202]",202,a,0.22367533878423274,colour,0.28
158,21,1,1,6,20,270,392.1183810252696,392.84773247130215,"[59, 0, 195]",195,a,0.20591564429923892,colour,0.28
158,21,1,1,6,21,271,393.3674716351088,394.1197433383204,"[67, 0, 187]",187,l,0.22894302778877318,colour,0.28
158,21,1,1,6,22,272,394.6330659643281,395.59170859795995,"[25, 0, 229]",229,a,0.4360362715087831,colour,0.28
158,21,1,1,6,23,273,396.10183555819094,396.8637092250865,"[75, 0, 179]",179,l,0.2385229361243546,colour,0.28
158,21,1,1,6,24,274,397.38310653041117,398.3197197865229,"[56, 0, 198]",198,l,0.4132893066853285,colour,0.28
158,21,1,1,6,25,275,398.8361754566431,399.6877424120903,"[86, 0, 168]",168,l,0.3267755361739546,colour,0.28
158,21,1,1,6,26,276,400.197103735758,400.99173159874044,"[73, 0, 181]",181,l,0.271278707543388,colour,0.28
158,21,1,1,6,27,277,401.5096397725865,402.31173377274536,"[5, 0, 249]",249,a,0.27876768773421645,colour,0.28
158,21,1,1,6,28,278,402.82153423456475,404.07174100377597,"[64, 0, 190]",190,l,0.7269848259165883,colour,0.28
158,21,1,1,6,29,279,404.5870513699483,405.3596947535407,"[95, 0, 159]",159,l,0.2468492325861007,colour,0.28
158,21,1,1,6,30,280,405.87073622387834,406.7677025864832,"[60, 0, 194]",194,a,0.3736798285972327,colour,0.28
158,21,1,1,6,31,281,407.27701113466173,408.1357488427311,"[97, 0, 157]",157,l,0.33472964842803776,colour,0.28
158,21,1,1,6,32,282,408.6571531870868,409.447768547805,"[96, 0, 158]",158,l,0.2673764822538942,colour,0.28
158,21,1,1,6,33,283,409.9539810733404,410.6721051535569,"[34, 0, 220]",220,a,0.19487614324316382,colour,0.28
158,21,1,1,6,34,284,411.18832530407235,411.89572614151984,"[69, 0, 185]",185,l,0.18424506043083966,colour,0.28
158,21,1,1,6,35,285,412.4070299132727,413.1598990808707,"[91, 0, 163]",163,l,0.22954915673471987,colour,0.28
158,21,1,1,6,36,286,413.6744276629761,414.4237411895301,"[61, 0, 193]",193,a,0.22597815562039614,colour,0.28
158,21,1,1,6,37,287,414.94002238614485,415.7117823732551,"[70, 0, 184]",184,l,0.24831827799789608,colour,0.28
158,21,1,1,6,38,288,416.22129296464846,417.00773277063854,"[72, 0, 182]",182,l,0.2632088044192642,colour,0.28
158,21,1,1,6,39,289,417.5195473607164,418.2717540792655,"[23, 0, 231]",231,a,0.22884692926891148,colour,0.28
158,21,1,1,6,40,290,418.78512672381476,419.5517485970631,"[98, 0, 156]",156,l,0.24318410246632993,colour,0.28
158,21,1,1,6,41,291,420.0664890683256,420.86373640038073,"[94, 0, 160]",160,l,0.27388281654566526,colour,0.28
158,21,1,1,6,42,292,421.3790278621018,422.1516862118151,"[90, 0, 164]",164,l,0.24940726184286177,colour,0.28
158,21,1,1,6,43,293,422.6603082867805,423.46368622453883,"[17, 0, 237]",237,a,0.2778106420300901,colour,0.28
158,21,1,1,6,44,294,423.9751550175715,424.8557141527999,"[43, 0, 211]",211,a,0.35727614583447576,colour,0.28
158,21,1,1,6,45,295,425.36574698379263,426.1837279405445,"[99, 0, 155]",155,l,0.294700724305585,colour,0.28
158,21,1,1,6,46,296,426.6938608083874,427.4877667517867,"[7, 0, 247]",247,a,0.2710026213899255,colour,0.28
158,21,1,1,6,47,297,428.00630153459497,428.7596960926894,"[10, 0, 244]",244,a,0.22996545187197626,colour,0.28
158,21,1,1,6,48,298,429.27195769781247,430.00772174308077,"[83, 0, 171]",171,l,0.21272602817043662,colour,0.28
158,21,1,1,6,49,299,430.52199786994606,431.2397028983105,"[77, 0, 177]",177,l,0.19464495568536222,colour,0.28
158,21,1,1,6,50,300,431.7562727839686,432.53572024963796,"[68, 0, 186]",186,l,0.25600299960933626,colour,0.28
158,21,1,1,7,1,301,438.96324511710554,439.5757172720041,"[65, 0, 189]",189,l,0.08837587386369705,colour,0.14
158,21,1,1,7,2,302,440.0889441934414,440.7437449391,"[81, 0, 173]",173,l,0.13161582383327186,colour,0.14
158,21,1,1,7,3,303,441.26074017817155,442.0077229246963,"[71, 0, 183]",183,l,0.22373087098821998,colour,0.14
158,21,1,1,7,4,304,442.5262305322103,443.31171486806124,"[61, 0, 193]",193,a,0.2620701959822327,colour,0.14
158,21,1,1,7,5,305,443.8243376298342,444.51169604226016,"[78, 0, 176]",176,l,0.16400650003924966,colour,0.14
158,21,1,1,7,6,306,445.02741994685493,445.6876935751643,"[55, 0, 199]",199,a,0.13691186998039484,colour,0.14
158,21,1,1,7,7,307,446.1996278942097,446.88770940783434,"[48, 0, 206]",206,a,0.16500647482462227,colour,0.14
158,21,1,1,7,8,308,447.40241679595783,448.1517157503404,"[86, 0, 168]",168,l,0.22621170640923083,colour,0.14
158,21,1,1,7,9,309,448.6680993468035,449.32767114182934,"[90, 0, 164]",164,l,0.13618916273117065,colour,0.14
158,21,1,1,7,10,310,449.8400453866925,450.47170650283806,"[72, 0, 182]",182,l,0.10853369603864849,colour,0.14
158,21,1,1,7,11,311,450.9805869406555,451.70371286408044,"[95, 0, 159]",159,l,0.200632595224306,colour,0.14
158,21,1,1,7,12,312,452.21491029765457,452.9276583811734,"[87, 0, 167]",167,l,0.18971085408702493,colour,0.14
158,21,1,1,7,13,313,453.43595789629035,454.0156876705587,"[92, 0, 162]",162,l,0.05625576968304813,colour,0.14
158,21,1,1,7,14,314,454.52974166860804,455.1757080561947,"[52, 0, 202]",202,a,0.12251877086237073,colour,0.14
158,21,1,1,7,15,315,455.6860153977759,456.3917368762195,"[59, 0, 195]",195,a,0.18238492612726986,colour,0.14
158,21,1,1,7,16,316,456.90480625932105,457.66370323859155,"[54, 0, 200]",200,a,0.23566164541989565,colour,0.14
158,21,1,1,7,17,317,458.17035844689235,458.7676872264128,"[98, 0, 156]",156,l,0.07405091007240117,colour,0.14
158,21,1,1,7,18,318,459.2814797104802,459.8477328652516,"[37, 0, 217]",217,a,0.042928023962303996,colour,0.14
158,21,1,1,7,19,319,460.35965182445943,460.9997120986227,"[60, 0, 194]",194,a,0.1166425896808505,colour,0.14
158,21,1,1,7,20,320,461.5158908951562,463.03973590256646,"[75, 0, 179]",179,l,1.0008644917979836,colour,0.14
158,21,1,1,7,21,321,463.5471350857988,464.29568848991767,"[82, 0, 172]",172,l,0.225145565578714,colour,0.14
158,21,1,1,7,22,322,464.8127601351589,465.8796934618149,"[5, 0, 249]",249,a,0.5419717659242451,colour,0.14
158,21,1,1,7,23,323,466.3923713620752,467.1836503529921,"[6, 0, 248]",248,a,0.26861276431009173,colour,0.14
158,21,1,1,7,24,324,467.70487431576476,468.43969234311953,"[15, 0, 239]",239,a,0.21160553651861846,colour,0.14
158,21,1,1,7,25,325,468.9549633250572,469.70375264273025,"[91, 0, 163]",163,l,0.22567056212574244,colour,0.14
158,21,1,1,7,26,326,470.22054386953823,470.9357259210665,"[58, 0, 196]",196,a,0.19184471131302416,colour,0.14
158,21,1,1,7,27,327,471.4564075579401,472.239677692065,"[31, 0, 223]",223,a,0.2600017171353102,colour,0.14
158,21,1,1,7,28,328,472.753176367376,473.5437318633776,"[50, 0, 204]",204,a,0.2672126421239227,colour,0.14
158,21,1,1,7,29,329,474.05010744114406,474.7997155643534,"[63, 0, 191]",191,a,0.22629914013668895,colour,0.14
158,21,1,1,7,30,330,475.31584158563055,476.0716626283247,"[97, 0, 157]",157,l,0.24974360619671643,colour,0.14
158,21,1,1,7,31,331,476.57980539277196,477.3276628709864,"[89, 0, 165]",165,l,0.2367967094760388,colour,0.14
158,21,1,1,7,32,332,477.84872811380774,478.8397165252827,"[74, 0, 180]",180,l,0.46762428991496563,colour,0.14
158,21,1,1,7,33,333,479.34873480931856,480.10368742165156,"[96, 0, 158]",158,l,0.23159085377119482,colour,0.14
158,21,1,1,7,34,334,480.6143527692184,481.35968096903525,"[85, 0, 169]",169,l,0.2219514751341194,colour,0.14
158,21,1,1,7,35,335,481.879994753981,482.64763550646603,"[68, 0, 186]",186,l,0.24429750489071012,colour,0.14
158,21,1,1,7,36,336,483.16115466156043,483.9036487459671,"[66, 0, 188]",188,a,0.219060645904392,colour,0.14
158,21,1,1,7,37,337,484.4112098000478,485.18366846977733,"[22, 0, 232]",232,a,0.2490910035558045,colour,0.14
158,21,1,1,7,38,338,485.6924268153962,486.45563089381903,"[99, 0, 155]",155,l,0.23979663383215666,colour,0.14
158,21,1,1,7,39,339,486.9738253939431,487.79170079994947,"[64, 0, 190]",190,a,0.2946581889409572,colour,0.14
158,21,1,1,7,40,340,488.3018663569819,489.06371521158144,"[80, 0, 174]",174,l,0.23628274048678577,colour,0.14
158,21,1,1,7,41,341,489.5852329833433,490.5036706440151,"[53, 0, 201]",201,a,0.3948978837579489,colour,0.14
158,21,1,1,7,42,342,491.0228639370762,491.84769111755304,"[56, 0, 198]",198,a,0.3015406464692205,colour,0.14
158,21,1,1,7,43,343,492.3665791803505,493.09566084179096,"[94, 0, 160]",160,l,0.20572502305731177,colour,0.14
158,21,1,1,7,44,344,493.6165835126303,494.87167436489835,"[76, 0, 178]",178,l,0.7324829148128629,colour,0.14
158,21,1,1,7,45,345,495.38356181629933,497.22368360939436,"[69, 0, 185]",185,l,1.3167848468292505,colour,0.14
158,21,1,1,7,46,346,497.7428883241955,498.551989630796,"[73, 0, 181]",181,l,0.28637088323011994,colour,0.14
158,21,1,1,7,47,347,499.0708012874238,499.7756279478781,"[77, 0, 177]",177,l,0.18156100041233003,colour,0.14
158,21,1,1,7,48,348,500.2894747827668,501.05565436696634,"[88, 0, 166]",166,l,0.24279734562151134,colour,0.14
158,21,1,1,7,49,349,501.57307220296934,502.34370342758484,"[83, 0, 171]",171,l,0.24725646921433508,colour,0.14
158,21,1,1,7,50,350,502.8543226951733,503.6076581762172,"[84, 0, 170]",170,l,0.23009542096406221,colour,0.14
158,21,1,1,8,1,351,508.0858383246232,509.0157231166959,"[64, 0, 190]",190,l,0.4049834900069982,colour,0.06
158,21,1,1,8,2,352,509.52499385597184,510.29571251454763,"[85, 0, 169]",169,l,0.24769403226673603,colour,0.06
158,21,1,1,8,3,353,510.80689813243225,511.6397306250874,"[68, 0, 186]",186,l,0.309556198772043,colour,0.06
158,21,1,1,8,4,354,512.150560993934,512.9197255366016,"[90, 0, 164]",164,l,0.24584965175017715,colour,0.06
158,21,1,1,8,5,355,513.4331348086707,514.2479764195159,"[97, 0, 157]",157,l,0.29159603687003255,colour,0.06
158,21,1,1,8,6,356,514.7619721281808,515.5116684730165,"[78, 0, 176]",176,l,0.2270415397360921,colour,0.06
158,21,1,1,8,7,357,516.0268402055372,516.7996308875736,"[65, 0, 189]",189,a,0.2493781172670424,colour,0.06
158,21,1,1,8,8,358,517.3080505256075,518.1036377970595,"[91, 0, 163]",163,l,0.27220503287389874,colour,0.06
158,21,1,1,8,9,359,518.6205326055642,519.4476405477617,"[49, 0, 205]",205,a,0.301277163438499,colour,0.06
158,21,1,1,8,10,360,519.9667893364094,520.8157324902713,"[42, 0, 212]",212,a,0.3256593768019229,colour,0.06
158,21,1,1,8,11,361,521.3260733087081,522.2396985660307,"[56, 0, 198]",198,a,0.39028949243947864,colour,0.06
158,21,1,1,8,12,362,522.7480768503156,523.5359274125658,"[86, 0, 168]",168,l,0.2646081391721964,colour,0.06
158,21,1,1,8,13,363,524.0448484164663,524.8316537116189,"[70, 0, 184]",184,l,0.26406975160352886,colour,0.06
158,21,1,1,8,14,364,525.3434541232418,526.1196271539666,"[66, 0, 188]",188,l,0.25273919850587845,colour,0.06
158,21,1,1,8,15,365,526.6403339970857,527.4558207276277,"[54, 0, 200]",200,a,0.29216041835024953,colour,0.06
158,21,1,1,8,16,366,527.9684675140306,528.7356710976455,"[79, 0, 175]",175,l,0.24391586822457612,colour,0.06
158,21,1,1,8,17,367,529.2497262770776,530.1920085512102,"[76, 0, 178]",178,l,0.41893390635959804,colour,0.06
158,21,1,1,8,18,368,530.7028976031579,531.4236632080283,"[89, 0, 165]",165,l,0.19755075103603303,colour,0.06
158,21,1,1,8,19,369,531.9372402585577,532.6718081939034,"[95, 0, 159]",159,l,0.21164767816662788,colour,0.06
158,21,1,1,8,20,370,533.1870961110108,533.9356818101369,"[55, 0, 199]",199,a,0.2235690001398325,colour,0.06
158,21,1,1,8,21,371,534.4543631037232,535.1917978434358,"[51, 0, 203]",203,a,0.21443531941622496,colour,0.06
158,21,1,1,8,22,372,535.7043729498982,536.3276679909322,"[52, 0, 202]",202,a,0.10021133767440915,colour,0.06
158,21,1,1,8,23,373,536.8449026884045,537.5916432195809,"[93, 0, 161]",161,l,0.2235961756668985,colour,0.06
158,21,1,1,8,24,374,538.1104509376455,538.9276335688774,"[60, 0, 194]",194,a,0.29375431267544627,colour,0.06
158,21,1,1,8,25,375,539.4387140299659,540.119616913842,"[82, 0, 172]",172,l,0.1578758943360299,colour,0.06
158,21,1,1,8,26,376,540.6285686378833,541.3916809500661,"[58, 0, 196]",196,a,0.23974228301085532,colour,0.06
158,21,1,1,8,27,377,541.9097439055331,542.6796536045149,"[77, 0, 177]",177,l,0.2464620820246637,colour,0.06
158,21,1,1,8,28,378,543.1911464224104,543.9516747114249,"[50, 0, 204]",204,a,0.240563451545313,colour,0.06
158,21,1,1,8,29,379,544.4691059382167,545.2796562039293,"[63, 0, 191]",191,a,0.2871136765461415,colour,0.06
158,21,1,1,8,30,380,545.7973335841671,546.455637589097,"[61, 0, 193]",193,a,0.1457982154097408,colour,0.06
158,21,1,1,8,31,381,546.9739262184594,547.7436894066632,"[94, 0, 160]",160,l,0.2463549559470266,colour,0.06
158,21,1,1,8,32,382,548.2552850183565,548.855651137419,"[83, 0, 171]",171,l,0.0773296772968024,colour,0.06
158,21,1,1,8,33,383,549.3645634767599,550.0879304341506,"[84, 0, 170]",170,l,0.19995242333970964,colour,0.06
158,21,1,1,8,34,384,550.5989482738078,551.2877032638062,"[62, 0, 192]",192,a,0.16541174240410328,colour,0.06
158,21,1,1,8,35,385,551.8020298029296,552.5916235272307,"[31, 0, 223]",223,a,0.266222907230258,colour,0.06
158,21,1,1,8,36,386,553.0989163722843,553.8556759497151,"[80, 0, 174]",174,l,0.23336591734550893,colour,0.06
158,21,1,1,8,37,387,554.364507944556,555.135594061343,"[73, 0, 181]",181,a,0.2476526782847941,colour,0.06
158,21,1,1,8,38,388,555.64712547604,556.3996500284411,"[57, 0, 197]",197,a,0.22910568630322814,colour,0.06
158,21,1,1,8,39,389,556.9127454052214,557.6716506553348,"[69, 0, 185]",185,a,0.23554388526827097,colour,0.06
158,21,1,1,8,40,390,558.1783373714425,558.9916504663415,"[53, 0, 201]",201,a,0.28990998258814216,colour,0.06
158,21,1,1,8,41,391,559.5065173623152,560.1437175273895,"[59, 0, 195]",195,a,0.11385652353055775,colour,0.06
158,21,1,1,8,42,392,560.6627851836383,561.3916596823838,"[87, 0, 167]",167,l,0.20330523373559117,colour,0.06
158,21,1,1,8,43,393,561.899324711645,562.8876463924535,"[72, 0, 182]",182,l,0.46498197759501636,colour,0.06
158,21,1,1,8,44,394,563.399269179441,564.1676357900724,"[67, 0, 187]",187,l,0.24595047626644373,colour,0.06
158,21,1,1,8,45,395,564.6805019485764,565.4396202694625,"[71, 0, 183]",183,l,0.23575341142714024,colour,0.06
158,21,1,1,8,46,396,565.9461844994221,566.8076133567374,"[98, 0, 156]",156,l,0.33809584961272776,colour,0.06
158,21,1,1,8,47,397,567.3211569301784,567.8636198220775,"[88, 0, 166]",166,l,0.019341379404067993,colour,0.06
158,21,1,1,8,48,398,568.3837099024095,569.0076866906602,"[99, 0, 155]",155,l,0.09946657507680357,colour,0.06
158,21,1,1,8,49,399,569.5263128459919,570.0796391898766,"[74, 0, 180]",180,l,0.030785754323005676,colour,0.06
158,21,1,1,8,50,400,570.5884893015027,571.1276151367929,"[75, 0, 179]",179,l,0.015991325955837965,colour,0.06
158,21,1,1,9,1,401,577.3077957073692,579.2156389125157,"[97, 0, 157]",157,l,1.3836961179040372,colour,0.06
158,21,1,1,9,2,402,579.7304262514226,580.3676630442496,"[76, 0, 178]",178,l,0.11396916350349784,colour,0.06
158,21,1,1,9,3,403,580.8866645344533,581.6155969286337,"[95, 0, 159]",159,l,0.2054828079417348,colour,0.06
158,21,1,1,9,4,404,582.1366582331248,582.9116477568168,"[57, 0, 197]",197,a,0.25163879292085767,colour,0.06
158,21,1,1,9,5,405,583.4179126638919,584.2635861088056,"[59, 0, 195]",195,a,0.322311686584726,colour,0.06
158,21,1,1,9,6,406,584.7772112083621,585.4716332473326,"[50, 0, 204]",204,a,0.16897210921160877,colour,0.06
158,21,1,1,9,7,407,585.9825065457262,586.7119493638165,"[70, 0, 184]",184,l,0.2060842104256153,colour,0.06
158,21,1,1,9,8,408,587.2324888226576,588.0557709455024,"[63, 0, 191]",191,a,0.30106015456840396,colour,0.06
158,21,1,1,9,9,409,588.5762146995403,589.3275911910459,"[4, 0, 250]",250,a,0.2280131576117128,colour,0.06
158,21,1,1,9,10,410,589.8418023334816,590.5596144876909,"[86, 0, 168]",168,l,0.19448150973767042,colour,0.06
158,21,1,1,9,11,411,591.076184373349,591.8395908884704,"[79, 0, 175]",175,l,0.23993881209753454,colour,0.06
158,21,1,1,9,12,412,592.3575100903399,593.0636230516247,"[58, 0, 196]",196,a,0.18286187364719808,colour,0.06
158,21,1,1,9,13,413,593.5762540840078,594.3196248696186,"[98, 0, 156]",156,l,0.21909254766069353,colour,0.06
158,21,1,1,9,14,414,594.8271122742444,595.575611327542,"[81, 0, 173]",173,l,0.22527947300113738,colour,0.06
158,21,1,1,9,15,415,596.0927605605684,596.7518219312187,"[85, 0, 169]",169,l,0.13572599994949996,colour,0.06
158,21,1,1,9,16,416,597.2646361021325,598.0323256915435,"[89, 0, 165]",165,l,0.2443892708979547,colour,0.06
158,21,1,1,9,17,417,598.5458688712679,599.2796203638427,"[82, 0, 172]",172,l,0.21047204779461026,colour,0.06
158,21,1,1,9,18,418,599.7958917142823,600.9675793913193,"[64, 0, 190]",190,a,0.6466717657167464,colour,0.06
158,21,1,1,9,19,419,601.4849149135407,602.0875586436596,"[78, 0, 176]",176,l,0.07921738107688725,colour,0.06
158,21,1,1,9,20,420,602.5942930150777,603.4476342462003,"[74, 0, 180]",180,l,0.33002870343625546,colour,0.06
158,21,1,1,9,21,421,603.9692343319766,604.7036415780894,"[65, 0, 189]",189,a,0.21097065694630146,colour,0.06
158,21,1,1,9,22,422,605.2192784426734,605.9675778159872,"[80, 0, 174]",174,l,0.22575169429183006,colour,0.06
158,21,1,1,9,23,423,606.4863067648839,607.1835924575571,"[53, 0, 201]",201,a,0.17395662330091,colour,0.06
158,21,1,1,9,24,424,607.7050326417666,608.4076218637638,"[75, 0, 179]",179,l,0.1794133586809039,colour,0.06
158,21,1,1,9,25,425,608.9237589125987,609.66365322005,"[54, 0, 200]",200,a,0.2165144318714738,colour,0.06
158,21,1,1,9,26,426,610.1738049925771,610.8876365462784,"[83, 0, 171]",171,l,0.19060409651137888,colour,0.06
158,21,1,1,9,27,427,611.4034368570428,612.1676661162637,"[73, 0, 181]",181,l,0.24101086077280343,colour,0.06
158,21,1,1,9,28,428,612.6743201431818,613.5035843916703,"[8, 0, 246]",246,a,0.3059233638923615,colour,0.06
158,21,1,1,9,29,429,614.0180818599183,614.5995796087664,"[93, 0, 161]",161,l,0.05812259949743748,colour,0.06
158,21,1,1,9,30,430,615.1118057677522,616.11160805705,"[67, 0, 187]",187,l,0.47642398928292096,colour,0.06
158,21,1,1,9,31,431,616.6274871369824,617.3996571176685,"[71, 0, 183]",183,l,0.24903468368574977,colour,0.06
158,21,1,1,9,32,432,617.9086789460853,618.7275830777362,"[99, 0, 155]",155,l,0.2941162569914013,colour,0.06
158,21,1,1,9,33,433,619.2381428745575,619.975585097447,"[90, 0, 164]",164,l,0.21422697510570288,colour,0.06
158,21,1,1,9,34,434,620.4881641422398,621.1915698067751,"[92, 0, 162]",162,l,0.18016836140304804,colour,0.06
158,21,1,1,9,35,435,621.7070889114402,622.5275530666113,"[60, 0, 194]",194,a,0.29722645808942616,colour,0.06
158,21,1,1,9,36,436,623.035145628266,623.7436417513527,"[68, 0, 186]",186,a,0.18528520734980702,colour,0.06
158,21,1,1,9,37,437,624.2537509885151,624.9996053662617,"[56, 0, 198]",198,a,0.2223839177750051,colour,0.06
158,21,1,1,9,38,438,625.5194477175828,626.2718277284876,"[55, 0, 199]",199,a,0.2290930829476565,colour,0.06
158,21,1,1,9,39,439,626.7850711916108,627.5036572532263,"[61, 0, 193]",193,a,0.19576544757001102,colour,0.06
158,21,1,1,9,40,440,628.019329957664,629.5515583695378,"[52, 0, 202]",202,a,1.0076949617359787,colour,0.06
158,21,1,1,9,41,441,630.0679522058927,630.671584095573,"[66, 0, 188]",188,a,0.08030597120523453,colour,0.06
158,21,1,1,9,42,442,631.193015615223,633.0078710105736,"[91, 0, 163]",163,l,1.2913888739421964,colour,0.06
158,21,1,1,9,43,443,633.5224945098162,634.071603551507,"[94, 0, 160]",160,l,0.026057240087538958,colour,0.06
158,21,1,1,9,44,444,634.584929328179,635.5515579755884,"[51, 0, 203]",203,a,0.4432574366219342,colour,0.06
158,21,1,1,9,45,445,636.0692971898243,636.9275996980723,"[69, 0, 185]",185,a,0.33490294055081904,colour,0.06
158,21,1,1,9,46,446,637.4443420881871,638.1836101806257,"[84, 0, 170]",170,l,0.21597801381722093,colour,0.06
158,21,1,1,9,47,447,638.6963613361586,639.4636578676291,"[72, 0, 182]",182,l,0.2442439419683069,colour,0.06
158,21,1,1,9,48,448,639.9774408994708,640.7435570745729,"[33, 0, 221]",221,a,0.2429194380529225,colour,0.06
158,21,1,1,9,49,449,641.258604351664,641.9115800152067,"[88, 0, 166]",166,l,0.12957136961631477,colour,0.06
158,21,1,1,9,50,450,642.4303963980637,643.0955678941682,"[96, 0, 158]",158,l,0.141729393042624,colour,0.06
158,21,1,1,10,1,451,648.4779974035919,649.5195906837471,"[78, 0, 176]",176,l,0.5174457989633083,colour,0.06
158,21,1,1,10,2,452,650.0256996278185,650.7515974389389,"[70, 0, 184]",184,l,0.20293659390881658,colour,0.06
158,21,1,1,10,3,453,651.2608378520235,651.9995521970559,"[79, 0, 175]",175,l,0.21540536195971072,colour,0.06
158,21,1,1,10,4,454,652.5108441535849,653.5675910492428,"[58, 0, 196]",196,a,0.5334788726177067,colour,0.06
158,21,1,1,10,5,455,654.0889000827447,655.2315203554463,"[51, 0, 203]",203,a,0.6195149079430848,colour,0.06
158,21,1,1,10,6,456,655.7450320273638,657.3995661393274,"[82, 0, 172]",172,l,1.1309829135425389,colour,0.06
158,21,1,1,10,7,457,657.9184833464678,658.70386134414,"[52, 0, 202]",202,a,0.26207058993168175,colour,0.06
158,21,1,1,10,8,458,659.2152718480211,659.9675628498662,"[92, 0, 162]",162,l,0.22897453559562564,colour,0.06
158,21,1,1,10,9,459,660.480894534383,661.1995392788667,"[91, 0, 163]",163,l,0.19536451227031648,colour,0.06
158,21,1,1,10,10,460,661.7153139896691,662.3675358321052,"[67, 0, 187]",187,a,0.1289735115133226,colour,0.06
158,21,1,1,10,11,461,662.8870800419245,663.6315630483441,"[61, 0, 193]",193,a,0.221133457031101,colour,0.06
158,21,1,1,10,12,462,664.1384864659049,664.8556408975273,"[80, 0, 174]",174,l,0.1939860514830798,colour,0.06
158,21,1,1,10,13,463,665.3728460564744,666.0955229958054,"[57, 0, 197]",197,a,0.19923247303813696,colour,0.06
158,21,1,1,10,14,464,666.6072525149211,667.2955912100151,"[50, 0, 204]",204,a,0.16500883805565536,colour,0.06
158,21,1,1,10,15,465,667.8104368380737,668.5275503098965,"[94, 0, 160]",160,l,0.1938214241527021,colour,0.06
158,21,1,1,10,16,466,669.0447219919879,669.7995674782433,"[81, 0, 173]",173,l,0.2322371550835669,colour,0.06
158,21,1,1,10,17,467,670.3103045057505,671.0795820821077,"[27, 0, 227]",227,a,0.24589218711480498,colour,0.06
158,21,1,1,10,18,468,671.5916061981115,672.2475341306999,"[73, 0, 181]",181,l,0.1302302738185972,colour,0.06
158,21,1,1,10,19,469,672.7657561998349,673.4956397316419,"[54, 0, 200]",200,a,0.20649223495274782,colour,0.06
158,21,1,1,10,20,470,674.015702242963,674.7755806862842,"[66, 0, 188]",188,l,0.23640995263122022,colour,0.06
158,21,1,1,10,21,471,675.2970452890731,676.03159983363,"[76, 0, 178]",178,l,0.21120617678388953,colour,0.06
158,21,1,1,10,22,472,676.5470338675659,677.2155758971348,"[96, 0, 158]",158,l,0.14521611109375954,colour,0.06
158,21,1,1,10,23,473,677.7345746306237,678.511557014659,"[62, 0, 192]",192,a,0.2515155191067606,colour,0.06
158,21,1,1,10,24,474,679.0103022216354,679.6635803587269,"[89, 0, 165]",165,l,0.13237712811678648,colour,0.06
158,21,1,1,10,25,475,680.1797111060005,680.8315414655954,"[69, 0, 185]",185,l,0.128872686997056,colour,0.06
158,21,1,1,10,26,476,681.351609490579,682.0635655501392,"[93, 0, 161]",161,l,0.1886053285561502,colour,0.06
158,21,1,1,10,27,477,682.5703121307306,683.3435667632148,"[71, 0, 183]",183,l,0.24996534176170826,colour,0.06
158,21,1,1,10,28,478,683.8516618721187,684.519541059155,"[87, 0, 167]",167,l,0.1446229792200029,colour,0.06
158,21,1,1,10,29,479,685.0390982660465,685.7915944615379,"[17, 0, 237]",237,a,0.22937271371483803,colour,0.06
158,21,1,1,10,30,480,686.3046922015492,687.00756262918,"[95, 0, 159]",159,l,0.1799840412568301,colour,0.06
158,21,1,1,10,31,481,687.5248508898076,688.1595714010764,"[88, 0, 166]",166,l,0.11137214349582791,colour,0.06
158,21,1,1,10,32,482,688.6654369484168,689.4076486453414,"[86, 0, 168]",168,l,0.21916659059934318,colour,0.06
158,21,1,1,10,33,483,689.9154278899077,690.5355059974827,"[56, 0, 198]",198,a,0.09692390589043498,colour,0.06
158,21,1,1,10,34,484,691.055859954562,691.8155367488507,"[64, 0, 190]",190,a,0.23656788491643965,colour,0.06
158,21,1,1,10,35,485,692.3214582223445,692.9675392191857,"[98, 0, 156]",156,l,0.12274483824148774,colour,0.06
158,21,1,1,10,36,486,693.4777221053373,694.1675621408504,"[65, 0, 189]",189,a,0.16650269529782236,colour,0.06
158,21,1,1,10,37,487,694.6808914623689,695.327534083277,"[45, 0, 209]",209,a,0.12334230239503086,colour,0.06
158,21,1,1,10,38,488,695.8370954808779,696.4555395215284,"[53, 0, 201]",201,a,0.09507795004174113,colour,0.06
158,21,1,1,10,39,489,696.9620765761938,697.5995520395227,"[83, 0, 171]",171,l,0.11406683712266386,colour,0.06
158,21,1,1,10,40,490,698.118355819257,698.7675588326529,"[55, 0, 199]",199,a,0.1236837669275701,colour,0.06
158,21,1,1,10,41,491,699.2767062978819,699.9599183006212,"[97, 0, 157]",157,l,0.1597588718868792,colour,0.06
158,21,1,1,10,42,492,700.4798669903539,701.1274950138759,"[84, 0, 170]",170,l,0.12429619743488729,colour,0.06
158,21,1,1,10,43,493,701.6361064550001,702.8155375365168,"[74, 0, 180]",180,l,0.6535747030284256,colour,0.06
158,21,1,1,10,44,494,703.3263895669952,703.9435449440498,"[85, 0, 169]",169,l,0.09376762458123267,colour,0.06
158,21,1,1,10,45,495,704.4514577023219,705.1915276651271,"[99, 0, 155]",155,l,0.21680115186609328,colour,0.06
158,21,1,1,10,46,496,705.7013856286649,706.3435474645812,"[90, 0, 164]",164,l,0.11892807739786804,colour,0.06
158,21,1,1,10,47,497,706.8576959855855,707.6875462767202,"[68, 0, 186]",186,l,0.30661810794845223,colour,0.06
158,21,1,1,10,48,498,708.2014135916252,708.7278820069041,"[72, 0, 182]",182,l,0.0032216596882790327,colour,0.06
158,21,1,1,10,49,499,709.2482339947019,710.5595680139959,"[77, 0, 177]",177,l,0.7879572946112603,colour,0.06
158,21,1,1,10,50,500,711.0763651486486,711.8555971805472,"[60, 0, 194]",194,a,0.2557993810623884,colour,0.06
158,21,1,1,11,1,501,717.655861372361,718.6715305324178,"[84, 0, 170]",170,l,0.4916209280490875,colour,0.06
158,21,1,1,11,2,502,719.1879133412149,719.9115745013114,"[79, 0, 175]",175,l,0.20046875532716513,colour,0.06
158,21,1,1,11,3,503,720.4227124641184,721.1915312097408,"[57, 0, 197]",197,a,0.2456952640786767,colour,0.06
158,21,1,1,11,4,504,721.7039735901635,722.9918718077242,"[83, 0, 171]",171,l,0.764685332775116,colour,0.06
158,21,1,1,11,5,505,723.5008058086969,724.1675416608341,"[3, 0, 251]",251,a,0.14331777370534837,colour,0.06
158,21,1,1,11,6,506,724.6883867441211,725.4075998084154,"[72, 0, 182]",182,l,0.19615299184806645,colour,0.06
158,21,1,1,11,7,507,725.9227030116599,726.6955090535339,"[56, 0, 198]",198,a,0.24814695492386818,colour,0.06
158,21,1,1,11,8,508,727.2052866725717,727.8875144540798,"[95, 0, 159]",159,l,0.15905703837051988,colour,0.06
158,21,1,1,11,9,509,728.4084225525148,729.1195550800767,"[88, 0, 166]",166,l,0.1877605291083455,colour,0.06
158,21,1,1,11,10,510,729.6272815493867,730.4554895032197,"[68, 0, 186]",186,a,0.3050057028885931,colour,0.06
158,21,1,1,11,11,511,730.9708770632278,731.5675170060713,"[98, 0, 156]",156,l,0.07332662725821137,colour,0.06
158,21,1,1,11,12,512,732.0802216879092,732.7995363643859,"[63, 0, 191]",191,a,0.19692374812439084,colour,0.06
158,21,1,1,11,13,513,733.3146194817964,734.0475395657122,"[66, 0, 188]",188,a,0.20958865154534578,colour,0.06
158,21,1,1,11,14,514,734.5646238140762,735.3675098381937,"[62, 0, 192]",192,a,0.27950929943472147,colour,0.06
158,21,1,1,11,15,515,735.8771799372043,736.655506123323,"[85, 0, 169]",169,l,0.2549947537481785,colour,0.06
158,21,1,1,11,16,516,737.1740680816583,737.8475268839393,"[90, 0, 164]",164,l,0.15017266222275794,colour,0.06
158,21,1,1,11,17,517,738.3645453599747,739.0555141579825,"[97, 0, 157]",157,l,0.1675751379225403,colour,0.06
158,21,1,1,11,18,518,739.5676969937049,740.2554917873349,"[91, 0, 163]",163,l,0.1645023520104587,colour,0.06
158,21,1,1,11,19,519,740.7707678892184,741.5195623268373,"[50, 0, 204]",204,a,0.22551105450838804,colour,0.06
158,21,1,1,11,20,520,742.0369911903981,742.7915727999061,"[31, 0, 223]",223,a,0.231825192226097,colour,0.06
158,21,1,1,11,21,521,743.3020396491047,744.2395453599747,"[52, 0, 202]",202,a,0.4128513499163091,colour,0.06
158,21,1,1,11,22,522,744.7564074792899,745.5355343543924,"[99, 0, 155]",155,l,0.25571943051181734,colour,0.06
158,21,1,1,11,23,523,746.0533291008323,746.8396389377303,"[71, 0, 183]",183,l,0.26376058254390955,colour,0.06
158,21,1,1,11,24,524,747.3357311985455,748.1035318525974,"[76, 0, 178]",178,l,0.24444440938532352,colour,0.06
158,21,1,1,11,25,525,748.616964755347,749.3836165610701,"[74, 0, 180]",180,l,0.24339323467575014,colour,0.06
158,21,1,1,11,26,526,749.8982022507116,750.5995362857357,"[94, 0, 160]",160,l,0.17796282400377095,colour,0.06
158,21,1,1,11,27,527,751.1169718445744,751.9435918116942,"[24, 0, 230]",230,a,0.3032971993088722,colour,0.06
158,21,1,1,11,28,528,752.4607347431593,753.2235237078276,"[69, 0, 185]",185,l,0.2394925847183913,colour,0.06
158,21,1,1,11,29,529,753.7445787107572,755.7195931256283,"[78, 0, 176]",176,l,1.4523537021595985,colour,0.06
158,21,1,1,11,30,530,756.2273849733174,757.0795226113405,"[65, 0, 189]",189,l,0.32882786728441715,colour,0.06
158,21,1,1,11,31,531,757.5866693395656,758.3114943143446,"[51, 0, 203]",203,a,0.20136751187965274,colour,0.06
158,21,1,1,11,32,532,758.8224030586425,759.575482146116,"[89, 0, 165]",165,l,0.22836564970202744,colour,0.06
158,21,1,1,11,33,533,760.0895538670011,760.6794980354607,"[54, 0, 200]",200,a,0.0668222620151937,colour,0.06
158,21,1,1,11,34,534,761.1988531993702,761.9115020337049,"[87, 0, 167]",167,l,0.18928156211040914,colour,0.06
158,21,1,1,11,35,535,762.4175282702781,763.1435005182866,"[70, 0, 184]",184,l,0.20253250817768276,colour,0.06
158,21,1,1,11,36,536,763.6518752579577,764.3995121824555,"[86, 0, 168]",168,l,0.2242365691345185,colour,0.06
158,21,1,1,11,37,537,764.9175487500615,765.5675272461958,"[80, 0, 174]",174,l,0.12522764294408262,colour,0.06
158,21,1,1,11,38,538,766.0751367432531,766.8395223594271,"[59, 0, 195]",195,a,0.24094981467351317,colour,0.06
158,21,1,1,11,39,539,767.3564148047008,768.0314848306589,"[96, 0, 158]",158,l,0.15173426130786538,colour,0.06
158,21,1,1,11,40,540,768.5439402076881,769.2638558931649,"[81, 0, 173]",173,l,0.1966204869095236,colour,0.06
158,21,1,1,11,41,541,769.7781733740121,770.5434920112602,"[77, 0, 177]",177,l,0.24185329722240567,colour,0.06
158,21,1,1,11,42,542,771.059514057124,771.6955476505682,"[92, 0, 162]",162,l,0.11259897355921566,colour,0.06
158,21,1,1,11,43,543,772.2158527709544,773.00750630931,"[60, 0, 194]",194,a,0.26838905992917717,colour,0.06
158,21,1,1,11,44,544,773.5281702233478,774.2555126613006,"[64, 0, 190]",190,a,0.2038833994884044,colour,0.06
158,21,1,1,11,45,545,774.762670023134,775.4554871399887,"[73, 0, 181]",181,l,0.16955933370627463,colour,0.06
158,21,1,1,11,46,546,775.965699958615,776.5995370734017,"[58, 0, 196]",196,a,0.11050647008232772,colour,0.06
158,21,1,1,11,47,547,777.1064813646954,777.8555290452205,"[75, 0, 179]",179,l,0.22632119548507035,colour,0.06
158,21,1,1,11,48,548,778.3719622662757,779.0554968286306,"[93, 0, 161]",161,l,0.15895857685245574,colour,0.06
158,21,1,1,11,49,549,779.5764309209771,780.255819467362,"[55, 0, 199]",199,a,0.15613352018408477,colour,0.06
158,21,1,1,11,50,550,780.763859044062,781.9435079225805,"[67, 0, 187]",187,l,0.656214258633554,colour,0.06
158,21,1,1,12,1,551,791.7331201576162,792.3834755641874,"[91, 0, 163]",163,l,0.12619729153811932,colour,0.06
158,21,1,1,12,2,552,792.8901993017644,793.5194670162164,"[83, 0, 171]",171,l,0.1059673959389329,colour,0.06
158,21,1,1,12,3,553,794.032010614872,794.7194796979893,"[96, 0, 158]",158,l,0.16404430917464197,colour,0.06
158,21,1,1,12,4,554,795.2351736701094,795.8714628696907,"[77, 0, 177]",177,l,0.11293886252678931,colour,0.06
158,21,1,1,12,5,555,796.3913851717953,797.0634946578648,"[75, 0, 179]",179,l,0.14932313654571772,colour,0.06
158,21,1,1,12,6,556,797.5790031286888,798.1756194408517,"[81, 0, 173]",173,l,0.07327975984662771,colour,0.06
158,21,1,1,12,7,557,798.6882914332673,799.3675051119644,"[16, 0, 238]",238,a,0.1559807078447193,colour,0.06
158,21,1,1,12,8,558,799.8757487009279,800.4874646719545,"[93, 0, 161]",161,l,0.08829631702974439,colour,0.06
158,21,1,1,12,9,559,801.0007557901554,801.6154992547818,"[79, 0, 175]",175,l,0.08986854995600879,colour,0.06
158,21,1,1,12,10,560,802.1273414138705,802.7834745401051,"[53, 0, 201]",201,a,0.132743404712528,colour,0.06
158,21,1,1,12,11,561,803.2992039585952,804.0236039736774,"[68, 0, 186]",186,l,0.201016201172024,colour,0.06
158,21,1,1,12,12,562,804.5335312539246,805.2634738627821,"[88, 0, 166]",166,l,0.20654422254301608,colour,0.06
158,21,1,1,12,13,563,805.7835856047459,806.4474830094259,"[50, 0, 204]",204,a,0.14062071684747934,colour,0.06
158,21,1,1,12,14,564,806.9554871399887,807.6234746347181,"[62, 0, 192]",192,a,0.14491481916047633,colour,0.06
158,21,1,1,12,15,565,808.1432618475519,808.8875195740256,"[72, 0, 182]",182,l,0.22086249105632305,colour,0.06
158,21,1,1,12,16,566,809.4088861090131,810.1755721792579,"[58, 0, 196]",196,a,0.243291228543967,colour,0.06
158,21,1,1,12,17,567,810.6901799244806,811.4154818467796,"[7, 0, 247]",247,a,0.20202996069565415,colour,0.06
158,21,1,1,12,18,568,811.9245316383895,812.5594510417432,"[73, 0, 181]",181,l,0.11160372477024794,colour,0.06
158,21,1,1,12,19,569,813.0807856752072,813.7674914849922,"[74, 0, 180]",180,l,0.16118971398100257,colour,0.06
158,21,1,1,12,20,570,814.2861196093727,814.9994860310107,"[95, 0, 159]",159,l,0.19438580516725779,colour,0.06
158,21,1,1,12,21,571,815.5096586772706,816.1674747071229,"[92, 0, 162]",162,l,0.13435423444025218,colour,0.06
158,21,1,1,12,22,572,816.675968782045,817.287483104039,"[94, 0, 160]",160,l,0.08816516655497253,colour,0.06
158,21,1,1,12,23,573,817.8010499144439,818.4634546430316,"[59, 0, 195]",195,a,0.13910913630388677,colour,0.06
158,21,1,1,12,24,574,818.9742125442717,819.5835422028322,"[54, 0, 200]",200,a,0.08598798606544733,colour,0.06
158,21,1,1,12,25,575,820.0991676459089,820.8315729731694,"[89, 0, 165]",165,l,0.20900497189722955,colour,0.06
158,21,1,1,12,26,576,821.3491211722139,822.103451901814,"[84, 0, 170]",170,l,0.2309035926591605,colour,0.06
158,21,1,1,12,27,577,822.6161845466122,823.263423450524,"[86, 0, 168]",168,l,0.12390786525793374,colour,0.06
158,21,1,1,12,28,578,823.7724141650833,824.4715080044698,"[97, 0, 157]",157,l,0.175897496053949,colour,0.06
158,21,1,1,12,29,579,824.991151463706,825.6554549233988,"[90, 0, 164]",164,l,0.14089404582045972,colour,0.06
158,21,1,1,12,30,580,826.1630715096835,826.6875163444784,"[71, 0, 183]",183,l,0.0011575131211429834,colour,0.06
158,21,1,1,12,31,581,827.2099222389515,827.8474756837822,"[51, 0, 203]",203,a,0.11406368645839393,colour,0.06
158,21,1,1,12,32,582,828.366215266753,829.0394495765213,"[70, 0, 184]",184,a,0.1486748659517616,colour,0.06
158,21,1,1,12,33,583,829.5548887306359,830.2635002504103,"[66, 0, 188]",188,a,0.18536515813320875,colour,0.06
158,21,1,1,12,34,584,830.7736138198525,831.3754923073575,"[63, 0, 191]",191,a,0.07853642129339278,colour,0.06
158,21,1,1,12,35,585,831.8829348136205,832.4955077932682,"[64, 0, 190]",190,a,0.08909346116706729,colour,0.06
158,21,1,1,12,36,586,833.008006493561,834.4077577404678,"[69, 0, 185]",185,a,0.8763197776861489,colour,0.06
158,21,1,1,12,37,587,834.915536985267,835.4474834031425,"[55, 0, 199]",199,a,0.008600413333624601,colour,0.06
158,21,1,1,12,38,588,835.962419222109,836.6634535402991,"[87, 0, 167]",167,l,0.17772336583584547,colour,0.06
158,21,1,1,12,39,589,837.1818902555387,837.8314859333914,"[65, 0, 189]",189,a,0.12630638689734042,colour,0.06
158,21,1,1,12,40,590,838.3380639478564,838.9914464543108,"[52, 0, 202]",202,a,0.13095337501727045,colour,0.06
158,21,1,1,12,41,591,839.5095617910847,840.087499566609,"[76, 0, 178]",178,l,0.05449449084699154,colour,0.06
158,21,1,1,12,42,592,840.6033829788212,841.1434650721494,"[82, 0, 172]",172,l,0.01680540549568832,colour,0.06
158,21,1,1,12,43,593,841.6502825450152,842.1995097405743,"[44, 0, 210]",210,a,0.025959566235542297,colour,0.06
158,21,1,1,12,44,594,842.7127406003419,843.7274724070448,"[98, 0, 156]",156,l,0.48938112636096776,colour,0.06
158,21,1,1,12,45,595,844.246104076039,844.9994285295252,"[61, 0, 193]",193,a,0.23014504555612803,colour,0.06
158,21,1,1,12,46,596,845.5116046699695,846.191464649979,"[57, 0, 197]",197,a,0.15727055328898132,colour,0.06
158,21,1,1,12,47,597,846.6990552423522,847.4634333753493,"[67, 0, 187]",187,l,0.24208999844267964,colour,0.06
158,21,1,1,12,48,598,847.9803344854154,848.7194966333918,"[85, 0, 169]",169,l,0.2158271709922701,colour,0.06
158,21,1,1,12,49,599,849.2318511859048,849.9276910703629,"[60, 0, 194]",194,a,0.17274712258949876,colour,0.06
158,21,1,1,12,50,600,850.4349216877017,851.1194940339774,"[99, 0, 155]",155,l,0.1617513382807374,colour,0.06
158,21,1,1,13,1,601,855.465399454115,856.3434891754296,"[93, 0, 161]",161,l,0.3547015751246363,colour,0.06
158,21,1,1,13,2,602,856.8569295613561,857.5994815411977,"[71, 0, 183]",183,l,0.21922054747119546,colour,0.06
158,21,1,1,13,3,603,858.108207197627,858.8474603239447,"[68, 0, 186]",186,l,0.21666881977580488,colour,0.06
158,21,1,1,13,4,604,859.3582623358816,859.9914212480653,"[46, 0, 208]",208,a,0.10974910436198115,colour,0.06
158,21,1,1,13,5,605,860.4989744250197,861.1994530267548,"[2, 0, 252]",252,a,0.17714992607943714,colour,0.06
158,21,1,1,13,6,606,861.7176105051767,862.3594367844053,"[69, 0, 185]",185,l,0.11851060064509511,colour,0.06
158,21,1,1,13,7,607,862.873906289693,863.5994673627429,"[63, 0, 191]",191,a,0.2021311791613698,colour,0.06
158,21,1,1,13,8,608,864.1095104336273,864.8234294210561,"[81, 0, 173]",173,l,0.19058282882906497,colour,0.06
158,21,1,1,13,9,609,865.3438137045596,865.9754909682088,"[86, 0, 168]",168,l,0.10832338221371174,colour,0.06
158,21,1,1,13,10,610,866.4844135476742,867.2154920080211,"[91, 0, 163]",163,l,0.2076753480359912,colour,0.06
158,21,1,1,13,11,611,867.7359412759542,868.5193953360431,"[57, 0, 197]",197,a,0.25998044945299625,colour,0.06
158,21,1,1,13,12,612,869.0328605342656,869.9834253881127,"[97, 0, 157]",157,l,0.4272176674567163,colour,0.06
158,21,1,1,13,13,613,870.5016494265292,871.287481528474,"[56, 0, 198]",198,a,0.2625877093523741,colour,0.06
158,21,1,1,13,14,614,871.7984895219561,872.3914387347177,"[88, 0, 166]",166,l,0.06966740498319268,colour,0.06
158,21,1,1,13,15,615,872.9079148850869,873.7194529164117,"[76, 0, 178]",178,l,0.2869675597175956,colour,0.06
158,21,1,1,13,16,616,874.2373709366657,874.8634551945142,"[94, 0, 160]",160,l,0.10274219163693488,colour,0.06
158,21,1,1,13,17,617,875.3779668412171,876.0394409119617,"[95, 0, 159]",159,l,0.13811113056726754,colour,0.06
158,21,1,1,13,18,618,876.549880585866,877.1194365324918,"[51, 0, 203]",203,a,0.04623908665962517,colour,0.06
158,21,1,1,13,19,619,877.6278742875438,879.0634497592691,"[64, 0, 190]",190,l,0.9121991409920156,colour,0.06
158,21,1,1,13,20,620,879.5824480988085,880.1354609413538,"[55, 0, 199]",199,a,0.029762542340904474,colour,0.06
158,21,1,1,13,21,621,880.6449191512074,881.5274581499398,"[89, 0, 165]",165,l,0.35924498178064823,colour,0.06
158,21,1,1,13,22,622,882.035509148147,882.6873895260505,"[60, 0, 194]",194,a,0.1401599170640111,colour,0.06
158,21,1,1,13,23,623,883.2030011846218,883.9034360693768,"[66, 0, 188]",188,a,0.18718078802339733,colour,0.06
158,21,1,1,13,24,624,884.4115737136453,885.0794769253116,"[98, 0, 156]",156,l,0.14447095477953553,colour,0.06
158,21,1,1,13,25,625,885.5990853321273,886.3034886082169,"[82, 0, 172]",172,l,0.18104781908914447,colour,0.06
158,21,1,1,13,26,626,886.8178364152554,887.5034437887371,"[74, 0, 180]",180,l,0.16226727655157447,colour,0.06
158,21,1,1,13,27,627,888.0209577230271,888.6234171332326,"[75, 0, 179]",179,l,0.07925597787834704,colour,0.06
158,21,1,1,13,28,628,889.1303582736291,889.9114528030623,"[61, 0, 193]",193,a,0.2578332016710192,colour,0.06
158,21,1,1,13,29,629,890.4271920674946,891.1034227572381,"[96, 0, 158]",158,l,0.15282206353731453,colour,0.06
158,21,1,1,13,30,630,891.6160029836465,892.2473911645357,"[54, 0, 200]",200,a,0.10803508688695729,colour,0.06
158,21,1,1,13,31,631,892.7567595774308,893.471390244551,"[77, 0, 177]",177,l,0.19137288397178054,colour,0.06
158,21,1,1,13,32,632,893.9910045589786,894.6554817049764,"[92, 0, 162]",162,l,0.14185424242168665,colour,0.06
158,21,1,1,13,33,633,895.162852531299,895.8713809498586,"[80, 0, 174]",174,l,0.18514814926311374,colour,0.06
158,21,1,1,13,34,634,896.3816512697376,897.0314757721499,"[84, 0, 170]",170,l,0.12696410971693695,colour,0.06
158,21,1,1,13,35,635,897.537787940586,898.351382635301,"[62, 0, 192]",192,a,0.2903892928734422,colour,0.06
158,21,1,1,13,36,636,898.8672884968109,899.4794759012293,"[85, 0, 169]",169,l,0.08916553505696356,colour,0.06
158,21,1,1,13,37,637,899.9923349705059,900.6394584774971,"[87, 0, 167]",167,l,0.12387044983915985,colour,0.06
158,21,1,1,13,38,638,901.1484881830402,901.7435783422552,"[53, 0, 201]",201,a,0.07174336700700223,colour,0.06
158,21,1,1,13,39,639,902.2578639213461,903.263408484403,"[72, 0, 182]",182,l,0.48214381374418736,colour,0.06
158,21,1,1,13,40,640,903.773557106033,904.4314140959177,"[79, 0, 175]",175,l,0.13454091758467257,colour,0.06
158,21,1,1,13,41,641,904.9453546660952,905.5914140013047,"[83, 0, 171]",171,l,0.12268457980826497,colour,0.06
158,21,1,1,13,42,642,906.10161185381,906.7754353571218,"[90, 0, 164]",164,l,0.15054563409648836,colour,0.06
158,21,1,1,13,43,643,907.2891010229941,908.0154163108673,"[50, 0, 204]",204,a,0.20191062544472516,colour,0.06
158,21,1,1,13,44,644,908.5234657337423,909.1274572045077,"[78, 0, 176]",176,l,0.07865103031508625,colour,0.06
158,21,1,1,13,45,645,909.6345834527165,910.2794352562632,"[59, 0, 195]",195,a,0.12149319588206708,colour,0.06
158,21,1,1,13,46,646,910.7908697850071,911.5514228865504,"[99, 0, 155]",155,l,0.23734769993461668,colour,0.06
158,21,1,1,13,47,647,912.0740958084352,912.8554947806988,"[70, 0, 184]",184,a,0.2580222475808114,colour,0.06
158,21,1,1,13,48,648,913.3709158177953,914.0874716036487,"[52, 0, 202]",202,a,0.1932282920461148,colour,0.06
158,21,1,1,13,49,649,914.6053545714822,915.3675114135258,"[67, 0, 187]",187,l,0.23930393252521753,colour,0.06
158,21,1,1,13,50,650,915.8865270824172,916.5034311856143,"[28, 0, 226]",226,a,0.09341828338801861,colour,0.06
158,21,1,1,14,1,651,921.9184242696501,922.6235183514655,"[38, 0, 216]",216,a,0.1809269085060805,colour,0.06
158,21,1,1,14,2,652,923.1380437829066,923.791433772305,"[59, 0, 195]",195,a,0.13020900613628328,colour,0.06
158,21,1,1,14,3,653,924.3098291337956,924.8714069435373,"[80, 0, 174]",174,l,0.038129011169075966,colour,0.06
158,21,1,1,14,4,654,925.387920903042,926.1274296354968,"[89, 0, 165]",165,l,0.2168054843787104,colour,0.06
158,21,1,1,14,5,655,926.6379350814968,927.527477054391,"[66, 0, 188]",188,l,0.3665870572440326,colour,0.06
158,21,1,1,14,6,656,928.0442493767478,929.0473977811635,"[72, 0, 182]",182,l,0.4803399993106723,colour,0.06
158,21,1,1,14,7,657,929.5598157430068,930.2474037676584,"[76, 0, 178]",178,l,0.16191951045766473,colour,0.06
158,21,1,1,14,8,658,930.7651933939196,931.3914170733187,"[2, 0, 252]",252,a,0.10286231455393136,colour,0.06
158,21,1,1,14,9,659,931.9058247448411,932.5993720518891,"[86, 0, 168]",168,l,0.17042303760536015,colour,0.06
158,21,1,1,14,10,660,933.1089929200243,933.8394573747646,"[62, 0, 192]",192,a,0.20720155141316354,colour,0.06
158,21,1,1,14,11,661,934.3589921323583,935.0234062629752,"[70, 0, 184]",184,l,0.1411256273277104,colour,0.06
158,21,1,1,14,12,662,935.5307424310595,936.2954037392046,"[56, 0, 198]",198,a,0.23968832613900304,colour,0.06
158,21,1,1,14,13,663,936.8135438885074,937.4074182454497,"[84, 0, 170]",170,l,0.07050235848873854,colour,0.06
158,21,1,1,14,14,664,937.9228538547177,938.6234017731622,"[67, 0, 187]",187,l,0.1772074275650084,colour,0.06
158,21,1,1,14,15,665,939.1441621794365,939.8154095367063,"[71, 0, 183]",183,l,0.14801359875127673,colour,0.06
158,21,1,1,14,16,666,940.3316702533048,941.1433729121927,"[60, 0, 194]",194,a,0.2883739834651351,colour,0.06
158,21,1,1,14,17,667,941.6597190932371,942.2794458901044,"[54, 0, 200]",200,a,0.09637606609612703,colour,0.06
158,21,1,1,14,18,668,942.8003705302253,943.479429821251,"[75, 0, 179]",179,l,0.1557081665378064,colour,0.06
158,21,1,1,14,19,669,943.9878624563571,944.8153859057929,"[92, 0, 162]",162,l,0.3043275000527501,colour,0.06
158,21,1,1,14,20,670,945.3336138827726,946.0794020944741,"[69, 0, 185]",185,l,0.22241385001689196,colour,0.06
158,21,1,1,14,21,671,946.5993035228457,947.3353936725762,"[44, 0, 210]",210,a,0.212778803659603,colour,0.06
158,21,1,1,14,22,672,947.8492980089504,948.5113868732005,"[98, 0, 156]",156,l,0.13884722883813083,colour,0.06
158,21,1,1,14,23,673,949.0211369227618,949.7434219853021,"[58, 0, 196]",196,a,0.19906390691176057,colour,0.06
158,21,1,1,14,24,674,950.248835003702,950.8875782571267,"[50, 0, 204]",204,a,0.12434345879592001,colour,0.06
158,21,1,1,14,25,675,951.3974756051321,952.0553759180475,"[68, 0, 186]",186,l,0.13536248006857932,colour,0.06
158,21,1,1,14,26,676,952.5693767466582,953.2634033642244,"[90, 0, 164]",164,l,0.17074205284006894,colour,0.06
158,21,1,1,14,27,677,953.7724437036086,954.3913725686725,"[65, 0, 189]",189,a,0.09584476798772812,colour,0.06
158,21,1,1,14,28,678,954.897441734327,955.5833897844423,"[88, 0, 166]",166,l,0.1625953500624746,colour,0.06
158,21,1,1,14,29,679,956.1005082975607,956.8713943404146,"[94, 0, 160]",160,l,0.2475124690681696,colour,0.06
158,21,1,1,14,30,680,957.3831652135123,958.0953879065346,"[99, 0, 155]",155,l,0.18888929137028754,colour,0.06
158,21,1,1,14,31,681,958.6019734041765,959.2394134216011,"[57, 0, 197]",197,a,0.11449061543680727,colour,0.06
158,21,1,1,14,32,682,959.7581211028155,960.4713886692189,"[74, 0, 180]",180,l,0.1898802078794688,colour,0.06
158,21,1,1,14,33,683,960.9769454412162,961.7033780950587,"[63, 0, 191]",191,a,0.2031732953619212,colour,0.06
158,21,1,1,14,34,684,962.2112581643742,962.887371881865,"[78, 0, 176]",176,l,0.15278464811854064,colour,0.06
158,21,1,1,14,35,685,963.4001344589051,964.0393617490772,"[55, 0, 199]",199,a,0.11660793120972812,colour,0.06
158,21,1,1,14,36,686,964.5559402990621,965.2633576781955,"[87, 0, 167]",167,l,0.18461763858795166,colour,0.06
158,21,1,1,14,37,687,965.7747008346487,966.471405210672,"[81, 0, 173]",173,l,0.17348794685676694,colour,0.06
158,21,1,1,14,38,688,966.977780394489,967.6073686995078,"[61, 0, 193]",193,a,0.10645891563035548,colour,0.06
158,21,1,1,14,39,689,968.1184062315151,968.8235684486572,"[83, 0, 171]",171,l,0.1819745386019349,colour,0.06
158,21,1,1,14,40,690,969.3387169444468,970.0154320646543,"[82, 0, 172]",172,l,0.1535947893280536,colour,0.06
158,21,1,1,14,41,691,970.5261887845118,971.2234098864719,"[85, 0, 169]",169,l,0.17380381119437516,colour,0.06
158,21,1,1,14,42,692,971.7300150762312,972.3354224232025,"[77, 0, 177]",177,l,0.0827974402345717,colour,0.06
158,21,1,1,14,43,693,972.854350264417,973.567418544786,"[79, 0, 175]",175,l,0.18980458960868418,colour,0.06
158,21,1,1,14,44,694,974.0887728706002,975.0873644775711,"[73, 0, 181]",181,l,0.4756036081817001,colour,0.06
158,21,1,1,14,45,695,975.6056243560743,976.2473738354165,"[95, 0, 159]",159,l,0.11854880396276712,colour,0.06
158,21,1,1,14,46,696,976.7618846944533,977.3593497446273,"[64, 0, 190]",190,a,0.07410998712293804,colour,0.06
158,21,1,1,14,47,697,977.8712939098477,978.6075199362822,"[93, 0, 161]",161,l,0.21305134473368526,colour,0.06
158,21,1,1,14,48,698,979.1213490483351,980.1033739203122,"[52, 0, 202]",202,a,0.4587139196228236,colour,0.06
158,21,1,1,14,49,699,980.6213915836997,981.3834105795249,"[96, 0, 158]",158,l,0.2388671573717147,colour,0.06
158,21,1,1,14,50,700,981.9025743342936,982.6313629746437,"[97, 0, 157]",157,l,0.20549147250130773,colour,0.06
158,21,1,1,15,1,701,987.8719323340338,988.5034315793309,"[96, 0, 158]",158,l,0.10735609638504684,colour,0.06
158,21,1,1,15,2,702,989.0132978137117,989.7035045197699,"[68, 0, 186]",186,a,0.16677720611914992,colour,0.06
158,21,1,1,15,3,703,990.2163438966963,990.7834099493921,"[69, 0, 185]",185,a,0.04437068151310086,colour,0.06
158,21,1,1,15,4,704,991.2945423983037,992.0234495860059,"[83, 0, 171]",171,l,0.20635399501770735,colour,0.06
158,21,1,1,15,5,705,992.5287590229418,993.2313569094986,"[66, 0, 188]",188,l,0.17929362948052585,colour,0.06
158,21,1,1,15,6,706,993.749175286619,994.4154204067308,"[91, 0, 163]",163,l,0.14348397660069168,colour,0.06
158,21,1,1,15,7,707,994.9210464959033,995.5114534331951,"[63, 0, 191]",191,a,0.06690615136176348,colour,0.06
158,21,1,1,15,8,708,996.0305683510378,996.7115086503327,"[84, 0, 170]",170,l,0.15757972234860063,colour,0.06
158,21,1,1,15,9,709,997.2180646094494,997.903383687837,"[93, 0, 161]",161,l,0.16264221793971956,colour,0.06
158,21,1,1,15,10,710,998.4211445634719,999.1833943531383,"[77, 0, 177]",177,l,0.23924406780861318,colour,0.06
158,21,1,1,15,11,711,999.7036648150533,1000.3994050563779,"[61, 0, 193]",193,a,0.1727869010064751,colour,0.06
158,21,1,1,15,12,712,1000.9068062088918,1001.5994492457248,"[70, 0, 184]",184,a,0.17014222568832338,colour,0.06
158,21,1,1,15,13,713,1002.1100279472303,1002.7996584568173,"[98, 0, 156]",156,l,0.1665653169620782,colour,0.06
158,21,1,1,15,14,714,1003.3129168858286,1003.959323199233,"[82, 0, 172]",172,l,0.12300556409172714,colour,0.06
158,21,1,1,15,15,715,1004.4694198332727,1005.2153671588749,"[71, 0, 183]",183,l,0.22268599760718644,colour,0.06
158,21,1,1,15,16,716,1005.7363682049327,1006.4073323870543,"[72, 0, 182]",182,a,0.14772766665555537,colour,0.06
158,21,1,1,15,17,717,1006.9238534355536,1007.6313759714831,"[86, 0, 168]",168,l,0.1843407650012523,colour,0.06
158,21,1,1,15,18,718,1008.1425864018966,1008.8953378093429,"[97, 0, 157]",157,l,0.22951331664808095,colour,0.06
158,21,1,1,15,19,719,1009.4082563493866,1010.1593807796016,"[64, 0, 190]",190,a,0.22790996986441314,colour,0.06
158,21,1,1,15,20,720,1010.6738321681041,1011.2075095388573,"[60, 0, 194]",194,a,0.010380203137174249,colour,0.06
158,21,1,1,15,21,721,1011.7207159802783,1012.4073453838937,"[89, 0, 165]",165,l,0.16336177429184318,colour,0.06
158,21,1,1,15,22,722,1012.923757731216,1013.5113388239406,"[81, 0, 173]",173,l,0.06414095894433558,colour,0.06
158,21,1,1,15,23,723,1014.0188006288372,1014.5834145967383,"[90, 0, 164]",164,l,0.041265994077548385,colour,0.06
158,21,1,1,15,24,724,1015.096907758154,1015.727427508682,"[88, 0, 166]",166,l,0.10749630583450198,colour,0.06
158,21,1,1,15,25,725,1016.2374670349527,1016.9434342733584,"[79, 0, 175]",175,l,0.18317734403535724,colour,0.06
158,21,1,1,15,26,726,1017.457721821731,1018.0313918828033,"[51, 0, 203]",203,a,0.0503224809654057,colour,0.06
158,21,1,1,15,27,727,1018.5402498715557,1019.7114105827641,"[99, 0, 155]",155,l,0.6529284019488841,colour,0.06
158,21,1,1,15,28,728,1020.2224760777317,1020.9353202597704,"[65, 0, 189]",189,a,0.18974708812311292,colour,0.06
158,21,1,1,15,29,729,1021.4569093177561,1022.1274016723037,"[80, 0, 174]",174,l,0.14718888537026942,colour,0.06
158,21,1,1,15,30,730,1022.6444217239041,1023.3513743646909,"[78, 0, 176]",176,l,0.18169963429681957,colour,0.06
158,21,1,1,15,31,731,1023.8652601903304,1024.479341993574,"[73, 0, 181]",181,l,0.09082047548145056,colour,0.06
158,21,1,1,15,32,732,1024.9902046578936,1026.2393421353772,"[6, 0, 248]",248,a,0.7258737864904106,colour,0.06
158,21,1,1,15,33,733,1026.7558198610786,1027.495410119649,"[67, 0, 187]",187,a,0.21648725681006908,colour,0.06
158,21,1,1,15,34,734,1028.0058706672862,1028.6793964232784,"[52, 0, 202]",202,a,0.15052948659285903,colour,0.06
158,21,1,1,15,35,735,1029.1947489310987,1030.5754222813994,"[59, 0, 195]",195,a,0.8574730686377734,colour,0.06
158,21,1,1,15,36,736,1031.0853097834624,1031.887322257273,"[85, 0, 169]",169,l,0.27869915845803916,colour,0.06
158,21,1,1,15,37,737,1032.3990923427045,1033.1273800109047,"[74, 0, 180]",180,l,0.20571714616380632,colour,0.06
158,21,1,1,15,38,738,1033.6329107889906,1034.359303664649,"[87, 0, 167]",167,l,0.2029322616290301,colour,0.06
158,21,1,1,15,39,739,1034.8673160660546,1035.5833921476733,"[41, 0, 213]",213,a,0.19306681538000703,colour,0.06
158,21,1,1,15,40,740,1036.1017185859382,1036.8233368673827,"[53, 0, 201]",201,a,0.19835262140259147,colour,0.06
158,21,1,1,15,41,741,1037.3360313090961,1037.9992981664836,"[55, 0, 199]",199,a,0.13987477286718786,colour,0.06
158,21,1,1,15,42,742,1038.5078603767324,1039.1274008846376,"[75, 0, 179]",179,l,0.09614960476756096,colour,0.06
158,21,1,1,15,43,743,1039.6485137830023,1040.407383193029,"[76, 0, 178]",178,l,0.23550135013647377,colour,0.06
158,21,1,1,15,44,744,1040.9140951153822,1041.6633653186727,"[62, 0, 192]",192,a,0.22352804010733962,colour,0.06
158,21,1,1,15,45,745,1042.1821655537933,1042.927383870585,"[92, 0, 162]",162,l,0.22256469330750406,colour,0.06
158,21,1,1,15,46,746,1043.4476937169675,1044.1432968999725,"[50, 0, 204]",204,a,0.17358916532248259,colour,0.06
158,21,1,1,15,47,747,1044.6492668164428,1045.2873204455245,"[58, 0, 196]",196,a,0.11475764284841716,colour,0.06
158,21,1,1,15,48,748,1045.8055054931901,1046.495328199584,"[94, 0, 160]",160,l,0.1666440861299634,colour,0.06
158,21,1,1,15,49,749,1047.0087504684925,1047.6953849922866,"[56, 0, 198]",198,a,0.16376192192547023,colour,0.06
158,21,1,1,15,50,750,1048.2118052162696,1048.8953791633248,"[44, 0, 210]",210,a,0.1605442005675286,colour,0.06
158,21,1,1,16,1,751,1055.1811057145242,1055.8073746860027,"[62, 0, 192]",192,a,0.10204075207002461,colour,0.06
158,21,1,1,16,2,752,1056.323050147621,1057.0633052180056,"[59, 0, 195]",195,a,0.21686692419461906,colour,0.06
158,21,1,1,16,3,753,1057.5731068614405,1058.1593500596937,"[51, 0, 203]",203,a,0.06305630737915635,colour,0.06
158,21,1,1,16,4,754,1058.6667720859405,1059.2633434997406,"[74, 0, 180]",180,a,0.07395481178537011,colour,0.06
158,21,1,1,16,5,755,1059.7761210429017,1060.4714083613362,"[67, 0, 187]",187,a,0.1717424215748906,colour,0.06
158,21,1,1,16,6,756,1060.9792963075452,1062.671380477026,"[56, 0, 198]",198,a,1.1687645525671542,colour,0.06
158,21,1,1,16,7,757,1063.1838130112737,1063.895380738657,"[98, 0, 156]",156,l,0.1885108056012541,colour,0.06
158,21,1,1,16,8,758,1064.4025365251582,1065.215384487994,"[23, 0, 231]",231,a,0.289813096402213,colour,0.06
158,21,1,1,16,9,759,1065.7306550759822,1066.3513239524327,"[60, 0, 194]",194,a,0.09724410250782967,colour,0.06
158,21,1,1,16,10,760,1066.8713521989994,1067.5674323292915,"[94, 0, 160]",160,l,0.17292986693792045,colour,0.06
158,21,1,1,16,11,761,1068.0744640543126,1068.7353209685534,"[63, 0, 191]",191,a,0.13753493409603834,colour,0.06
158,21,1,1,16,12,762,1069.2463455037214,1069.9033521800302,"[99, 0, 155]",155,l,0.13377961330115795,colour,0.06
158,21,1,1,16,13,763,1070.4181182512548,1071.0713463700376,"[69, 0, 185]",185,l,0.13018931378610432,colour,0.06
158,21,1,1,16,14,764,1071.592397434637,1072.1513242674991,"[75, 0, 179]",179,l,0.03549221297726035,colour,0.06
158,21,1,1,16,15,765,1072.6705411914736,1073.999353304971,"[90, 0, 164]",164,l,0.8055153395980597,colour,0.06
158,21,1,1,16,16,766,1074.5142843977083,1075.711328662699,"[96, 0, 158]",158,l,0.6736234296113253,colour,0.06
158,21,1,1,16,17,767,1076.2174005853012,1076.9593763684388,"[65, 0, 189]",189,a,0.2186388368718326,colour,0.06
158,21,1,1,16,18,768,1077.4678696559276,1078.5673378063366,"[93, 0, 161]",161,l,0.5765341087244451,colour,0.06
158,21,1,1,16,19,769,1079.0771492959466,1079.8393482794054,"[80, 0, 174]",174,l,0.2389967325143516,colour,0.06
158,21,1,1,16,20,770,1080.3584194805007,1081.08738613897,"[77, 0, 177]",177,l,0.20559623534791172,colour,0.06
158,21,1,1,16,21,771,1081.6085002189502,1082.3273548835423,"[78, 0, 176]",176,l,0.19557128148153424,colour,0.06
158,21,1,1,16,22,772,1082.8427605605684,1083.5672889694106,"[89, 0, 165]",165,l,0.20010444801300764,colour,0.06
158,21,1,1,16,23,773,1084.0782028336544,1084.8153051675763,"[83, 0, 171]",171,l,0.21384415682405233,colour,0.06
158,21,1,1,16,24,774,1085.3282587598078,1085.959272786975,"[79, 0, 175]",175,l,0.1080819545313716,colour,0.06
158,21,1,1,16,25,775,1086.4652490050066,1087.0632993101608,"[76, 0, 178]",178,l,0.07468697126023471,colour,0.06
158,21,1,1,16,26,776,1087.5744920175057,1088.2553090429865,"[81, 0, 173]",173,l,0.15739382710307837,colour,0.06
158,21,1,1,16,27,777,1088.7512339192908,1089.407284731511,"[84, 0, 170]",170,l,0.142632087925449,colour,0.06
158,21,1,1,16,28,778,1089.9286429958884,1090.5593431279995,"[50, 0, 204]",204,a,0.10731198592111468,colour,0.06
158,21,1,1,16,29,779,1091.0693113682792,1091.7353260884993,"[52, 0, 202]",202,a,0.14269864792004228,colour,0.06
158,21,1,1,16,30,780,1092.2569100265391,1092.9193895859644,"[64, 0, 190]",190,a,0.13949628686532378,colour,0.06
158,21,1,1,16,31,781,1093.428629211383,1094.0153631416615,"[53, 0, 201]",201,a,0.06343518709763885,colour,0.06
158,21,1,1,16,32,782,1094.5224220419768,1095.1833699345589,"[54, 0, 200]",200,a,0.13784489082172513,colour,0.06
158,21,1,1,16,33,783,1095.6943605989218,1096.3113245668355,"[86, 0, 168]",168,l,0.09446985204704106,colour,0.06
158,21,1,1,16,34,784,1096.8193724143784,1097.4873319459148,"[97, 0, 157]",157,l,0.14471632079221308,colour,0.06
158,21,1,1,16,35,785,1098.0068029004615,1098.7113085766323,"[68, 0, 186]",186,a,0.17965636146254838,colour,0.06
158,21,1,1,16,36,786,1099.227081318153,1099.8393986916635,"[92, 0, 162]",162,l,0.0888705444522202,colour,0.06
158,21,1,1,16,37,787,1100.3521147950087,1101.02334009693,"[55, 0, 199]",199,a,0.1478777218144387,colour,0.06
158,21,1,1,16,38,788,1101.5396598903462,1102.2553370059468,"[58, 0, 196]",196,a,0.1925662369467318,colour,0.06
158,21,1,1,16,39,789,1102.774011604255,1103.415311705321,"[91, 0, 163]",163,l,0.11802577646449208,colour,0.06
158,21,1,1,16,40,790,1103.930230588885,1104.6153157225344,"[57, 0, 197]",197,a,0.16033821902237833,colour,0.06
158,21,1,1,16,41,791,1105.1347984925378,1105.7273692195304,"[95, 0, 159]",159,l,0.07005219254642725,colour,0.06
158,21,1,1,16,42,792,1106.244166354183,1106.8793768095784,"[32, 0, 222]",222,a,0.11187114613130689,colour,0.06
158,21,1,1,16,43,793,1107.4001041327138,1108.1593157949392,"[66, 0, 188]",188,a,0.23662538616918027,colour,0.06
158,21,1,1,16,44,794,1108.6662762339693,1109.4312927913852,"[73, 0, 181]",181,a,0.24237317382358015,colour,0.06
158,21,1,1,16,45,795,1109.9475204248447,1110.7112739181612,"[72, 0, 182]",182,a,0.24049452878534794,colour,0.06
158,21,1,1,16,46,796,1111.2286413416732,1111.8793799604755,"[61, 0, 193]",193,a,0.12715039891190827,colour,0.06
158,21,1,1,16,47,797,1112.4006563047878,1113.1273622878361,"[85, 0, 169]",169,l,0.2040988332591951,colour,0.06
158,21,1,1,16,48,798,1113.6362915625796,1114.3432969786227,"[21, 0, 233]",233,a,0.18364877765998244,colour,0.06
158,21,1,1,16,49,799,1114.8551611930598,1115.4872961058281,"[71, 0, 183]",183,l,0.10890154796652496,colour,0.06
158,21,1,1,16,50,800,1115.995731497882,1116.7592853114475,"[82, 0, 172]",172,l,0.2405106765218079,colour,0.06
