id,age,condition,counterbalance,block,trialinblock,trial,tstart,tend,trialstim,trialintensity,response,RT,trialtype,colourfreq
052,71,1,1,Practice,1,NA,6.301503162831068e-06,16.564759417553432,"[90, 0, 164]",164,l,15.446296612150036,colour,0.5
052,71,1,1,Practice,2,NA,17.083320369245484,20.40468920278363,"[47, 0, 207]",207,a,2.797870241338387,colour,0.5
052,71,1,1,Practice,3,NA,20.912671071710065,22.820726274629124,"[92, 0, 162]",162,l,1.385121385101229,colour,0.5
052,71,1,1,Practice,4,NA,23.334441351878922,24.644718709634617,"[49, 0, 205]",205,a,0.7875006842659786,colour,0.5
052,71,1,1,Practice,5,NA,25.164165419817436,26.52483412215952,"[57, 0, 197]",197,a,0.8383898495230824,colour,0.5
052,71,1,1,Practice,6,NA,27.03914233064279,28.62072406912921,"[83, 0, 171]",171,l,1.0583245735615492,colour,0.5
052,71,1,1,Practice,7,NA,29.133740070683416,30.388733735657297,"[10, 0, 244]",244,a,0.7324454218614846,colour,0.5
052,71,1,1,Practice,8,NA,30.899186984810513,31.964750043989625,"[33, 0, 221]",221,a,0.5420951869455166,colour,0.5
052,71,1,1,Practice,9,NA,32.47732454480138,34.220704691892024,"[59, 0, 195]",195,a,1.2207814917783253,colour,0.5
052,71,1,1,Practice,10,NA,34.72885118826525,36.212703721481375,"[42, 0, 212]",212,a,0.9603807225357741,colour,0.5
052,71,1,1,1,1,1,5.598536785342731,8.823969985824078,"[57, 0, 197]",197,l,2.7013942523044534,colour,0.5
052,71,1,1,1,2,2,9.333640664059203,10.671986993635073,"[73, 0, 181]",181,l,0.8153262595878914,colour,0.5
052,71,1,1,1,3,3,11.178853886085562,12.071937447879463,"[48, 0, 206]",206,l,0.3702293007518165,colour,0.5
052,71,1,1,1,4,4,12.585106261423789,13.911890863848384,"[9, 0, 245]",245,a,0.8038677199510857,colour,0.5
052,71,1,1,1,5,5,14.428807510761544,15.767936411255505,"[55, 0, 199]",199,l,0.8160383321810514,colour,0.5
052,71,1,1,1,6,6,16.273999465163797,17.792008245538455,"[6, 0, 248]",248,l,0.9949351474642754,colour,0.5
052,71,1,1,1,7,7,18.305119163822383,19.25592274637893,"[89, 0, 165]",165,l,0.42770395579282194,colour,0.5
052,71,1,1,1,8,8,19.776339891774114,21.143859929637983,"[19, 0, 235]",235,a,0.8445362016791478,colour,0.5
052,71,1,1,1,9,9,21.664766231027897,22.82387270597974,"[84, 0, 170]",170,l,0.6359304421930574,colour,0.5
052,71,1,1,1,10,10,23.33665121870581,24.559893456927966,"[39, 0, 215]",215,a,0.7002717927680351,colour,0.5
052,71,1,1,1,11,11,25.071242310630623,26.264026904362254,"[53, 0, 201]",201,a,0.6699271819088608,colour,0.5
052,71,1,1,1,12,12,26.774118997214828,27.94386599486461,"[42, 0, 212]",212,a,0.6467312599415891,colour,0.5
052,71,1,1,1,13,13,28.46168572944589,29.615917579154484,"[49, 0, 205]",205,a,0.6311365552828647,colour,0.5
052,71,1,1,1,14,14,30.13354590482777,31.255874697235413,"[36, 0, 218]",218,a,0.599470199085772,colour,0.5
052,71,1,1,1,15,15,31.774841703649145,32.87985980673693,"[78, 0, 176]",176,l,0.5828625239082612,colour,0.5
052,71,1,1,1,16,16,33.39918088022387,34.48788944911212,"[44, 0, 210]",210,a,0.5657432434381917,colour,0.5
052,71,1,1,1,17,17,34.99426679167664,36.183862812584266,"[11, 0, 243]",243,a,0.6664625234552659,colour,0.5
052,71,1,1,1,18,18,36.69742389622843,38.59184259414906,"[60, 0, 194]",194,a,1.3717255196534097,colour,0.5
052,71,1,1,1,19,19,39.10348998272093,40.39191049308283,"[62, 0, 192]",192,l,0.7659191348357126,colour,0.5
052,71,1,1,1,20,20,40.90170877723722,42.039835498610046,"[59, 0, 195]",195,l,0.6147395874140784,colour,0.5
052,71,1,1,1,21,21,42.55801402637735,43.831857922603376,"[63, 0, 191]",191,l,0.7505938204703853,colour,0.5
052,71,1,1,1,22,22,44.3429291152861,45.511927018815186,"[10, 0, 244]",244,a,0.6458718891371973,colour,0.5
052,71,1,1,1,23,23,46.03045843215659,47.25585303577827,"[26, 0, 228]",228,a,0.7025021396111697,colour,0.5
052,71,1,1,1,24,24,47.76478525379207,48.863957508758176,"[79, 0, 175]",175,l,0.5751667837030254,colour,0.5
052,71,1,1,1,25,25,49.3756332542398,50.33593954000389,"[17, 0, 237]",237,a,0.4371613668045029,colour,0.5
052,71,1,1,1,26,26,50.84418922383338,51.679914314940106,"[21, 0, 233]",233,a,0.313139432691969,colour,0.5
052,71,1,1,1,27,27,52.18801315600285,53.10382672055857,"[90, 0, 164]",164,l,0.39317985699744895,colour,0.5
052,71,1,1,1,28,28,53.60987914062571,54.19181849079905,"[76, 0, 178]",178,l,0.059462393110152334,colour,0.5
052,71,1,1,1,29,29,54.7038408202352,55.247958797437605,"[68, 0, 186]",186,l,0.021379112848080695,colour,0.5
052,71,1,1,1,30,30,55.76738423993811,56.87193012231728,"[97, 0, 157]",157,l,0.5818373441579752,colour,0.5
052,71,1,1,1,31,31,57.39228819089476,58.8240070072934,"[66, 0, 188]",188,l,0.9087432509986684,colour,0.5
052,71,1,1,1,32,32,59.34551864914829,59.9360158672207,"[70, 0, 184]",184,l,0.06757403409574181,colour,0.5
052,71,1,1,1,33,33,60.45494821522152,61.5358180780313,"[20, 0, 234]",234,a,0.5578198605799116,colour,0.5
052,71,1,1,1,34,34,62.051151466264855,68.31980014703004,"[30, 0, 224]",224,a,5.746036634722259,colour,0.5
052,71,1,1,1,35,35,68.83363377174828,70.48779216932599,"[52, 0, 202]",202,l,1.1312194597558118,colour,0.5
052,71,1,1,1,36,36,71.00562332541449,72.00783043535193,"[22, 0, 232]",232,l,0.4788892928045243,colour,0.5
052,71,1,1,1,37,37,72.52120601775823,73.19179328466998,"[74, 0, 180]",180,l,0.14713751152157784,colour,0.5
052,71,1,1,1,38,38,73.71113050577696,74.4557674137759,"[50, 0, 204]",204,l,0.22122693102573976,colour,0.5
052,71,1,1,1,39,39,74.97680013958598,75.62378503597574,"[99, 0, 155]",155,l,0.1243807272403501,colour,0.5
052,71,1,1,1,40,40,76.13293859513942,76.74379368481459,"[72, 0, 182]",182,l,0.08868533204076812,colour,0.5
052,71,1,1,1,41,41,77.25662024668418,77.86378539830912,"[45, 0, 209]",209,a,0.0838445775443688,colour,0.5
052,71,1,1,1,42,42,78.38182923092972,79.07982853543945,"[77, 0, 177]",177,l,0.1746436781832017,colour,0.5
052,71,1,1,1,43,43,79.60220388037851,80.12783947802382,"[29, 0, 225]",225,a,0.0021893868688493967,colour,0.5
052,71,1,1,1,44,44,80.64917822176358,83.15181875857525,"[25, 0, 229]",229,a,1.9792384367901832,colour,0.5
052,71,1,1,1,45,45,83.67133793630637,84.62376494985074,"[2, 0, 252]",252,a,0.4290024642832577,colour,0.5
052,71,1,1,1,46,46,85.14010500704171,85.67185426771175,"[23, 0, 231]",231,a,0.014381660672370344,colour,0.5
052,71,1,1,1,47,47,86.18093969160691,88.87975740694674,"[67, 0, 187]",187,l,2.175763380830176,colour,0.5
052,71,1,1,1,48,48,89.39142724470003,90.17577440844616,"[15, 0, 239]",239,a,0.2611683740396984,colour,0.5
052,71,1,1,1,49,49,90.68831031239824,91.247809530003,"[28, 0, 226]",226,a,0.0360711237299256,colour,0.5
052,71,1,1,1,50,50,91.76647051848704,93.51975981728174,"[34, 0, 220]",220,a,1.2299663616577163,colour,0.5
052,71,1,1,2,1,51,99.26699531753547,100.85573440953158,"[71, 0, 183]",183,l,1.064485498063732,colour,0.5
052,71,1,1,2,2,52,101.37723659910262,102.09573162108427,"[56, 0, 198]",198,l,0.19513191265286878,colour,0.5
052,71,1,1,2,3,53,102.61155298381345,104.95972812059335,"[67, 0, 187]",187,l,1.824890008836519,colour,0.5
052,71,1,1,2,4,54,105.47241368581308,106.66375916823745,"[9, 0, 245]",245,a,0.668189141957555,colour,0.5
052,71,1,1,2,5,55,107.17543018754805,107.79977487790165,"[54, 0, 200]",200,l,0.10110603616340086,colour,0.5
052,71,1,1,2,6,56,108.31611926743062,109.83973640709883,"[0, 0, 254]",254,a,1.0001925904070958,colour,0.5
052,71,1,1,2,7,57,110.34861624368932,111.11172056506621,"[38, 0, 216]",216,l,0.23979713808512315,colour,0.5
052,71,1,1,2,8,58,111.6298144160537,112.1757381746429,"[97, 0, 157]",157,l,0.022478729370050132,colour,0.5
052,71,1,1,2,9,59,112.69240433588857,114.69569530850276,"[19, 0, 235]",235,a,1.4797069159103557,colour,0.5
052,71,1,1,2,10,60,115.20804374205181,115.83972892403835,"[72, 0, 182]",182,l,0.10700820421334356,colour,0.5
052,71,1,1,2,11,61,116.35001597041264,118.69573548075277,"[28, 0, 226]",226,a,1.8223485240596347,colour,0.5
052,71,1,1,2,12,62,119.20932767819613,119.87969714857172,"[4, 0, 250]",250,a,0.14703156711766496,colour,0.5
052,71,1,1,2,13,63,120.3968800350558,122.23171346005984,"[33, 0, 221]",221,a,1.3094924237811938,colour,0.5
052,71,1,1,2,14,64,122.74170354701346,123.57570123195183,"[34, 0, 220]",220,a,0.310909085907042,colour,0.5
052,71,1,1,2,15,65,124.08549124537967,125.80769589770352,"[32, 0, 222]",222,a,1.1969731401186436,colour,0.5
052,71,1,1,2,16,66,126.32168863597326,127.01571522135055,"[75, 0, 179]",179,l,0.17063196835806593,colour,0.5
052,71,1,1,2,17,67,127.52485420822632,128.2157300299732,"[40, 0, 214]",214,l,0.16775492730084807,colour,0.5
052,71,1,1,2,18,68,128.72799024207052,129.3037277078256,"[92, 0, 162]",162,l,0.052373174868989736,colour,0.5
052,71,1,1,2,19,69,129.82167189754546,132.3597069316893,"[16, 0, 238]",238,a,2.0124313379637897,colour,0.5
052,71,1,1,2,20,70,132.8715484861168,133.47967304522172,"[8, 0, 246]",246,a,0.08484967116964981,colour,0.5
052,71,1,1,2,21,71,133.99658969219308,134.7437003434752,"[48, 0, 206]",206,a,0.2238353694556281,colour,0.5
052,71,1,1,2,22,72,135.2620722493739,137.3116668445291,"[25, 0, 229]",229,a,1.5262094304780476,colour,0.5
052,71,1,1,2,23,73,137.82691358675947,138.48772718477994,"[74, 0, 180]",180,l,0.13740283338120207,colour,0.5
052,71,1,1,2,24,74,138.99884682049742,139.7596565982676,"[50, 0, 204]",204,l,0.2375719113042578,colour,0.5
052,71,1,1,2,25,75,140.27998118993128,142.54368199023884,"[86, 0, 168]",168,l,1.740286491054576,colour,0.5
052,71,1,1,2,26,76,143.0625446275808,143.78365950955776,"[68, 0, 186]",186,l,0.19772302190540358,colour,0.5
052,71,1,1,2,27,77,144.29694726446178,144.90368391224183,"[37, 0, 217]",217,l,0.08334242459386587,colour,0.5
052,71,1,1,2,28,78,145.42204557813238,147.32765066850698,"[15, 0, 239]",239,a,1.382416060718242,colour,0.5
052,71,1,1,2,29,79,147.84396748885047,148.49568561994238,"[96, 0, 158]",158,l,0.1284101601340808,colour,0.5
052,71,1,1,2,30,80,149.01577390433522,149.9596753452788,"[57, 0, 197]",197,a,0.42065569752594456,colour,0.5
052,71,1,1,2,31,81,150.4688545044046,152.22364277899032,"[45, 0, 209]",209,a,1.2301372905494645,colour,0.5
052,71,1,1,2,32,82,152.73588526807725,153.44764198816847,"[46, 0, 208]",208,a,0.1884578075259924,colour,0.5
052,71,1,1,2,33,83,153.95450021600118,155.54367450717837,"[13, 0, 241]",241,a,1.0658848308958113,colour,0.5
052,71,1,1,2,34,84,156.06405187415658,156.82363324792823,"[69, 0, 185]",185,l,0.23627537197899073,colour,0.5
052,71,1,1,2,35,85,157.32963761885185,159.09567372582387,"[88, 0, 166]",166,l,1.2427202590624802,colour,0.5
052,71,1,1,2,36,86,159.61075465905014,160.27166474924888,"[63, 0, 191]",191,l,0.13753674080362543,colour,0.5
052,71,1,1,2,37,87,160.78404153964948,161.35170241666492,"[39, 0, 215]",215,a,0.04442616127198562,colour,0.5
052,71,1,1,2,38,88,161.86215999809792,162.53563612146536,"[77, 0, 177]",177,l,0.15020359843038023,colour,0.5
052,71,1,1,2,39,89,163.05361063726014,163.62366688234033,"[30, 0, 224]",224,a,0.050863959069829434,colour,0.5
052,71,1,1,2,40,90,164.14316597394645,164.7596365121426,"[73, 0, 181]",181,l,0.09320234559709206,colour,0.5
052,71,1,1,2,41,91,165.2681244724663,167.76764772256138,"[99, 0, 155]",155,l,1.974700155609753,colour,0.5
052,71,1,1,2,42,92,168.28541389416205,168.93593591661192,"[20, 0, 234]",234,a,0.12713016237830743,colour,0.5
052,71,1,1,2,43,93,169.4572447280516,171.14364331465913,"[98, 0, 156]",156,l,1.1631922277156264,colour,0.5
052,71,1,1,2,44,94,171.65378857665928,172.2716426939005,"[60, 0, 194]",194,l,0.09378247993299738,colour,0.5
052,71,1,1,2,45,95,172.78643927077064,173.43963353463914,"[53, 0, 201]",201,l,0.14256496576126665,colour,0.5
052,71,1,1,2,46,96,173.9458332529175,174.8716197721078,"[41, 0, 213]",213,l,0.40199293673504144,colour,0.5
052,71,1,1,2,47,97,175.37456317612668,175.89568569872063,"[84, 0, 170]",170,l,0.009010396373923868,colour,0.5
052,71,1,1,2,48,98,176.41126405878458,176.95972103136592,"[22, 0, 232]",232,a,0.025178146141115576,colour,0.5
052,71,1,1,2,49,99,177.47355898836395,178.33577845717082,"[91, 0, 163]",163,l,0.3387905872659758,colour,0.5
052,71,1,1,2,50,100,178.8486770928139,179.4236544368323,"[31, 0, 223]",223,a,0.05159729934530333,colour,0.5
052,71,1,1,3,1,101,184.41151769523276,185.95159206114477,"[49, 0, 205]",205,a,1.015934593277052,colour,0.5
052,71,1,1,3,2,102,186.45922025688924,188.07162867306033,"[65, 0, 189]",189,a,1.0890689375810325,colour,0.5
052,71,1,1,3,3,103,188.58416694006883,189.1596058709547,"[20, 0, 234]",234,a,0.05205731082241982,colour,0.5
052,71,1,1,3,4,104,189.67790846002754,191.9916134548257,"[97, 0, 157]",157,l,1.7902733563096263,colour,0.5
052,71,1,1,3,5,105,192.50728279323084,193.16761274909368,"[28, 0, 226]",226,a,0.13696960342349485,colour,0.5
052,71,1,1,3,6,106,193.67900610732613,195.10358332411852,"[2, 0, 252]",252,a,0.9011723598232493,colour,0.5
052,71,1,1,3,7,107,195.61650480271783,197.08756602322683,"[37, 0, 217]",217,a,0.9477449787664227,colour,0.5
052,71,1,1,3,8,108,197.6021893080906,199.0155600462458,"[0, 0, 254]",254,a,0.8903719358495437,colour,0.5
052,71,1,1,3,9,109,199.52401964971796,202.10356481332565,"[3, 0, 251]",251,a,2.0563076909747906,colour,0.5
052,71,1,1,3,10,110,202.62340851972112,203.1915884850314,"[86, 0, 168]",168,l,0.04485190816922113,colour,0.5
052,71,1,1,3,11,111,203.70144899678417,204.2635487759835,"[91, 0, 163]",163,l,0.038648842310067266,colour,0.5
052,71,1,1,3,12,112,204.77966788585763,206.8076131902053,"[14, 0, 240]",240,a,1.5044904290116392,colour,0.5
052,71,1,1,3,13,113,207.32127746136393,207.86357862944715,"[93, 0, 161]",161,l,0.018955781764816493,colour,0.5
052,71,1,1,3,14,114,208.37560686661163,208.99953053618083,"[17, 0, 237]",237,a,0.10066099080722779,colour,0.5
052,71,1,1,3,15,115,209.5162734973128,210.0636470010504,"[10, 0, 244]",244,a,0.024119883426465094,colour,0.5
052,71,1,1,3,16,116,210.57877322653076,211.18365328677464,"[67, 0, 187]",187,l,0.0886309813358821,colour,0.5
052,71,1,1,3,17,117,211.69676144816913,212.31155302317347,"[47, 0, 207]",207,l,0.0915367731358856,colour,0.5
052,71,1,1,3,18,118,212.82167819910683,213.3516031675972,"[92, 0, 162]",162,l,0.006478757772129029,colour,0.5
052,71,1,1,3,19,119,213.86855447292328,214.4236245045904,"[33, 0, 221]",221,a,0.03182586363982409,colour,0.5
052,71,1,1,3,20,120,214.93106404831633,215.83955996431177,"[80, 0, 174]",174,l,0.3852017296012491,colour,0.5
052,71,1,1,3,21,121,216.35286819923203,216.8795242503984,"[32, 0, 222]",222,a,0.0032515880302526057,colour,0.5
052,71,1,1,3,22,122,217.39981969754444,218.5995395158534,"[13, 0, 241]",241,a,0.6764114534598775,colour,0.5
052,71,1,1,3,23,123,219.11851479299366,220.7115783080808,"[66, 0, 188]",188,l,1.0696708672912791,colour,0.5
052,71,1,1,3,24,124,221.22922671987908,222.73552805022337,"[98, 0, 156]",156,l,0.9828566949581727,colour,0.5
052,71,1,1,3,25,125,223.24484781216597,225.03149306419073,"[84, 0, 170]",170,l,1.2631513859378174,colour,0.5
052,71,1,1,3,26,126,225.54169897839893,226.3755296728923,"[50, 0, 204]",204,l,0.30918207357171923,colour,0.5
052,71,1,1,3,27,127,226.87790515174856,228.4955111463787,"[46, 0, 208]",208,a,1.0942696667625569,colour,0.5
052,71,1,1,3,28,128,229.00290736713214,230.05550660932204,"[19, 0, 235]",235,a,0.5296520336414687,colour,0.5
052,71,1,1,3,29,129,230.56542659172555,231.43958469782956,"[22, 0, 232]",232,a,0.3509604118298739,colour,0.5
052,71,1,1,3,30,130,231.9558176290593,232.5836557286675,"[87, 0, 167]",167,l,0.1044005534495227,colour,0.5
052,71,1,1,3,31,131,233.09668787784176,233.73551190260332,"[30, 0, 224]",224,a,0.11548178922384977,colour,0.5
052,71,1,1,3,32,132,234.2528251518961,234.87149295391282,"[18, 0, 236]",236,a,0.09522592357825488,colour,0.5
052,71,1,1,3,33,133,235.37800420389976,236.1034884073306,"[58, 0, 196]",196,l,0.20224712463095784,colour,0.5
052,71,1,1,3,34,134,236.61225324100815,237.1755298304488,"[94, 0, 160]",160,l,0.039919781556818634,colour,0.5
052,71,1,1,3,35,135,237.69036421645433,238.31151363864774,"[42, 0, 212]",212,a,0.09790210338542238,colour,0.5
052,71,1,1,3,36,136,238.83231990330387,239.42348508327268,"[52, 0, 202]",202,a,0.0679237688309513,colour,0.5
052,71,1,1,3,37,137,239.94161831884412,240.90349959256127,"[54, 0, 200]",200,l,0.43874777626479045,colour,0.5
052,71,1,1,3,38,138,241.4104472232866,241.951527864323,"[83, 0, 171]",171,l,0.01782505144365132,colour,0.5
052,71,1,1,3,39,139,242.4655257225968,242.99949981627287,"[27, 0, 227]",227,a,0.010698417958337814,colour,0.5
052,71,1,1,3,40,140,243.51248470402788,244.207580579794,"[90, 0, 164]",164,l,0.1719068461097777,colour,0.5
052,71,1,1,3,41,141,244.72389149240917,245.43947678414406,"[53, 0, 201]",201,l,0.19231079757446423,colour,0.5
052,71,1,1,3,42,142,245.95824726164574,247.55148879485205,"[8, 0, 246]",246,a,1.070123395707924,colour,0.5
052,71,1,1,3,43,143,248.06760672322707,248.68748284305912,"[61, 0, 193]",193,l,0.09725147066637874,colour,0.5
052,71,1,1,3,44,144,249.20818788948236,249.82351233740337,"[24, 0, 230]",230,a,0.09220000891946256,colour,0.5
052,71,1,1,3,45,145,250.3332499693497,250.9834502200829,"[43, 0, 211]",211,a,0.12685959052760154,colour,0.5
052,71,1,1,3,46,146,251.50508592330152,253.07149437174667,"[88, 0, 166]",166,l,1.0429878376889974,colour,0.5
052,71,1,1,3,47,147,253.58523623045767,254.1594900803757,"[73, 0, 181]",181,l,0.05096163274720311,colour,0.5
052,71,1,1,3,48,148,254.67903761495836,256.91950586572057,"[21, 0, 233]",233,a,1.7171839104848914,colour,0.5
052,71,1,1,3,49,149,257.4279898875975,258.095508310711,"[89, 0, 165]",165,l,0.14418682135874406,colour,0.5
052,71,1,1,3,50,150,258.61556666286197,259.47945839946624,"[64, 0, 190]",190,l,0.34064205473987386,colour,0.5
052,71,1,1,4,1,151,263.7096437392174,265.0154785202467,"[95, 0, 159]",159,l,0.7816914638387971,colour,0.5
052,71,1,1,4,2,152,265.5253748719115,266.14345978264464,"[77, 0, 177]",177,l,0.09509319759672508,colour,0.5
052,71,1,1,4,3,153,266.65014196158154,267.2394584309659,"[60, 0, 194]",194,l,0.06592894159257412,colour,0.5
052,71,1,1,4,4,154,267.759542776912,268.40743666864,"[1, 0, 253]",253,a,0.1251026459503919,colour,0.5
052,71,1,1,4,5,155,268.91577260463964,269.62343215045985,"[52, 0, 202]",202,l,0.1843822947703302,colour,0.5
052,71,1,1,4,6,156,270.13448995241197,270.8394709552522,"[35, 0, 219]",219,l,0.18158953660167754,colour,0.5
052,71,1,1,4,7,157,271.35563378199004,271.951456578332,"[90, 0, 164]",164,l,0.07244826544774696,colour,0.5
052,71,1,1,4,8,158,272.46509446186246,274.19940907426644,"[85, 0, 169]",169,l,1.2110716259339824,colour,0.5
052,71,1,1,4,9,159,274.7150520249852,275.2955026393174,"[9, 0, 245]",245,a,0.057112711074296385,colour,0.5
052,71,1,1,4,10,160,275.80877621582476,276.51942504860926,"[43, 0, 211]",211,a,0.18746059079421684,colour,0.5
052,71,1,1,4,11,161,277.0273899821914,277.67942279583076,"[61, 0, 193]",193,a,0.12856297212420031,colour,0.5
052,71,1,1,4,12,162,278.19938150508096,278.9353825637372,"[24, 0, 230]",230,a,0.21269308764021844,colour,0.5
052,71,1,1,4,13,163,279.44945604034,280.18342170567485,"[58, 0, 196]",196,a,0.21065060514956713,colour,0.5
052,71,1,1,4,14,164,280.70083105325466,282.16738865099614,"[86, 0, 168]",168,l,0.9432393867173232,colour,0.5
052,71,1,1,4,15,165,282.677577236027,283.23146100516897,"[10, 0, 244]",244,a,0.030529718205798417,colour,0.5
052,71,1,1,4,16,166,283.7402219003998,284.4393972273683,"[73, 0, 181]",181,l,0.17601386649766937,colour,0.5
052,71,1,1,4,17,167,284.95886835595593,285.55939012242015,"[59, 0, 195]",195,l,0.07728035532636568,colour,0.5
052,71,1,1,4,18,168,286.0682459344389,287.6714261576999,"[30, 0, 224]",224,a,1.0804815312149003,colour,0.5
052,71,1,1,4,19,169,288.1776365097612,288.71153459121706,"[98, 0, 156]",156,l,0.011145432537887245,colour,0.5
052,71,1,1,4,20,170,289.2245375958737,289.8315440277802,"[96, 0, 158]",158,l,0.08217624819371849,colour,0.5
052,71,1,1,4,21,171,290.3509214211372,291.00740862684324,"[49, 0, 205]",205,a,0.13311149331275374,colour,0.5
052,71,1,1,4,22,172,291.52279282110976,292.20738405088196,"[66, 0, 188]",188,l,0.16123639116995037,colour,0.5
052,71,1,1,4,23,173,292.7257535937242,293.28740320756333,"[88, 0, 166]",166,l,0.03834636899409816,colour,0.5
052,71,1,1,4,24,174,293.8042788945604,294.4873695731512,"[55, 0, 199]",199,a,0.16013165470212698,colour,0.5
052,71,1,1,4,25,175,295.00737081770785,296.62345341808395,"[42, 0, 212]",212,a,1.092901447613258,colour,0.5
052,71,1,1,4,26,176,297.1342843650491,297.67140213312814,"[21, 0, 233]",233,a,0.013747175631579012,colour,0.5
052,71,1,1,4,27,177,298.18112834356725,299.83144477871247,"[16, 0, 238]",238,a,1.1271514300606214,colour,0.5
052,71,1,1,4,28,178,300.35312026028987,302.6474157633493,"[44, 0, 210]",210,a,1.771001316665206,colour,0.5
052,71,1,1,4,29,179,303.16558168805204,303.81538573023863,"[36, 0, 218]",218,a,0.12649646500358358,colour,0.5
052,71,1,1,4,30,180,304.32187334954506,304.87939467525575,"[33, 0, 221]",221,a,0.03420941630611196,colour,0.5
052,71,1,1,4,31,181,305.3999496665201,305.96737226704136,"[4, 0, 250]",250,a,0.042320269625633955,colour,0.5
052,71,1,1,4,32,182,306.4800901275594,307.8073835782707,"[28, 0, 226]",226,a,0.803912618313916,colour,0.5
052,71,1,1,4,33,183,308.32384612143505,309.679394045088,"[8, 0, 246]",246,a,0.8325487275142223,colour,0.5
052,71,1,1,4,34,184,310.1998903534259,310.8554421761655,"[53, 0, 201]",201,a,0.13215641805436462,colour,0.5
052,71,1,1,4,35,185,311.3717932610307,313.3034090868896,"[81, 0, 173]",173,l,1.408335424028337,colour,0.5
052,71,1,1,4,36,186,313.8249798055622,314.37537213473115,"[99, 0, 155]",155,l,0.027416369877755642,colour,0.5
052,71,1,1,4,37,187,314.8873164827819,315.5993815838592,"[63, 0, 191]",191,l,0.18869057018309832,colour,0.5
052,71,1,1,4,38,188,316.10731776669854,317.53535215888405,"[13, 0, 241]",241,a,0.9048477255855687,colour,0.5
052,71,1,1,4,39,189,318.0447211514693,318.6233506244607,"[38, 0, 216]",216,a,0.05537073267623782,colour,0.5
052,71,1,1,4,40,190,319.13857255439507,321.0153225574177,"[50, 0, 204]",204,a,1.3534199766581878,colour,0.5
052,71,1,1,4,41,191,321.5291357021779,323.0553293788689,"[48, 0, 206]",206,a,1.0150488349027,colour,0.5
052,71,1,1,4,42,192,323.56379646540154,324.2553713627858,"[76, 0, 178]",178,l,0.1682291172328405,colour,0.5
052,71,1,1,4,43,193,324.77529698901344,325.3193787324126,"[2, 0, 252]",252,a,0.02905516081955284,colour,0.5
052,71,1,1,4,44,194,325.8293077732669,326.4473395148525,"[20, 0, 234]",234,a,0.09487343183718622,colour,0.5
052,71,1,1,4,45,195,326.9543281055521,328.41524741169997,"[67, 0, 187]",187,l,0.9374183508916758,colour,0.5
052,71,1,1,4,46,196,328.9246006505564,329.543258212565,"[92, 0, 162]",162,l,0.09557920292718336,colour,0.5
052,71,1,1,4,47,197,330.0495311860577,330.8073327722377,"[82, 0, 172]",172,l,0.2347444947808981,colour,0.5
052,71,1,1,4,48,198,331.3152102720924,331.847936663311,"[45, 0, 209]",209,a,0.009402272524312139,colour,0.5
052,71,1,1,4,49,199,332.36204873677343,333.8633663467481,"[23, 0, 231]",231,a,0.9779418975231238,colour,0.5
052,71,1,1,4,50,200,334.38006047101226,336.1113653164357,"[40, 0, 214]",214,a,1.2078389424132183,colour,0.5
052,71,1,1,5,1,201,342.2867285502725,343.82334731612355,"[50, 0, 204]",204,a,1.012456150201615,colour,0.4
052,71,1,1,5,2,202,344.33446261950303,346.0473563714186,"[53, 0, 201]",201,a,1.189594051684253,colour,0.4
052,71,1,1,5,3,203,346.56883650569944,348.10329778614687,"[12, 0, 242]",242,a,1.0112423185491934,colour,0.4
052,71,1,1,5,4,204,348.6156162873958,350.8713271449669,"[7, 0, 247]",247,a,1.7324737787712365,colour,0.4
052,71,1,1,5,5,205,351.38262440491235,351.92734890413703,"[39, 0, 215]",215,a,0.021284590009599924,colour,0.4
052,71,1,1,5,6,206,352.4450741157634,353.9193873182521,"[73, 0, 181]",181,l,0.9509536377154291,colour,0.4
052,71,1,1,5,7,207,354.4294238789007,355.13532687397674,"[57, 0, 197]",197,l,0.18258990405593067,colour,0.4
052,71,1,1,5,8,208,355.649655168585,357.43931845831685,"[89, 0, 165]",165,l,1.2667117488454096,colour,0.4
052,71,1,1,5,9,209,357.9460770432488,359.6392997900257,"[75, 0, 179]",179,l,1.1697875637328252,colour,0.4
052,71,1,1,5,10,210,360.14926467079204,360.77529501979006,"[65, 0, 189]",189,l,0.1027125318069011,colour,0.4
052,71,1,1,5,11,211,361.28982141864253,361.91126701264875,"[69, 0, 185]",185,l,0.0995511343353428,colour,0.4
052,71,1,1,5,12,212,362.4289520520251,362.99131216306705,"[96, 0, 158]",158,l,0.0390186631702818,colour,0.4
052,71,1,1,5,13,213,363.5071287996252,364.11927176394965,"[84, 0, 170]",170,l,0.08884759637294337,colour,0.4
052,71,1,1,5,14,214,364.63554211054,365.19930903753266,"[3, 0, 251]",251,a,0.040421934507321566,colour,0.4
052,71,1,1,5,15,215,365.71367002127226,366.30330274859443,"[27, 0, 227]",227,a,0.06742437282809988,colour,0.4
052,71,1,1,5,16,216,366.82187866640743,367.35128415276995,"[56, 0, 198]",198,a,0.006047103146556765,colour,0.4
052,71,1,1,5,17,217,367.86879905097885,368.4392515045474,"[99, 0, 155]",155,l,0.047103522636462,colour,0.4
052,71,1,1,5,18,218,368.9468773371773,369.58328196930233,"[87, 0, 167]",167,l,0.11302261817036197,colour,0.4
052,71,1,1,5,19,219,370.10311267874204,371.647283825092,"[30, 0, 224]",224,a,1.0197686788160354,colour,0.4
052,71,1,1,5,20,220,372.1670487623778,372.86329033458605,"[67, 0, 187]",187,l,0.1733081482234411,colour,0.4
052,71,1,1,5,21,221,373.37016077165026,373.9432677436271,"[82, 0, 172]",172,l,0.049785216397140175,colour,0.4
052,71,1,1,5,22,222,374.4640314729768,375.0152701759944,"[41, 0, 213]",213,a,0.027992171933874488,colour,0.4
052,71,1,1,5,23,223,375.5264217131771,376.1752635908779,"[45, 0, 209]",209,a,0.12546380225103348,colour,0.4
052,71,1,1,5,24,224,376.6839535939507,378.5272775393096,"[16, 0, 238]",238,a,1.3205539672635496,colour,0.4
052,71,1,1,5,25,225,379.04334348009434,379.5912640351453,"[32, 0, 222]",222,a,0.024515304248780012,colour,0.4
052,71,1,1,5,26,226,380.1058077632333,380.9112701633712,"[54, 0, 200]",200,l,0.2824045210145414,colour,0.4
052,71,1,1,5,27,227,381.41841707995627,382.01526426832424,"[23, 0, 231]",231,a,0.07358647882938385,colour,0.4
052,71,1,1,5,28,228,382.5288997887401,383.19123047951143,"[77, 0, 177]",177,l,0.1393381899688393,colour,0.4
052,71,1,1,5,29,229,383.7007381057483,384.25528156600194,"[21, 0, 233]",233,a,0.031192953931167722,colour,0.4
052,71,1,1,5,30,230,384.76330321334535,385.3672199276043,"[58, 0, 196]",196,l,0.08039567287778482,colour,0.4
052,71,1,1,5,31,231,385.88827234570635,386.47127468470717,"[74, 0, 180]",180,l,0.059616780490614474,colour,0.4
052,71,1,1,5,32,232,386.9819784195861,388.9992272751988,"[66, 0, 188]",188,l,1.4939278876991011,colour,0.4
052,71,1,1,5,33,233,389.51453742652666,390.0872403130634,"[98, 0, 156]",156,l,0.0492027189466171,colour,0.4
052,71,1,1,5,34,234,390.6083805586677,391.36722465377534,"[92, 0, 162]",162,l,0.2358236312866211,colour,0.4
052,71,1,1,5,35,235,391.8739891463774,392.51920567668276,"[38, 0, 216]",216,a,0.12200347607722506,colour,0.4
052,71,1,1,5,36,236,393.03025520790834,393.77524500136496,"[2, 0, 252]",252,a,0.22162392718018964,colour,0.4
052,71,1,1,5,37,237,394.2958378018229,394.93522266246146,"[72, 0, 182]",182,l,0.11629823077237234,colour,0.4
052,71,1,1,5,38,238,395.45206605416024,396.05524391436484,"[64, 0, 190]",190,l,0.07983365544350818,colour,0.4
052,71,1,1,5,39,239,396.56143614958273,397.1352740987204,"[60, 0, 194]",194,l,0.06256274454062805,colour,0.4
052,71,1,1,5,40,240,397.6431133955484,398.183236204437,"[42, 0, 212]",212,l,0.016643121256493032,colour,0.4
052,71,1,1,5,41,241,398.69001920783194,399.25521027995273,"[51, 0, 203]",203,l,0.04238998022628948,colour,0.4
052,71,1,1,5,42,242,399.7681376662804,400.3112170730019,"[29, 0, 225]",225,a,0.019716297334525734,colour,0.4
052,71,1,1,5,43,243,400.83068859542254,401.44720875815256,"[68, 0, 186]",186,l,0.09349300351459533,colour,0.4
052,71,1,1,5,44,244,401.9567463166313,402.6551890911069,"[86, 0, 168]",168,l,0.17509856971446425,colour,0.4
052,71,1,1,5,45,245,403.17551289504627,403.76719322492136,"[95, 0, 159]",159,l,0.06857912772102281,colour,0.4
052,71,1,1,5,46,246,404.28490307659376,404.87122828973224,"[37, 0, 217]",217,a,0.06333665084093809,colour,0.4
052,71,1,1,5,47,247,405.378625692043,406.0072447871207,"[1, 0, 253]",253,a,0.10519769659731537,colour,0.4
052,71,1,1,5,48,248,406.51925569510786,407.15117285202723,"[47, 0, 207]",207,a,0.10856113681802526,colour,0.4
052,71,1,1,5,49,249,407.6598790027783,409.1672342636157,"[90, 0, 164]",164,l,0.9840323237003759,colour,0.4
052,71,1,1,5,50,250,409.67708020308055,410.23932531120954,"[44, 0, 210]",210,a,0.039186047448311,colour,0.4
052,71,1,1,6,1,251,415.3801368770073,416.3512057775515,"[53, 0, 201]",201,a,0.4468479957431555,colour,0.28
052,71,1,1,6,2,252,416.8653627493768,417.3992813107907,"[81, 0, 173]",173,l,0.010638553474564105,colour,0.28
052,71,1,1,6,3,253,417.91225005086744,418.47119552182266,"[91, 0, 163]",163,l,0.03565679833991453,colour,0.28
052,71,1,1,6,4,254,418.9903015556047,419.5911943244864,"[69, 0, 185]",185,l,0.07763245317619294,colour,0.28
052,71,1,1,6,5,255,420.0997185186134,420.68717367440695,"[64, 0, 190]",190,a,0.06412434176309034,colour,0.28
052,71,1,1,6,6,256,421.1948451931239,421.7592080082977,"[82, 0, 172]",172,l,0.04127185302786529,colour,0.28
052,71,1,1,6,7,257,422.27274309814675,422.83118168992223,"[58, 0, 196]",196,a,0.03577613347442821,colour,0.28
052,71,1,1,6,8,258,423.3508780981065,424.015192588442,"[78, 0, 176]",176,l,0.14085922110825777,colour,0.28
052,71,1,1,6,9,259,424.522753042751,425.05517380987294,"[87, 0, 167]",167,l,0.008992673305328935,colour,0.28
052,71,1,1,6,10,260,425.5696497965255,426.11119005520595,"[88, 0, 166]",166,l,0.016936536121647805,colour,0.28
052,71,1,1,6,11,261,426.6177682589623,427.1431651862222,"[18, 0, 236]",236,a,0.001978679560124874,colour,0.28
052,71,1,1,6,12,262,427.6645460714353,428.1991491362569,"[99, 0, 155]",155,l,0.011115500296000391,colour,0.28
052,71,1,1,6,13,263,428.7115282897139,429.6071738161845,"[60, 0, 194]",194,l,0.3722576048457995,colour,0.28
052,71,1,1,6,14,264,430.11776412359904,431.6711457397323,"[46, 0, 208]",208,a,1.030274112476036,colour,0.28
052,71,1,1,6,15,265,432.1807010212797,433.0151626562001,"[74, 0, 180]",180,l,0.31149079563328996,colour,0.28
052,71,1,1,6,16,266,433.5244662704645,434.07114896929124,"[89, 0, 165]",165,l,0.023575982835609466,colour,0.28
052,71,1,1,6,17,267,434.58696284895996,435.2551823169342,"[97, 0, 157]",157,l,0.14489771239459515,colour,0.28
052,71,1,1,6,18,268,435.77446085511474,436.36713682621485,"[61, 0, 193]",193,a,0.06969646725337952,colour,0.28
052,71,1,1,6,19,269,436.88383922126377,437.4231247146963,"[41, 0, 213]",213,a,0.01593104872154072,colour,0.28
052,71,1,1,6,20,270,437.93067453516414,438.55110794631764,"[13, 0, 241]",241,a,0.09708723716903478,colour,0.28
052,71,1,1,6,21,271,439.0713076890097,439.6232131723664,"[71, 0, 183]",183,l,0.027224173303693533,colour,0.28
052,71,1,1,6,22,272,440.1352126587881,440.77514220774174,"[76, 0, 178]",178,l,0.11655580572551116,colour,0.28
052,71,1,1,6,23,273,441.2906902417308,441.9111307421117,"[63, 0, 191]",191,l,0.09856573300203308,colour,0.28
052,71,1,1,6,24,274,442.4318598130485,442.9831879190169,"[80, 0, 174]",174,l,0.02863138308748603,colour,0.28
052,71,1,1,6,25,275,443.49432488391176,444.1031189803034,"[86, 0, 168]",168,l,0.08539751020725816,colour,0.28
052,71,1,1,6,26,276,444.619381056109,446.30315702577354,"[7, 0, 247]",247,a,1.160433340293821,colour,0.28
052,71,1,1,6,27,277,446.822557655978,448.8631773009547,"[29, 0, 225]",225,a,1.5173577538807876,colour,0.28
052,71,1,1,6,28,278,449.3706719830516,450.1111258584424,"[59, 0, 195]",195,a,0.21716480900067836,colour,0.28
052,71,1,1,6,29,279,450.6205448693945,451.21512035717024,"[84, 0, 170]",170,l,0.0710694125154987,colour,0.28
052,71,1,1,6,30,280,451.7299716785783,452.25516459392384,"[40, 0, 214]",214,a,0.0017045631539076567,colour,0.28
052,71,1,1,6,31,281,452.7768830046407,453.3431327333674,"[54, 0, 200]",200,a,0.04291970236226916,colour,0.28
052,71,1,1,6,32,282,453.8550077646505,454.5191225752933,"[16, 0, 238]",238,a,0.1407698181574233,colour,0.28
052,71,1,1,6,33,283,455.0268634108361,455.5751277930103,"[79, 0, 175]",175,l,0.02484889136394486,colour,0.28
052,71,1,1,6,34,284,456.08937338006217,457.7991285775206,"[11, 0, 243]",243,a,1.1866988937254064,colour,0.28
052,71,1,1,6,35,285,458.3095412605908,458.9591617708211,"[73, 0, 181]",181,l,0.1262621270143427,colour,0.28
052,71,1,1,6,36,286,459.46573800529586,460.09510461910395,"[94, 0, 160]",160,l,0.10605391662102193,colour,0.28
052,71,1,1,6,37,287,460.6063676145277,462.055103311548,"[12, 0, 242]",242,a,0.9256912086275406,colour,0.28
052,71,1,1,6,38,288,462.5751545744715,463.2310860642465,"[77, 0, 177]",177,l,0.13282162306131795,colour,0.28
052,71,1,1,6,39,289,463.74701494682813,464.3271351248259,"[66, 0, 188]",188,l,0.05680196703178808,colour,0.28
052,71,1,1,6,40,290,464.84073992533376,465.41513359040255,"[95, 0, 159]",159,l,0.05116052471566945,colour,0.28
052,71,1,1,6,41,291,465.93449444224825,467.4791003939463,"[38, 0, 216]",216,a,1.0212310269707814,colour,0.28
052,71,1,1,6,42,292,467.99698432534933,468.6230528772576,"[70, 0, 184]",184,l,0.10277712246170267,colour,0.28
052,71,1,1,6,43,293,469.1403172897408,469.7512050686055,"[67, 0, 187]",187,l,0.08826706814579666,colour,0.28
052,71,1,1,6,44,294,470.2644172051805,471.00706676900154,"[34, 0, 220]",220,a,0.21956962934928015,colour,0.28
052,71,1,1,6,45,295,471.51453624496935,472.0551040992141,"[85, 0, 169]",169,l,0.0172752431826666,colour,0.28
052,71,1,1,6,46,296,472.56137628504075,473.1671023253584,"[1, 0, 253]",253,a,0.08230188488960266,colour,0.28
052,71,1,1,6,47,297,473.6863178482163,474.25510591093916,"[15, 0, 239]",239,a,0.045371784188319,colour,0.28
052,71,1,1,6,48,298,474.7644150390406,476.23914729303215,"[72, 0, 182]",182,l,0.951360086153727,colour,0.28
052,71,1,1,6,49,299,476.74990892322967,477.3190648375894,"[83, 0, 171]",171,a,0.045831795723643154,colour,0.28
052,71,1,1,6,50,300,477.82806479698047,478.60712852398865,"[56, 0, 198]",198,l,0.25556040863739327,colour,0.28
052,71,1,1,7,1,301,483.39461818058044,484.3030676228227,"[89, 0, 165]",165,l,0.3843632325879298,colour,0.14
052,71,1,1,7,2,302,484.81718048400944,485.51106055884156,"[61, 0, 193]",193,l,0.1705862822709605,colour,0.14
052,71,1,1,7,3,303,486.02026453020517,487.73506803874625,"[49, 0, 205]",205,a,1.1914533960516565,colour,0.14
052,71,1,1,7,4,304,488.254601001041,489.9110437022755,"[50, 0, 204]",204,a,1.1330669887829572,colour,0.14
052,71,1,1,7,5,305,490.4264503457234,490.9910664035124,"[87, 0, 167]",167,l,0.04121277621015906,colour,0.14
052,71,1,1,7,6,306,491.5045680165058,492.91107245296007,"[58, 0, 196]",196,l,0.8830724041326903,colour,0.14
052,71,1,1,7,7,307,493.42646846262505,495.1590446411865,"[59, 0, 195]",195,a,1.20913311856566,colour,0.14
052,71,1,1,7,8,308,495.6764551703236,497.1910095321946,"[53, 0, 201]",201,a,0.9898376056808047,colour,0.14
052,71,1,1,7,9,309,497.70911874319427,499.43104770372156,"[98, 0, 156]",156,l,1.1986351679661311,colour,0.14
052,71,1,1,7,10,310,499.9434705739841,500.5350276302197,"[82, 0, 172]",172,l,0.068207731412258,colour,0.14
052,71,1,1,7,11,311,501.05283791251713,501.72708676056936,"[51, 0, 203]",203,a,0.15086210798472166,colour,0.14
052,71,1,1,7,12,312,502.24032961711055,502.8070464465418,"[64, 0, 190]",190,a,0.043432882986962795,colour,0.14
052,71,1,1,7,13,313,503.3184492571163,505.3669781064964,"[92, 0, 162]",162,l,1.5251448662020266,colour,0.14
052,71,1,1,7,14,314,505.88099998934194,506.46303149935557,"[69, 0, 185]",185,l,0.0567570686689578,colour,0.14
052,71,1,1,7,15,315,506.9765209031175,507.6230465757544,"[57, 0, 197]",197,l,0.12320194783387706,colour,0.14
052,71,1,1,7,16,316,508.13273537089117,508.67905100574717,"[86, 0, 168]",168,l,0.024055292771663517,colour,0.14
052,71,1,1,7,17,317,509.1940712868236,510.73499438964063,"[30, 0, 224]",224,a,1.0174473536899313,colour,0.14
052,71,1,1,7,18,318,511.2433216610225,511.90301043650834,"[68, 0, 186]",186,a,0.13672029925510287,colour,0.14
052,71,1,1,7,19,319,512.4151241381187,513.0150866440381,"[81, 0, 173]",173,l,0.0764647014439106,colour,0.14
052,71,1,1,7,20,320,513.5245694579789,514.1430092234514,"[65, 0, 189]",189,l,0.09523458813782781,colour,0.14
052,71,1,1,7,21,321,514.650967067806,516.1589898966486,"[76, 0, 178]",178,l,0.9847589685232379,colour,0.14
052,71,1,1,7,22,322,516.666613760055,517.4149957444752,"[96, 0, 158]",158,l,0.22502399503719062,colour,0.14
052,71,1,1,7,23,323,517.9322058063117,518.7910023642471,"[99, 0, 155]",155,l,0.3354499901179224,colour,0.14
052,71,1,1,7,24,324,519.3072880707332,519.9029812919325,"[56, 0, 198]",198,a,0.07245929312193766,colour,0.14
052,71,1,1,7,25,325,520.4166428062017,521.1190401828499,"[66, 0, 188]",188,a,0.17919456242816523,colour,0.14
052,71,1,1,7,26,326,521.6339868148207,523.1589891089825,"[63, 0, 191]",191,a,1.0016419417224824,colour,0.14
052,71,1,1,7,27,327,523.6675377215142,524.2869621006539,"[79, 0, 175]",175,l,0.09597777453018352,colour,0.14
052,71,1,1,7,28,328,524.808121644659,526.1510539107258,"[88, 0, 166]",166,l,0.8196810088120401,colour,0.14
052,71,1,1,7,29,329,526.667466041632,527.2469804853317,"[27, 0, 227]",227,a,0.056017426890321076,colour,0.14
052,71,1,1,7,30,330,527.7612457646756,528.3589755606954,"[95, 0, 159]",159,l,0.07424459455069155,colour,0.14
052,71,1,1,7,31,331,528.8706288569374,529.5749844332458,"[75, 0, 179]",179,l,0.18143790611065924,colour,0.14
052,71,1,1,7,32,332,530.090175249381,530.8231586641632,"[94, 0, 160]",160,l,0.21064706053584814,colour,0.14
052,71,1,1,7,33,333,531.3406168486108,531.8949803214637,"[52, 0, 202]",202,a,0.031123637105338275,colour,0.14
052,71,1,1,7,34,334,532.4030196918757,533.0310011511901,"[72, 0, 182]",182,l,0.10468057752586901,colour,0.14
052,71,1,1,7,35,335,533.543728070159,534.1989841150353,"[2, 0, 252]",252,a,0.13200911990134045,colour,0.14
052,71,1,1,7,36,336,534.7156372793252,535.2870109374635,"[71, 0, 183]",183,l,0.04792862891918048,colour,0.14
052,71,1,1,7,37,337,535.7951976060285,536.3990123143303,"[78, 0, 176]",176,l,0.08034014067379758,colour,0.14
052,71,1,1,7,38,338,536.9202518090024,537.5509610419394,"[93, 0, 161]",161,l,0.10731185902841389,colour,0.14
052,71,1,1,7,39,339,538.060814464523,538.5990452397964,"[73, 0, 181]",181,l,0.014801499899476767,colour,0.14
052,71,1,1,7,40,340,539.1076340245781,539.7430465599755,"[70, 0, 184]",184,l,0.11195884156040847,colour,0.14
052,71,1,1,7,41,341,540.264025722805,540.8789464791189,"[80, 0, 174]",174,l,0.09169667441165075,colour,0.14
052,71,1,1,7,42,342,541.390155911562,541.9989724571933,"[85, 0, 169]",169,l,0.08547352236928418,colour,0.14
052,71,1,1,7,43,343,542.5152333514416,543.1189696845249,"[97, 0, 157]",157,l,0.08045514358673245,colour,0.14
052,71,1,1,7,44,344,543.6401426193188,545.3350096708746,"[90, 0, 164]",164,l,1.1715106375631876,colour,0.14
052,71,1,1,7,45,345,545.844626392296,547.382990287384,"[62, 0, 192]",192,a,1.014988576527685,colour,0.14
052,71,1,1,7,46,346,547.8794730505324,548.5349409842165,"[60, 0, 194]",194,a,0.1331500901724212,colour,0.14
052,71,1,1,7,47,347,549.0515240440727,549.6069367212476,"[54, 0, 200]",200,a,0.03202751249773428,colour,0.14
052,71,1,1,7,48,348,550.1140446470818,550.6709476354881,"[48, 0, 206]",206,a,0.033985712099820375,colour,0.14
052,71,1,1,7,49,349,551.192136717902,552.8309611364966,"[33, 0, 221]",221,a,1.1158019855502062,colour,0.14
052,71,1,1,7,50,350,553.3483838748652,554.0390001523774,"[0, 0, 254]",254,a,0.16725238045910373,colour,0.14
052,71,1,1,8,1,351,558.5215214879718,560.7909098105738,"[10, 0, 244]",244,a,1.7460110347601585,colour,0.06
052,71,1,1,8,2,352,561.3034732836531,562.3829536597477,"[79, 0, 175]",175,l,0.558631969965063,colour,0.06
052,71,1,1,8,3,353,562.8983138294425,563.8949440877186,"[70, 0, 184]",184,l,0.4733179549803026,colour,0.06
052,71,1,1,8,4,354,564.4140036477474,564.982890565705,"[98, 0, 156]",156,l,0.04600154311629012,colour,0.06
052,71,1,1,8,5,355,565.4909433267894,566.1108623758191,"[29, 0, 225]",225,a,0.0966945732361637,colour,0.06
052,71,1,1,8,6,356,566.6316229543881,567.2309174984111,"[67, 0, 187]",187,l,0.07604761904804036,colour,0.06
052,71,1,1,8,7,357,567.740955240617,568.3190152130555,"[55, 0, 199]",199,a,0.05488551507005468,colour,0.06
052,71,1,1,8,8,358,568.8347105452558,569.3589944652631,"[52, 0, 202]",202,a,0.0010586566058918834,colour,0.06
052,71,1,1,8,9,359,569.8815785483457,570.5029213486705,"[65, 0, 189]",189,a,0.09780364204198122,colour,0.06
052,71,1,1,8,10,360,571.0244022705592,571.6549157623667,"[81, 0, 173]",173,l,0.10812790686031803,colour,0.06
052,71,1,1,8,11,361,572.1640354507836,572.7268949578283,"[64, 0, 190]",190,l,0.03958186216186732,colour,0.06
052,71,1,1,8,12,362,573.2422220445587,574.7189034397015,"[96, 0, 158]",158,l,0.9537475773249753,colour,0.06
052,71,1,1,8,13,363,575.228923458897,575.9428813811974,"[53, 0, 201]",201,l,0.19106033828575164,colour,0.06
052,71,1,1,8,14,364,576.4627487183316,577.1109025480691,"[82, 0, 172]",172,l,0.1247690588934347,colour,0.06
052,71,1,1,8,15,365,577.6188639369793,578.9428801996983,"[51, 0, 203]",203,a,0.8004723782651126,colour,0.06
052,71,1,1,8,16,366,579.462751081388,580.0788919709157,"[68, 0, 186]",186,a,0.0926911341957748,colour,0.06
052,71,1,1,8,17,367,580.5882125205826,582.1028972453205,"[83, 0, 171]",171,l,0.9912849877728149,colour,0.06
052,71,1,1,8,18,368,582.6193475792534,584.1989297643304,"[86, 0, 168]",168,l,1.056104072893504,colour,0.06
052,71,1,1,8,19,369,584.7131095792283,585.3428983953199,"[54, 0, 200]",200,a,0.10629573772894219,colour,0.06
052,71,1,1,8,20,370,585.8537517914665,586.5828778838622,"[66, 0, 188]",188,l,0.20570114930160344,colour,0.06
052,71,1,1,8,21,371,587.1037262899918,588.6148597102729,"[88, 0, 166]",166,l,0.9876084404531866,colour,0.06
052,71,1,1,8,22,372,589.1349881669157,589.7429043817683,"[61, 0, 193]",193,l,0.08210968831554055,colour,0.06
052,71,1,1,8,23,373,590.2623841749737,590.8069357759668,"[56, 0, 198]",198,a,0.021121931786183268,colour,0.06
052,71,1,1,8,24,374,591.3247878059046,591.9749175582547,"[58, 0, 196]",196,a,0.12697104876860976,colour,0.06
052,71,1,1,8,25,375,592.4810471720411,593.478841637494,"[71, 0, 183]",183,a,0.47428563330322504,colour,0.06
052,71,1,1,8,26,376,593.9968070948962,595.6228358684457,"[72, 0, 182]",182,l,1.1026837811223231,colour,0.06
052,71,1,1,8,27,377,596.1388238277868,596.7109162538545,"[75, 0, 179]",179,l,0.04881517501780763,colour,0.06
052,71,1,1,8,28,378,597.2169249570579,597.7908574290923,"[93, 0, 161]",161,l,0.050980537314899266,colour,0.06
052,71,1,1,8,29,379,598.3105861325748,598.9188611407299,"[2, 0, 252]",252,a,0.08539869176456705,colour,0.06
052,71,1,1,8,30,380,599.435626157152,600.1668853164883,"[59, 0, 195]",195,a,0.2077822286519222,colour,0.06
052,71,1,1,8,31,381,600.6856179848546,601.542875788582,"[92, 0, 162]",162,l,0.3338801221107133,colour,0.06
052,71,1,1,8,32,382,602.0539560397156,602.7028967727092,"[62, 0, 192]",192,a,0.12577966635581106,colour,0.06
052,71,1,1,8,33,383,603.2102929934044,604.9268471450196,"[99, 0, 155]",155,l,1.1931528392015025,colour,0.06
052,71,1,1,8,34,384,605.4364800141193,606.0388473403873,"[57, 0, 197]",197,a,0.07901209383271635,colour,0.06
052,71,1,1,8,35,385,606.5458635002142,607.1748579301056,"[76, 0, 178]",178,l,0.10615513497032225,colour,0.06
052,71,1,1,8,36,386,607.6864312757389,608.4308539317572,"[90, 0, 164]",164,l,0.22115406958619133,colour,0.06
052,71,1,1,8,37,387,608.9520611310727,609.550847220642,"[85, 0, 169]",169,l,0.07535366335650906,colour,0.06
052,71,1,1,8,38,388,610.0613201620872,611.1588552015019,"[69, 0, 185]",185,l,0.5739943057415076,colour,0.06
052,71,1,1,8,39,389,611.6720913626486,612.9107943981071,"[87, 0, 167]",167,l,0.7156715439632535,colour,0.06
052,71,1,1,8,40,390,613.4220802365453,614.5428143487079,"[73, 0, 181]",181,l,0.5973320120829158,colour,0.06
052,71,1,1,8,41,391,615.0627214642009,615.926793582039,"[60, 0, 194]",194,a,0.3405046027037315,colour,0.06
052,71,1,1,8,42,392,616.4398789003608,616.9988613927853,"[84, 0, 170]",170,l,0.03563041071174666,colour,0.06
052,71,1,1,8,43,393,617.5180398941739,618.3188407394919,"[74, 0, 180]",180,a,0.27748027129564434,colour,0.06
052,71,1,1,8,44,394,618.8305676848977,620.4868343371782,"[89, 0, 165]",165,l,1.1329382013063878,colour,0.06
052,71,1,1,8,45,395,621.0023358973558,622.518803166633,"[95, 0, 159]",159,l,0.9930490215192549,colour,0.06
052,71,1,1,8,46,396,623.0351014762418,624.5668633399182,"[63, 0, 191]",191,a,1.0083770928322338,colour,0.06
052,71,1,1,8,47,397,625.0819387593656,625.6388460800517,"[77, 0, 177]",177,l,0.03364149114349857,colour,0.06
052,71,1,1,8,48,398,626.1599831748754,626.7108654478216,"[78, 0, 176]",176,l,0.02747505286242813,colour,0.06
052,71,1,1,8,49,399,627.2225683685974,627.8147796021076,"[97, 0, 157]",157,l,0.06925299728754908,colour,0.06
052,71,1,1,8,50,400,628.3318333072821,628.8868541081902,"[94, 0, 160]",160,l,0.0322051367838867,colour,0.06
052,71,1,1,9,1,401,633.3494657683186,635.7588385812123,"[60, 0, 194]",194,a,1.8851361543056555,colour,0.06
052,71,1,1,9,2,402,636.2720967977657,638.8068412530702,"[71, 0, 183]",183,a,2.0113640167401172,colour,0.06
052,71,1,1,9,3,403,639.3203594075749,639.8787893347908,"[65, 0, 189]",189,l,0.035455149482004344,colour,0.06
052,71,1,1,9,4,404,640.3980899282615,641.078757275769,"[77, 0, 177]",177,l,0.1572026259964332,colour,0.06
052,71,1,1,9,5,405,641.5856273190002,642.8628031477565,"[86, 0, 168]",168,l,0.7601721420069225,colour,0.06
052,71,1,1,9,6,406,643.3761846378911,643.9427616521716,"[87, 0, 167]",167,l,0.043278889439534396,colour,0.06
052,71,1,1,9,7,407,644.4542475641356,645.054775632103,"[97, 0, 157]",157,l,0.07718346931505948,colour,0.06
052,71,1,1,9,8,408,645.5636263241176,646.2708829660551,"[72, 0, 182]",182,l,0.19130334095098078,colour,0.06
052,71,1,1,9,9,409,646.7840112135746,648.1267528583994,"[57, 0, 197]",197,a,0.819514018308837,colour,0.06
052,71,1,1,9,10,410,648.6433355244226,649.1907614095835,"[18, 0, 236]",236,a,0.024527513480279595,colour,0.06
052,71,1,1,9,11,411,649.705898268905,650.5347708429908,"[81, 0, 173]",173,l,0.30540430796099827,colour,0.06
052,71,1,1,9,12,412,651.0495949889882,651.9587604422704,"[59, 0, 195]",195,l,0.38590868219034746,colour,0.06
052,71,1,1,9,13,413,652.4714660936152,653.0227792334626,"[75, 0, 179]",179,l,0.028629807755351067,colour,0.06
052,71,1,1,9,14,414,653.5339835459017,654.0707637884188,"[62, 0, 192]",192,a,0.013482511509209871,colour,0.06
052,71,1,1,9,15,415,654.5813781203469,655.3028336786665,"[67, 0, 187]",187,a,0.19811686733737588,colour,0.06
052,71,1,1,9,16,416,655.8157362526981,656.4467739527463,"[79, 0, 175]",175,l,0.10764347686199471,colour,0.06
052,71,1,1,9,17,417,656.9563449881389,657.5187259729719,"[89, 0, 165]",165,l,0.038956435571890324,colour,0.06
052,71,1,1,9,18,418,658.034562301822,658.5827483087196,"[85, 0, 169]",169,l,0.024912300461437553,colour,0.06
052,71,1,1,9,19,419,659.0970108311158,660.7107791956514,"[93, 0, 161]",161,l,1.0903705967939459,colour,0.06
052,71,1,1,9,20,420,661.2219902034849,661.766748179507,"[76, 0, 178]",178,l,0.020096752035897225,colour,0.06
052,71,1,1,9,21,421,662.2858573641279,662.9907710194238,"[52, 0, 202]",202,a,0.18146705068647861,colour,0.06
052,71,1,1,9,22,422,663.5046849885839,664.1347557980916,"[98, 0, 156]",156,l,0.1066647709812969,colour,0.06
052,71,1,1,9,23,423,664.6471487361123,665.3106999539305,"[26, 0, 228]",228,a,0.14010658243205398,colour,0.06
052,71,1,1,9,24,424,665.8190977236954,666.670745986572,"[56, 0, 198]",198,l,0.3285533622838557,colour,0.06
052,71,1,1,9,25,425,667.1782481517876,668.2627299712622,"[82, 0, 172]",172,l,0.5606835109065287,colour,0.06
052,71,1,1,9,26,426,668.7725499169319,669.7987626951071,"[90, 0, 164]",164,l,0.5035893105668947,colour,0.06
052,71,1,1,9,27,427,670.3199568975251,670.9747222109581,"[99, 0, 155]",155,l,0.13136951491469517,colour,0.06
052,71,1,1,9,28,428,671.4918928882107,672.5347661168198,"[96, 0, 158]",158,l,0.5195951898931526,colour,0.06
052,71,1,1,9,29,429,673.054325466801,674.9987719898345,"[54, 0, 200]",200,a,1.4194414719822817,colour,0.06
052,71,1,1,9,30,430,675.5089105564984,676.0787793311174,"[58, 0, 196]",196,a,0.047979041119106114,colour,0.06
052,71,1,1,9,31,431,676.5859904445242,677.7827304281527,"[74, 0, 180]",180,l,0.6734450095682405,colour,0.06
052,71,1,1,9,32,432,678.2890282138833,679.0067320003291,"[66, 0, 188]",188,a,0.1943398893927224,colour,0.06
052,71,1,1,9,33,433,679.523414703086,680.8946983281639,"[80, 0, 174]",174,a,0.847981167898979,colour,0.06
052,71,1,1,9,34,434,681.4140576046193,682.6547223842354,"[70, 0, 184]",184,a,0.7227213775622658,colour,0.06
052,71,1,1,9,35,435,683.1745152845397,684.3026887435117,"[63, 0, 191]",191,a,0.6049990016035736,colour,0.06
052,71,1,1,9,36,436,684.8151765983202,685.942697455408,"[61, 0, 193]",193,a,0.6041979199508205,colour,0.06
052,71,1,1,9,37,437,686.462186307006,688.0707291300059,"[21, 0, 233]",233,a,1.0856409066473134,colour,0.06
052,71,1,1,9,38,438,688.5820681375917,689.6629517850233,"[69, 0, 185]",185,a,0.5574224705342203,colour,0.06
052,71,1,1,9,39,439,690.175839392934,690.7346682855859,"[95, 0, 159]",159,l,0.03577692119870335,colour,0.06
052,71,1,1,9,40,440,691.2539716360043,692.3346871114336,"[64, 0, 190]",190,a,0.5573007722850889,colour,0.06
052,71,1,1,9,41,441,692.8476672730176,693.9027028431883,"[50, 0, 204]",204,a,0.5315669102128595,colour,0.06
052,71,1,1,9,42,442,694.4101632607635,696.7666898904135,"[68, 0, 186]",186,a,1.8339000113192014,colour,0.06
052,71,1,1,9,43,443,697.2851803437807,697.85469268827,"[92, 0, 162]",162,l,0.04384799610124901,colour,0.06
052,71,1,1,9,44,444,698.3656323365867,699.110664665408,"[55, 0, 199]",199,a,0.22196066507603973,colour,0.06
052,71,1,1,9,45,445,699.6311708198045,700.3747376496904,"[83, 0, 171]",171,l,0.21993314870633185,colour,0.06
052,71,1,1,9,46,446,700.8812047889805,701.5667274632724,"[51, 0, 203]",203,a,0.16195476526627317,colour,0.06
052,71,1,1,9,47,447,702.0844325887738,702.7506867679767,"[91, 0, 163]",163,l,0.1428130884305574,colour,0.06
052,71,1,1,9,48,448,703.2745307626319,704.1346632444183,"[84, 0, 170]",170,l,0.3377795859705657,colour,0.06
052,71,1,1,9,49,449,704.6484094354091,705.8306771739153,"[73, 0, 181]",181,l,0.6587849000934511,colour,0.06
052,71,1,1,9,50,450,706.3543939564843,707.1186916296137,"[88, 0, 166]",166,l,0.24096331448527053,colour,0.06
052,71,1,1,10,1,451,711.726458970923,712.5747386736912,"[56, 0, 198]",198,a,0.324307314469479,colour,0.06
052,71,1,1,10,2,452,713.0902177846874,713.6786626740941,"[73, 0, 181]",181,l,0.06511880148900673,colour,0.06
052,71,1,1,10,3,453,714.1995823662728,714.774623907113,"[85, 0, 169]",169,l,0.05181273276684806,colour,0.06
052,71,1,1,10,4,454,715.2933900523349,715.8312171360594,"[97, 0, 157]",157,l,0.014422226755414158,colour,0.06
052,71,1,1,10,5,455,716.3528303900384,716.8786782703828,"[75, 0, 179]",179,a,0.0023571650381200016,colour,0.06
052,71,1,1,10,6,456,717.3997708606767,718.0146337217302,"[79, 0, 175]",175,a,0.09153874235926196,colour,0.06
052,71,1,1,10,7,457,718.5142865469679,719.0466951049166,"[57, 0, 197]",197,a,0.008904845744837075,colour,0.06
052,71,1,1,10,8,458,719.5612285929965,721.2466457167175,"[54, 0, 200]",200,a,1.1630827386979945,colour,0.06
052,71,1,1,10,9,459,721.7642779808375,723.7266499859979,"[83, 0, 171]",171,l,1.4411459012771957,colour,0.06
052,71,1,1,10,10,460,724.2464385539643,724.9506488012848,"[94, 0, 160]",160,l,0.17741004866547883,colour,0.06
052,71,1,1,10,11,461,725.4685851141112,726.73463323334,"[80, 0, 174]",174,l,0.742613723850809,colour,0.06
052,71,1,1,10,12,462,727.2498961232486,728.0786466051941,"[62, 0, 192]",192,a,0.30536964954808354,colour,0.06
052,71,1,1,10,13,463,728.5935522772488,729.1986339864088,"[60, 0, 194]",194,a,0.08164967683842406,colour,0.06
052,71,1,1,10,14,464,729.718854602892,730.3106456032838,"[86, 0, 168]",168,l,0.06862441991688684,colour,0.06
052,71,1,1,10,15,465,730.8295149359619,731.382622435689,"[53, 0, 201]",201,a,0.03011342353420332,colour,0.06
052,71,1,1,10,16,466,731.8919859144953,732.6386397050228,"[64, 0, 190]",190,l,0.22338284098077565,colour,0.06
052,71,1,1,10,17,467,733.1576165575534,733.8066092781373,"[77, 0, 177]",177,a,0.1258816723129712,colour,0.06
052,71,1,1,10,18,468,734.3138987667044,734.9425785140484,"[82, 0, 172]",172,l,0.10554034216329455,colour,0.06
052,71,1,1,10,19,469,735.4545236498234,736.0226547782659,"[69, 0, 185]",185,l,0.04486214817734435,colour,0.06
052,71,1,1,10,20,470,736.5339146229671,737.1746696719783,"[61, 0, 193]",193,a,0.11769795761210844,colour,0.06
052,71,1,1,10,21,471,737.690150752198,738.2151459571323,"[55, 0, 199]",199,a,0.001657695509493351,colour,0.06
052,71,1,1,10,22,472,738.7369919738267,739.4066430700477,"[74, 0, 180]",180,l,0.14628129149787128,colour,0.06
052,71,1,1,10,23,473,739.9261338908691,741.9666306560393,"[90, 0, 164]",164,l,1.5170785174123012,colour,0.06
052,71,1,1,10,24,474,742.4730013032095,744.294647994684,"[21, 0, 233]",233,a,1.298289489815943,colour,0.06
052,71,1,1,10,25,475,744.8010446356493,745.406483168772,"[88, 0, 166]",166,l,0.08223217423073947,colour,0.06
052,71,1,1,10,26,476,745.9264221857884,746.7108595400932,"[71, 0, 183]",183,l,0.2609115868108347,colour,0.06
052,71,1,1,10,27,477,747.2236990989186,747.918524796667,"[51, 0, 203]",203,l,0.1717430063872598,colour,0.06
052,71,1,1,10,28,478,748.4265767700854,749.9585694272537,"[52, 0, 202]",202,a,1.009464894013945,colour,0.06
052,71,1,1,10,29,479,750.4734313824447,751.0546342416201,"[98, 0, 156]",156,l,0.05787007592152804,colour,0.06
052,71,1,1,10,30,480,751.5694564183941,752.1026089504594,"[66, 0, 188]",188,a,0.00977721344679594,colour,0.06
052,71,1,1,10,31,481,752.6163259968744,753.9586139317835,"[33, 0, 221]",221,a,0.8188984378939494,colour,0.06
052,71,1,1,10,32,482,754.4753757974831,755.126563812606,"[92, 0, 162]",162,l,0.1284507262171246,colour,0.06
052,71,1,1,10,33,483,755.6471849699155,756.4466774606262,"[68, 0, 186]",186,l,0.27642279624706134,colour,0.06
052,71,1,1,10,34,484,756.9596615607152,757.5186318439082,"[99, 0, 155]",155,l,0.035615050757769495,colour,0.06
052,71,1,1,10,35,485,758.0377296069637,758.6625465180259,"[87, 0, 167]",167,l,0.10145262017613277,colour,0.06
052,71,1,1,10,36,486,759.1783840284334,759.7186151448404,"[59, 0, 195]",195,a,0.01696646842174232,colour,0.06
052,71,1,1,10,37,487,760.2253091391176,766.4065615440486,"[95, 0, 159]",159,l,5.656516744173132,colour,0.06
052,71,1,1,10,38,488,766.9200915138936,767.5905728364014,"[63, 0, 191]",191,a,0.14700478565646335,colour,0.06
052,71,1,1,10,39,489,768.1074630956864,768.7425081732799,"[50, 0, 204]",204,a,0.11165833752602339,colour,0.06
052,71,1,1,10,40,490,769.2639579813695,770.7425621300936,"[78, 0, 176]",176,l,0.9553383191814646,colour,0.06
052,71,1,1,10,41,491,771.259550850722,771.934664977307,"[72, 0, 182]",182,l,0.15168682037619874,colour,0.06
052,71,1,1,10,42,492,772.4369124564109,773.1585444574594,"[67, 0, 187]",187,l,0.19813065195921808,colour,0.06
052,71,1,1,10,43,493,773.6712827979354,774.3505669602309,"[84, 0, 170]",170,l,0.15617744630435482,colour,0.06
052,71,1,1,10,44,494,774.8587426011218,775.4785202596104,"[70, 0, 184]",184,l,0.09632475237594917,colour,0.06
052,71,1,1,10,45,495,775.9993978102575,776.7425408624113,"[91, 0, 163]",163,l,0.21968581370310858,colour,0.06
052,71,1,1,10,46,496,777.2495404807851,778.5665242390241,"[13, 0, 241]",241,a,0.7936816948931664,colour,0.06
052,71,1,1,10,47,497,779.0788510109996,779.8705540263327,"[58, 0, 196]",196,a,0.26829264452680945,colour,0.06
052,71,1,1,10,48,498,780.3913602909888,780.9985148087726,"[96, 0, 158]",158,l,0.08410136477323249,colour,0.06
052,71,1,1,10,49,499,781.5164684507763,782.1345202784869,"[93, 0, 161]",161,l,0.0948498010984622,colour,0.06
052,71,1,1,10,50,500,782.6414119831752,783.1984851128072,"[65, 0, 189]",189,a,0.03394475212553516,colour,0.06
052,71,1,1,11,1,501,787.9700705022551,788.8145019410294,"[67, 0, 187]",187,l,0.3202861523604952,colour,0.06
052,71,1,1,11,2,502,789.3302980976878,790.0065327145276,"[70, 0, 184]",184,l,0.15327401756076142,colour,0.06
052,71,1,1,11,3,503,790.5177299377974,792.0225346554071,"[52, 0, 202]",202,a,0.981487688201014,colour,0.06
052,71,1,1,11,4,504,792.5333427593578,793.1105768378475,"[57, 0, 197]",197,a,0.05403087037848309,colour,0.06
052,71,1,1,11,5,505,793.6294627120951,794.3666386117111,"[73, 0, 181]",181,a,0.21365288901142776,colour,0.06
052,71,1,1,11,6,506,794.8795734810992,795.6225030689966,"[81, 0, 173]",173,l,0.21952985087409616,colour,0.06
052,71,1,1,11,7,507,796.1294365213253,796.782500422385,"[74, 0, 180]",180,l,0.12956688419217244,colour,0.06
052,71,1,1,11,8,508,797.3013035890763,797.9585536734085,"[96, 0, 158]",158,l,0.13381056895013899,colour,0.06
052,71,1,1,11,9,509,798.4732187059126,799.0784985193168,"[86, 0, 168]",168,l,0.08258269669022411,colour,0.06
052,71,1,1,11,10,510,799.5981870505493,800.2225022025523,"[99, 0, 155]",155,l,0.10090635652886704,colour,0.06
052,71,1,1,11,11,511,800.7387843644829,801.494522988156,"[79, 0, 175]",175,l,0.23228217294672504,colour,0.06
052,71,1,1,11,12,512,802.0044476967305,802.8944553254987,"[91, 0, 163]",163,l,0.36533537710784003,colour,0.06
052,71,1,1,11,13,513,803.4120001559495,804.2784767003031,"[51, 0, 203]",203,a,0.34387001214781776,colour,0.06
052,71,1,1,11,14,514,804.7870725742541,806.3585557214101,"[59, 0, 195]",195,a,1.0482657605898567,colour,0.06
052,71,1,1,11,15,515,806.8650543683907,807.7665150230168,"[47, 0, 207]",207,a,0.37815977283753455,colour,0.06
052,71,1,1,11,16,516,808.2869136576192,809.182448513573,"[71, 0, 183]",183,l,0.3720937651814893,colour,0.06
052,71,1,1,11,17,517,809.6931301931036,810.5744594372227,"[89, 0, 165]",165,l,0.35779363045003265,colour,0.06
052,71,1,1,11,18,518,811.0838394575403,811.974449669884,"[61, 0, 193]",193,a,0.3655716844368726,colour,0.06
052,71,1,1,11,19,519,812.4915652087657,813.3504952803487,"[60, 0, 194]",194,a,0.335999010654632,colour,0.06
052,71,1,1,11,20,520,813.8666065133293,814.6064727712655,"[78, 0, 176]",176,l,0.2164818809251301,colour,0.06
052,71,1,1,11,21,521,815.1166140948189,816.0545066357008,"[95, 0, 159]",159,l,0.4145250992150977,colour,0.06
052,71,1,1,11,22,522,816.5696108058328,817.262476728647,"[65, 0, 189]",189,a,0.1697036746190861,colour,0.06
052,71,1,1,11,23,523,817.7748523374903,818.6705041654641,"[75, 0, 179]",179,l,0.37247973366174847,colour,0.06
052,71,1,1,11,24,524,819.1809243316529,819.9744906298001,"[72, 0, 182]",182,l,0.27005116443615407,colour,0.06
052,71,1,1,11,25,525,820.4934552730992,821.2464696677634,"[80, 0, 174]",174,l,0.2296981529216282,colour,0.06
052,71,1,1,11,26,526,821.7581083917757,822.6064893127768,"[94, 0, 160]",160,l,0.3252714481204748,colour,0.06
052,71,1,1,11,27,527,823.1174541672226,824.1024195107748,"[84, 0, 170]",170,l,0.45919820154085755,colour,0.06
052,71,1,1,11,28,528,824.6198091661208,825.4945505573414,"[97, 0, 157]",157,l,0.35131684195948765,colour,0.06
052,71,1,1,11,29,529,826.010434541502,826.6064452020801,"[56, 0, 198]",198,a,0.07412801630562171,colour,0.06
052,71,1,1,11,30,530,827.1184060916421,828.0064740316011,"[58, 0, 196]",196,a,0.36478990118484944,colour,0.06
052,71,1,1,11,31,531,828.5246494085877,829.4544102223008,"[64, 0, 190]",190,a,0.40690615883795545,colour,0.06
052,71,1,1,11,32,532,829.964408579981,830.8304558327654,"[85, 0, 169]",169,l,0.34257938055088744,colour,0.06
052,71,1,1,11,33,533,831.3395010844106,832.3505866524647,"[92, 0, 162]",162,l,0.4876948894816451,colour,0.06
052,71,1,1,11,34,534,832.8707915151026,833.7344741197885,"[53, 0, 201]",201,a,0.3405983378761448,colour,0.06
052,71,1,1,11,35,535,834.2458627519081,834.8944277563132,"[88, 0, 166]",166,l,0.12508610443910584,colour,0.06
052,71,1,1,11,36,536,835.4019854536746,836.2144114353578,"[83, 0, 171]",171,l,0.28911840450018644,colour,0.06
052,71,1,1,11,37,537,836.7311717256671,837.2945637117955,"[31, 0, 223]",223,a,0.0398252586601302,colour,0.06
052,71,1,1,11,38,538,837.8092838826124,838.6624389982317,"[77, 0, 177]",177,l,0.32964116346556693,colour,0.06
052,71,1,1,11,39,539,839.1688183100196,840.0784272332676,"[63, 0, 191]",191,a,0.3862666877103038,colour,0.06
052,71,1,1,11,40,540,840.5906764177489,842.3504933111253,"[62, 0, 192]",192,a,1.2365219193161465,colour,0.06
052,71,1,1,11,41,541,842.8673997180886,843.4623942574253,"[66, 0, 188]",188,a,0.07154754089424387,colour,0.06
052,71,1,1,11,42,542,843.9767327919835,844.7023922566441,"[50, 0, 204]",204,a,0.2112902101362124,colour,0.06
052,71,1,1,11,43,543,845.2175803158898,848.0784414117225,"[69, 0, 185]",185,a,2.3380887546227314,colour,0.06
052,71,1,1,11,44,544,848.5875941832201,849.166433575796,"[82, 0, 172]",172,l,0.05548967397771776,colour,0.06
052,71,1,1,11,45,545,849.6812703248579,850.3983829492936,"[3, 0, 251]",251,a,0.19352423545205966,colour,0.06
052,71,1,1,11,46,546,850.915658389451,851.6223998814821,"[54, 0, 200]",200,a,0.19245573272928596,colour,0.06
052,71,1,1,11,47,547,852.1411057683872,853.0384192303754,"[93, 0, 161]",161,l,0.37430717662209645,colour,0.06
052,71,1,1,11,48,548,853.5472356578102,854.4384220660431,"[55, 0, 199]",199,a,0.3680887506925501,colour,0.06
052,71,1,1,11,49,549,854.9534982731566,855.6864257619018,"[68, 0, 186]",186,a,0.20953681017272174,colour,0.06
052,71,1,1,11,50,550,856.2034054240794,856.990379143157,"[98, 0, 156]",156,l,0.26116522325901315,colour,0.06
052,71,1,1,12,1,551,861.5332057011547,863.4783812321257,"[97, 0, 157]",157,l,1.421096804435365,colour,0.06
052,71,1,1,12,2,552,863.9884985311073,864.5823706109077,"[67, 0, 187]",187,l,0.07040026906179264,colour,0.06
052,71,1,1,12,3,553,865.0977953712572,865.9503975278931,"[72, 0, 182]",182,l,0.32901101076276973,colour,0.06
052,71,1,1,12,4,554,866.4574050231604,866.9824388249544,"[47, 0, 207]",207,a,0.0017979044932872057,colour,0.06
052,71,1,1,12,5,555,867.5041296664858,868.2703378839069,"[95, 0, 159]",159,l,0.24294356937753037,colour,0.06
052,71,1,1,12,6,556,868.7866972395568,869.422366956016,"[76, 0, 178]",178,l,0.11255551740759984,colour,0.06
052,71,1,1,12,7,557,869.9431192638585,870.5823481617263,"[81, 0, 173]",173,l,0.11616865562973544,colour,0.06
052,71,1,1,12,8,558,871.0992415717919,873.8624100899906,"[69, 0, 185]",185,l,2.2397695688996464,colour,0.06
052,71,1,1,12,9,559,874.3804976394749,875.0143836298957,"[70, 0, 184]",184,l,0.11050358263310045,colour,0.06
052,71,1,1,12,10,560,875.5210539934342,876.2303657209268,"[66, 0, 188]",188,l,0.1863038667361252,colour,0.06
052,71,1,1,12,11,561,876.7397831565468,878.6705494577182,"[74, 0, 180]",180,l,1.4074902316788211,colour,0.06
052,71,1,1,12,12,562,879.1787928400445,879.7823850256391,"[99, 0, 155]",155,l,0.08033698989311233,colour,0.06
052,71,1,1,12,13,563,880.2919828424929,881.1743522324832,"[75, 0, 179]",179,a,0.36311251332517713,colour,0.06
052,71,1,1,12,14,564,881.6938355703023,882.2623672395712,"[91, 0, 163]",163,l,0.044973212585318834,colour,0.06
052,71,1,1,12,15,565,882.7661294483114,883.5743361636414,"[53, 0, 201]",201,a,0.28524375293636695,colour,0.06
052,71,1,1,12,16,566,884.0940688055707,884.6783826499595,"[41, 0, 213]",213,a,0.0612484822049737,colour,0.06
052,71,1,1,12,17,567,885.1879257222754,885.9503506603069,"[61, 0, 193]",193,a,0.23955689236754552,colour,0.06
052,71,1,1,12,18,568,886.4705917566898,887.0064952992252,"[89, 0, 165]",165,l,0.013053219940047711,colour,0.06
052,71,1,1,12,19,569,887.5175692488556,888.118420270097,"[87, 0, 167]",167,l,0.0783173504169099,colour,0.06
052,71,1,1,12,20,570,888.6269487965037,889.3823392608319,"[51, 0, 203]",203,a,0.23199742269935086,colour,0.06
052,71,1,1,12,21,571,889.8925353289233,890.4703983786167,"[78, 0, 176]",176,l,0.05437233444536105,colour,0.06
052,71,1,1,12,22,572,890.9863024488441,891.8943793133367,"[77, 0, 177]",177,l,0.37961069954326376,colour,0.06
052,71,1,1,12,23,573,892.4095965171,893.1744022509083,"[94, 0, 160]",160,l,0.24192744819447398,colour,0.06
052,71,1,1,12,24,574,893.690801384917,894.5583692750079,"[59, 0, 195]",195,a,0.3441996607580222,colour,0.06
052,71,1,1,12,25,575,895.0657717972645,895.6783223916427,"[98, 0, 156]",156,l,0.08934896165737882,colour,0.06
052,71,1,1,12,26,576,896.1805359999998,896.7983432497131,"[90, 0, 164]",164,l,0.09494905022438616,colour,0.06
052,71,1,1,12,27,577,897.3053113603964,898.0143383376417,"[71, 0, 183]",183,l,0.18570482777431607,colour,0.06
052,71,1,1,12,28,578,898.5198854539776,899.3343231982435,"[80, 0, 174]",174,l,0.2911305609741248,colour,0.06
052,71,1,1,12,29,579,899.8478775864933,900.68636156508,"[62, 0, 192]",192,a,0.31507085083285347,colour,0.06
052,71,1,1,12,30,580,901.1971641551354,901.9902771371999,"[79, 0, 175]",175,l,0.2701153612579219,colour,0.06
052,71,1,1,12,31,581,902.50947375549,903.326343495457,"[85, 0, 169]",169,l,0.2938484884798527,colour,0.06
052,71,1,1,12,32,582,903.8376533584669,904.7583171298611,"[63, 0, 191]",191,a,0.39728608971927315,colour,0.06
052,71,1,1,12,33,583,905.2751215308672,906.750304344052,"[55, 0, 199]",199,a,0.9519859066349454,colour,0.06
052,71,1,1,12,34,584,907.2596619151882,908.7902867470402,"[57, 0, 197]",197,a,1.005260199890472,colour,0.06
052,71,1,1,12,35,585,909.3084979639971,909.9663793826476,"[84, 0, 170]",170,l,0.13493027165532112,colour,0.06
052,71,1,1,12,36,586,910.4804095362197,911.5983048103517,"[50, 0, 204]",204,a,0.5944994755554944,colour,0.06
052,71,1,1,12,37,587,912.1053954070085,912.6863028820953,"[12, 0, 242]",242,a,0.057768069906160235,colour,0.06
052,71,1,1,12,38,588,913.199139683973,914.0222794435686,"[52, 0, 202]",202,a,0.30103380494983867,colour,0.06
052,71,1,1,12,39,589,914.5428813024191,915.4382846139488,"[82, 0, 172]",172,l,0.3719370146282017,colour,0.06
052,71,1,1,12,40,590,915.949195905414,916.8142664214829,"[83, 0, 171]",171,l,0.3420016092713922,colour,0.06
052,71,1,1,12,41,591,917.3241651362041,918.1262723669643,"[93, 0, 161]",161,l,0.27890993031905964,colour,0.06
052,71,1,1,12,42,592,918.6366173085989,919.5183104659664,"[58, 0, 196]",196,a,0.3583052357425913,colour,0.06
052,71,1,1,12,43,593,920.0287251183181,920.8943076334544,"[86, 0, 168]",168,l,0.342211922747083,colour,0.06
052,71,1,1,12,44,594,921.4036333030672,922.3182921127882,"[65, 0, 189]",189,l,0.39119723899057135,colour,0.06
052,71,1,1,12,45,595,922.8254925923538,924.4062401661649,"[56, 0, 198]",198,a,1.055611766059883,colour,0.06
052,71,1,1,12,46,596,924.9210288660834,925.4542617425905,"[96, 0, 158]",158,l,0.009857164055574685,colour,0.06
052,71,1,1,12,47,597,925.9679445244838,926.9582649847143,"[68, 0, 186]",186,a,0.4669376586098224,colour,0.06
052,71,1,1,12,48,598,927.4678364138817,928.1823311476037,"[60, 0, 194]",194,a,0.1911812488688156,colour,0.06
052,71,1,1,12,49,599,928.7035982114612,929.2782864729525,"[64, 0, 190]",190,a,0.05125110922381282,colour,0.06
052,71,1,1,12,50,600,929.7973613929353,930.6702678581933,"[73, 0, 181]",181,a,0.3497028632555157,colour,0.06
052,71,1,1,13,1,601,964.1453348808573,964.8462525801733,"[73, 0, 181]",181,l,0.17707134154625237,colour,0.06
052,71,1,1,13,2,602,965.3648859994719,967.758230877691,"[62, 0, 192]",192,l,1.8699754673871212,colour,0.06
052,71,1,1,13,3,603,968.2723268034752,969.5262098243111,"[57, 0, 197]",197,l,0.7305848959367722,colour,0.06
052,71,1,1,13,4,604,970.0378662713338,971.0381837107707,"[64, 0, 190]",190,l,0.477051216061227,colour,0.06
052,71,1,1,13,5,605,971.5548782288679,972.1261876901845,"[83, 0, 171]",171,l,0.04785694903694093,colour,0.06
052,71,1,1,13,6,606,972.6330096842721,973.1662453176687,"[77, 0, 177]",177,l,0.00985952717019245,colour,0.06
052,71,1,1,13,7,607,973.6797099091928,974.2301774627995,"[81, 0, 173]",173,l,0.027031582838390023,colour,0.06
052,71,1,1,13,8,608,974.7421399277519,976.4701923974208,"[82, 0, 172]",172,l,1.2045140990521759,colour,0.06
052,71,1,1,13,9,609,976.977895817603,978.9341770028113,"[72, 0, 182]",182,l,1.43299684493104,colour,0.06
052,71,1,1,13,10,610,979.4465467039263,982.4221814548364,"[91, 0, 163]",163,l,2.4522763676941395,colour,0.06
052,71,1,1,13,11,611,982.9332573736319,984.014223334787,"[75, 0, 179]",179,l,0.5588765479624271,colour,0.06
052,71,1,1,13,12,612,984.5259802123765,985.4701912158635,"[84, 0, 170]",170,l,0.42113028129097074,colour,0.06
052,71,1,1,13,13,613,985.9791813291959,987.2542099124985,"[50, 0, 204]",204,a,0.752007725648582,colour,0.06
052,71,1,1,13,14,614,987.7603863938712,988.5021899776184,"[70, 0, 184]",184,l,0.21845307742478326,colour,0.06
052,71,1,1,13,15,615,989.0103620738955,989.9661655245582,"[55, 0, 199]",199,l,0.43238914135145023,colour,0.06
052,71,1,1,13,16,616,990.4790491940221,991.3901661515702,"[90, 0, 164]",164,l,0.3875711038708687,colour,0.06
052,71,1,1,13,17,617,991.902681575506,992.7421371708624,"[88, 0, 166]",166,l,0.31615904584759846,colour,0.06
052,71,1,1,13,18,618,993.2619540957385,994.3022243997548,"[54, 0, 200]",200,a,0.5167520195827819,colour,0.06
052,71,1,1,13,19,619,994.8088742833352,995.9421917578438,"[94, 0, 160]",160,l,0.6098866237443872,colour,0.06
052,71,1,1,13,20,620,996.4494426496094,997.1741706697503,"[97, 0, 157]",157,l,0.20128062786534429,colour,0.06
052,71,1,1,13,21,621,997.6852489516605,998.5181525339722,"[93, 0, 161]",161,l,0.3097889894270338,colour,0.06
052,71,1,1,13,22,622,999.0290271977428,999.726156497607,"[98, 0, 156]",156,l,0.17375319357961416,colour,0.06
052,71,1,1,13,23,623,1000.2321388131822,1001.1581584889209,"[80, 0, 174]",174,l,0.4027187939500436,colour,0.06
052,71,1,1,13,24,624,1001.669650702388,1002.5581569923088,"[53, 0, 201]",201,a,0.3654539246344939,colour,0.06
052,71,1,1,13,25,625,1003.0758621178102,1003.6701721537393,"[92, 0, 162]",162,l,0.08007744571659714,colour,0.06
052,71,1,1,13,26,626,1004.191661740304,1004.822123638296,"[52, 0, 202]",202,a,0.10752926173154265,colour,0.06
052,71,1,1,13,27,627,1005.3323201002204,1006.0381585046416,"[61, 0, 193]",193,a,0.1824863227084279,colour,0.06
052,71,1,1,13,28,628,1006.551069743291,1007.1181607259205,"[63, 0, 191]",191,a,0.04373102402314544,colour,0.06
052,71,1,1,13,29,629,1007.6291732356767,1008.2061154746916,"[13, 0, 241]",241,a,0.05357007123529911,colour,0.06
052,71,1,1,13,30,630,1008.723012429371,1009.2701110289781,"[89, 0, 165]",165,l,0.023859945416916162,colour,0.06
052,71,1,1,13,31,631,1009.7875487334095,1010.5181710447068,"[51, 0, 203]",203,l,0.2072257250547409,colour,0.06
052,71,1,1,13,32,632,1011.0375248073251,1011.5981134015019,"[59, 0, 195]",195,a,0.03719791566254571,colour,0.06
052,71,1,1,13,33,633,1012.1156653211219,1013.7981254531769,"[96, 0, 158]",158,l,1.1591651579365134,colour,0.06
052,71,1,1,13,34,634,1014.3188344379887,1014.9821706162184,"[68, 0, 186]",186,l,0.1399541642749682,colour,0.06
052,71,1,1,13,35,635,1015.4906223427388,1017.3820986212231,"[71, 0, 183]",183,l,1.368119470658712,colour,0.06
052,71,1,1,13,36,636,1017.8982701125788,1018.5501284526545,"[76, 0, 178]",178,l,0.1277575581916608,colour,0.06
052,71,1,1,13,37,637,1019.0709020281793,1019.694101022149,"[67, 0, 187]",187,l,0.09987645072396845,colour,0.06
052,71,1,1,13,38,638,1020.2115903203376,1020.7501074213069,"[47, 0, 207]",207,a,0.015187862270977348,colour,0.06
052,71,1,1,13,39,639,1021.2584961326211,1021.798127028509,"[99, 0, 155]",155,l,0.016583650605753064,colour,0.06
052,71,1,1,13,40,640,1022.3052743389271,1022.9340966583113,"[95, 0, 159]",159,l,0.10542888392228633,colour,0.06
052,71,1,1,13,41,641,1023.4459126127767,1024.038124633953,"[74, 0, 180]",180,l,0.06886584719177336,colour,0.06
052,71,1,1,13,42,642,1024.5553543880233,1026.4141056537628,"[85, 0, 169]",169,l,1.33553112228401,colour,0.06
052,71,1,1,13,43,643,1026.9316012535128,1027.4781390171847,"[69, 0, 185]",185,l,0.023219158872961998,colour,0.06
052,71,1,1,13,44,644,1027.9942006256315,1028.6460747195524,"[66, 0, 188]",188,l,0.1285692736855708,colour,0.06
052,71,1,1,13,45,645,1029.1660653302679,1029.9021077427315,"[79, 0, 175]",175,l,0.21272735222009942,colour,0.06
052,71,1,1,13,46,646,1030.4182930186507,1031.1020752898185,"[78, 0, 176]",176,l,0.160419161838945,colour,0.06
052,71,1,1,13,47,647,1031.621560990694,1032.4621122640674,"[65, 0, 189]",189,l,0.3173736652242951,colour,0.06
052,71,1,1,13,48,648,1032.980776797107,1033.5421109407325,"[60, 0, 194]",194,a,0.03795606811763719,colour,0.06
052,71,1,1,13,49,649,1034.058947637037,1034.5984103609226,"[86, 0, 168]",168,l,0.0161630236543715,colour,0.06
052,71,1,1,13,50,650,1035.1057876771083,1035.678112865833,"[24, 0, 230]",230,a,0.04896798706613481,colour,0.06
052,71,1,1,14,1,651,1040.4358108706656,1041.0060967276222,"[69, 0, 185]",185,l,0.046482034551445395,colour,0.06
052,71,1,1,14,2,652,1041.5147682199604,1042.0460759798298,"[86, 0, 168]",168,l,0.007911961351055652,colour,0.06
052,71,1,1,14,3,653,1042.5615428816527,1044.2700909428531,"[90, 0, 164]",164,l,1.185155019571539,colour,0.06
052,71,1,1,14,4,654,1044.790598278807,1046.2620820954908,"[99, 0, 155]",155,l,0.9611132750869729,colour,0.06
052,71,1,1,14,5,655,1046.7825650130399,1047.7260639439337,"[62, 0, 192]",192,a,0.4202598828705959,colour,0.06
052,71,1,1,14,6,656,1048.2355459702085,1048.81405059417,"[72, 0, 182]",182,a,0.05510528082959354,colour,0.06
052,71,1,1,14,7,657,1049.3293749238946,1049.9660331924679,"[74, 0, 180]",180,a,0.11332548526115716,colour,0.06
052,71,1,1,14,8,658,1050.4855082595022,1052.2220488864696,"[91, 0, 163]",163,l,1.213242502126377,colour,0.06
052,71,1,1,14,9,659,1052.7368820909178,1054.414071783016,"[98, 0, 156]",156,l,1.153830127324909,colour,0.06
052,71,1,1,14,10,660,1054.9243682817323,1055.6700311570894,"[64, 0, 190]",190,a,0.22251480561681092,colour,0.06
052,71,1,1,14,11,661,1056.1899902601726,1057.71807281964,"[53, 0, 201]",201,a,1.0049912034883164,colour,0.06
052,71,1,1,14,12,662,1058.2369141892996,1060.1660283087986,"[92, 0, 162]",162,l,1.4057966961991042,colour,0.06
052,71,1,1,14,13,663,1060.6757856330369,1063.230079001456,"[83, 0, 171]",171,l,2.031027538876515,colour,0.06
052,71,1,1,14,14,664,1063.7382365254452,1064.2700074475724,"[70, 0, 184]",184,l,0.008478704956360161,colour,0.06
052,71,1,1,14,15,665,1064.7851309161633,1065.4060278834659,"[65, 0, 189]",189,l,0.09762050391873345,colour,0.06
052,71,1,1,14,16,666,1065.9257301993202,1066.6060237874626,"[85, 0, 169]",169,l,0.1569789217901416,colour,0.06
052,71,1,1,14,17,667,1067.1140178656206,1067.6460951995105,"[55, 0, 199]",199,a,0.009586592263076454,colour,0.06
052,71,1,1,14,18,668,1068.1600871501141,1068.7260170763475,"[56, 0, 198]",198,a,0.042898434738162905,colour,0.06
052,71,1,1,14,19,669,1069.238141805632,1070.7419875095366,"[54, 0, 200]",200,a,0.9774121753871441,colour,0.06
052,71,1,1,14,20,670,1071.2572212548694,1071.813990335795,"[79, 0, 175]",175,l,0.033611952734645456,colour,0.06
052,71,1,1,14,21,671,1072.332428407739,1072.9580349789467,"[73, 0, 181]",181,l,0.10225960949901491,colour,0.06
052,71,1,1,14,22,672,1073.4731726259924,1074.0540225995937,"[89, 0, 165]",165,l,0.05756563332397491,colour,0.06
052,71,1,1,14,23,673,1074.5667940231506,1076.1420261851745,"[58, 0, 196]",196,a,1.051830455835443,colour,0.06
052,71,1,1,14,24,674,1076.660573746136,1078.2380177442683,"[52, 0, 202]",202,a,1.0540576518396847,colour,0.06
052,71,1,1,14,25,675,1078.754275487794,1079.3181117315544,"[47, 0, 207]",207,a,0.04037034075008705,colour,0.06
052,71,1,1,14,26,676,1079.8323892201297,1080.462015378056,"[81, 0, 173]",173,l,0.10612205188954249,colour,0.06
052,71,1,1,14,27,677,1080.9730704231188,1081.573991548852,"[88, 0, 166]",166,l,0.07755683484720066,colour,0.06
052,71,1,1,14,28,678,1082.0824011339573,1082.6300129141891,"[68, 0, 186]",186,l,0.024263637023977935,colour,0.06
052,71,1,1,14,29,679,1083.1448874724447,1083.7340393144405,"[71, 0, 183]",183,l,0.06574580346932635,colour,0.06
052,71,1,1,14,30,680,1084.256821107876,1084.886030577356,"[59, 0, 195]",195,l,0.10695818584645167,colour,0.06
052,71,1,1,14,31,681,1085.3964735865593,1086.9020270043984,"[14, 0, 240]",240,a,0.9822245730319992,colour,0.06
052,71,1,1,14,32,682,1087.4120359958615,1088.8539790402865,"[87, 0, 167]",167,l,0.9185901750461198,colour,0.06
052,71,1,1,14,33,683,1089.3651093098451,1090.9659540295252,"[94, 0, 160]",160,l,1.077500908751972,colour,0.06
052,71,1,1,14,34,684,1091.4759732609964,1092.0144970573601,"[61, 0, 193]",193,a,0.015213068400043994,colour,0.06
052,71,1,1,14,35,685,1092.5227947903331,1093.9179253639304,"[97, 0, 157]",157,l,0.8717662827111781,colour,0.06
052,71,1,1,14,36,686,1094.4280473890249,1095.157978107687,"[84, 0, 170]",170,l,0.20653058780590072,colour,0.06
052,71,1,1,14,37,687,1095.6780636351905,1096.4139571739943,"[51, 0, 203]",203,a,0.21248238033149391,colour,0.06
052,71,1,1,14,38,688,1096.9304811570328,1097.517949703557,"[95, 0, 159]",159,l,0.0641235540388152,colour,0.06
052,71,1,1,14,39,689,1098.0240761665627,1098.573986035015,"[2, 0, 252]",252,a,0.0266999650048092,colour,0.06
052,71,1,1,14,40,690,1099.0866357602645,1100.0059931462747,"[60, 0, 194]",194,a,0.39717581297736615,colour,0.06
052,71,1,1,14,41,691,1100.5229223962524,1101.1099514112575,"[63, 0, 191]",191,a,0.06363991182297468,colour,0.06
052,71,1,1,14,42,692,1101.6182306334958,1102.205951241136,"[57, 0, 197]",197,a,0.06430708605330437,colour,0.06
052,71,1,1,14,43,693,1102.7134742800845,1103.2940395034384,"[78, 0, 176]",176,l,0.057559331820812076,colour,0.06
052,71,1,1,14,44,694,1103.8071484525572,1104.5339989058557,"[93, 0, 161]",161,l,0.20421398879261687,colour,0.06
052,71,1,1,14,45,695,1105.0415640863357,1105.661950629903,"[76, 0, 178]",178,l,0.09728140302468091,colour,0.06
052,71,1,1,14,46,696,1106.182075541874,1106.9500103777973,"[77, 0, 177]",177,l,0.24489586136769503,colour,0.06
052,71,1,1,14,47,697,1107.46341825556,1109.5019359473372,"[75, 0, 179]",179,l,1.5150966871296987,colour,0.06
052,71,1,1,14,48,698,1110.0116089886287,1110.6539772286196,"[67, 0, 187]",187,l,0.11897795530967414,colour,0.06
052,71,1,1,14,49,699,1111.1678738686023,1111.797899385856,"[50, 0, 204]",204,a,0.10665807558689266,colour,0.06
052,71,1,1,14,50,700,1112.3084585794713,1113.0219533395139,"[66, 0, 188]",188,a,0.19138919922988862,colour,0.06
052,71,1,1,15,1,701,1117.5746638430282,1120.8299430459738,"[84, 0, 170]",170,l,2.7310614489251748,colour,0.06
052,71,1,1,15,2,702,1121.3414116287604,1122.6618947038078,"[90, 0, 164]",164,l,0.7973535160417669,colour,0.06
052,71,1,1,15,3,703,1123.169452007336,1124.0379753665184,"[78, 0, 176]",176,l,0.34526107425335795,colour,0.06
052,71,1,1,15,4,704,1124.5435248459107,1125.309894933831,"[92, 0, 162]",162,l,0.24300225242041051,colour,0.06
052,71,1,1,15,5,705,1125.8248238427332,1126.4779058606946,"[53, 0, 201]",201,a,0.1299902680912055,colour,0.06
052,71,1,1,15,6,706,1126.998804679024,1128.7979513734463,"[66, 0, 188]",188,a,1.27582612039987,colour,0.06
052,71,1,1,15,7,707,1129.3114073003526,1130.597902300302,"[56, 0, 198]",198,l,0.7631035337108187,colour,0.06
052,71,1,1,15,8,708,1131.1082578757778,1131.861922509328,"[59, 0, 195]",195,l,0.2306024220888503,colour,0.06
052,71,1,1,15,9,709,1132.3614229163504,1133.2939725497272,"[61, 0, 193]",193,a,0.40925505314953625,colour,0.06
052,71,1,1,15,10,710,1133.8143239229103,1134.3898999120574,"[82, 0, 172]",172,l,0.05203919392079115,colour,0.06
052,71,1,1,15,11,711,1134.9082678794512,1135.461903919815,"[35, 0, 219]",219,a,0.030379269272089005,colour,0.06
052,71,1,1,15,12,712,1135.9707041995716,1136.5180950325448,"[99, 0, 155]",155,l,0.0240233913064003,colour,0.06
052,71,1,1,15,13,713,1137.0332318918663,1137.5819157194346,"[86, 0, 168]",168,l,0.02528448443626985,colour,0.06
052,71,1,1,15,14,714,1138.095815904031,1138.6859066735487,"[63, 0, 191]",191,l,0.06418853852665052,colour,0.06
052,71,1,1,15,15,715,1139.1926172093954,1140.741948912735,"[49, 0, 205]",205,a,1.0263128149090335,colour,0.06
052,71,1,1,15,16,716,1141.2550732217496,1142.9738703232142,"[72, 0, 182]",182,l,1.1954875550582074,colour,0.06
052,71,1,1,15,17,717,1143.489436867938,1144.093883698224,"[81, 0, 173]",173,l,0.08105457638157532,colour,0.06
052,71,1,1,15,18,718,1144.6162425016519,1146.1418977915891,"[93, 0, 161]",161,l,1.0022831220994703,colour,0.06
052,71,1,1,15,19,719,1146.6631431939313,1147.2539101961302,"[65, 0, 189]",189,a,0.06747557275230065,colour,0.06
052,71,1,1,15,20,720,1147.7714317896753,1149.2858215241577,"[97, 0, 157]",157,l,0.9908848407212645,colour,0.06
052,71,1,1,15,21,721,1149.8026538881822,1151.3578928795177,"[85, 0, 169]",169,l,1.0318873034557328,colour,0.06
052,71,1,1,15,22,722,1151.8674166534329,1152.6298758559278,"[67, 0, 187]",187,l,0.2390007825451903,colour,0.06
052,71,1,1,15,23,723,1153.148775514739,1153.829908781452,"[95, 0, 159]",159,l,0.15879573090933263,colour,0.06
052,71,1,1,15,24,724,1154.3507827875437,1154.9019340568339,"[60, 0, 194]",194,a,0.02783935988554731,colour,0.06
052,71,1,1,15,25,725,1155.4133384427987,1155.997861025331,"[89, 0, 165]",165,l,0.06122800230514258,colour,0.06
052,71,1,1,15,26,726,1156.5090818792814,1157.1978604739415,"[51, 0, 203]",203,a,0.1653737376909703,colour,0.06
052,71,1,1,15,27,727,1157.7122521776473,1159.0378402775386,"[12, 0, 242]",242,a,0.8021379506681114,colour,0.06
052,71,1,1,15,28,728,1159.5559325531358,1160.8219133248203,"[91, 0, 163]",163,l,0.7425849731080234,colour,0.06
052,71,1,1,15,29,729,1161.3374310327345,1162.5658696678584,"[54, 0, 200]",200,a,0.7052826884901151,colour,0.06
052,71,1,1,15,30,730,1163.0729835014208,1163.6458372307243,"[74, 0, 180]",180,l,0.04953118605772033,colour,0.06
052,71,1,1,15,31,731,1164.1667301413836,1164.829884362989,"[68, 0, 186]",186,l,0.13977299531688914,colour,0.06
052,71,1,1,15,32,732,1165.3373258759966,1166.0458538510138,"[77, 0, 177]",177,l,0.18524757324485108,colour,0.06
052,71,1,1,15,33,733,1166.5560321960365,1167.4458267544396,"[55, 0, 199]",199,a,0.36632589844521135,colour,0.06
052,71,1,1,15,34,734,1167.9623007191112,1168.6378224756918,"[73, 0, 181]",181,l,0.15210390271386132,colour,0.06
052,71,1,1,15,35,735,1169.1497565837926,1170.485855631181,"[87, 0, 167]",167,l,0.8126760735176504,colour,0.06
052,71,1,1,15,36,736,1170.9935141530004,1171.5338724814937,"[88, 0, 166]",166,l,0.015745547483675182,colour,0.06
052,71,1,1,15,37,737,1172.0415715693962,1172.8858119931538,"[62, 0, 192]",192,a,0.321114803198725,colour,0.06
052,71,1,1,15,38,738,1173.401003990788,1173.957864050055,"[80, 0, 174]",174,l,0.03365803265478462,colour,0.06
052,71,1,1,15,39,739,1174.4790405294625,1175.1258844292024,"[79, 0, 175]",175,l,0.12345046427799389,colour,0.06
052,71,1,1,15,40,740,1175.6353172247764,1176.3978729194496,"[69, 0, 185]",185,l,0.2391504438710399,colour,0.06
052,71,1,1,15,41,741,1176.917843837873,1177.589829256176,"[76, 0, 178]",178,l,0.14865696732886136,colour,0.06
052,71,1,1,15,42,742,1178.105347357865,1178.6378594971611,"[52, 0, 202]",202,a,0.00923803896876052,colour,0.06
052,71,1,1,15,43,743,1179.1523197300266,1180.4698119427194,"[58, 0, 196]",196,a,0.7942346539348364,colour,0.06
052,71,1,1,15,44,744,1180.981766136887,1181.9337890649913,"[64, 0, 190]",190,a,0.42881420615594834,colour,0.06
052,71,1,1,15,45,745,1182.4503685802338,1183.2938142238418,"[70, 0, 184]",184,a,0.3199474452412687,colour,0.06
052,71,1,1,15,46,746,1183.8097998201265,1184.3898199613905,"[83, 0, 171]",171,l,0.05659953044960275,colour,0.06
052,71,1,1,15,47,747,1184.90361971542,1185.5418127996963,"[50, 0, 204]",204,a,0.11491701478371397,colour,0.06
052,71,1,1,15,48,748,1186.0598227616283,1186.8138359483564,"[57, 0, 197]",197,a,0.23068040347425267,colour,0.06
052,71,1,1,15,49,749,1187.3253927525366,1188.685790883028,"[96, 0, 158]",158,l,0.8369893350754865,colour,0.06
052,71,1,1,15,50,750,1189.2003314603353,1189.7578681460582,"[75, 0, 179]",179,l,0.032620643731206656,colour,0.06
052,71,1,1,16,1,751,1194.5916299175587,1195.1978120309068,"[57, 0, 197]",197,a,0.0820403714897111,colour,0.06
052,71,1,1,16,2,752,1195.7188723259023,1196.3018281912082,"[88, 0, 166]",166,l,0.05954470677534118,colour,0.06
052,71,1,1,16,3,753,1196.8125847013434,1197.6377661558217,"[64, 0, 190]",190,a,0.3017332744784653,colour,0.06
052,71,1,1,16,4,754,1198.1564212365774,1198.7417941314634,"[81, 0, 173]",173,l,0.06209840072551742,colour,0.06
052,71,1,1,16,5,755,1199.2500682336977,1200.6377614296507,"[60, 0, 194]",194,a,0.8642989727668464,colour,0.06
052,71,1,1,16,6,756,1201.1563743689912,1201.7817718082806,"[70, 0, 184]",184,l,0.10206032375572249,colour,0.06
052,71,1,1,16,7,757,1202.2971311903093,1202.9177950010635,"[50, 0, 204]",204,a,0.09741806733654812,colour,0.06
052,71,1,1,16,8,758,1203.437604442879,1204.1017480042647,"[45, 0, 209]",209,a,0.14077848277520388,colour,0.06
052,71,1,1,16,9,759,1204.609496716701,1205.1737941534957,"[54, 0, 200]",200,a,0.0409351151320152,colour,0.06
052,71,1,1,16,10,760,1205.6852095671347,1206.469790675037,"[65, 0, 189]",189,l,0.2612443862017244,colour,0.06
052,71,1,1,16,11,761,1206.9861071015475,1207.765769079735,"[94, 0, 160]",160,l,0.25614014914026484,colour,0.06
052,71,1,1,16,12,762,1208.283114230493,1210.3178155597998,"[90, 0, 164]",164,l,1.5114536166074686,colour,0.06
052,71,1,1,16,13,763,1210.8313518312061,1211.9337993049994,"[61, 0, 193]",193,a,0.5789752692799084,colour,0.06
052,71,1,1,16,14,764,1212.4406673790072,1213.045769568067,"[86, 0, 168]",168,l,0.08219712198479101,colour,0.06
052,71,1,1,16,15,765,1213.5656625051633,1214.1177842096658,"[51, 0, 203]",203,a,0.028834607335738838,colour,0.06
052,71,1,1,16,16,766,1214.6285466275294,1215.837755364424,"[52, 0, 202]",202,a,0.6862694052397273,colour,0.06
052,71,1,1,16,17,767,1216.3490719228284,1217.4697733458597,"[62, 0, 192]",192,a,0.598143333743792,colour,0.06
052,71,1,1,16,18,768,1217.9896910951938,1218.56576726801,"[74, 0, 180]",180,l,0.052746934175956994,colour,0.06
052,71,1,1,16,19,769,1219.0834708181792,1220.3896990508656,"[72, 0, 182]",182,l,0.7829108093865216,colour,0.06
052,71,1,1,16,20,770,1220.8959436674486,1221.4217600401607,"[97, 0, 157]",157,l,0.0024835894000716507,colour,0.06
052,71,1,1,16,21,771,1221.942788039858,1223.21372693195,"[76, 0, 178]",178,l,0.7479964097146876,colour,0.06
052,71,1,1,16,22,772,1223.7240242183325,1224.3017521790462,"[55, 0, 199]",199,a,0.05446213117102161,colour,0.06
052,71,1,1,16,23,773,1224.817758255289,1225.405732105486,"[22, 0, 232]",232,a,0.06236267101485282,colour,0.06
052,71,1,1,16,24,774,1225.9139557955787,1227.0857358234352,"[34, 0, 220]",220,a,0.6486106904922053,colour,0.06
052,71,1,1,16,25,775,1227.6013980725547,1228.1337652767543,"[98, 0, 156]",156,l,0.009038753225468099,colour,0.06
052,71,1,1,16,26,776,1228.6472298682784,1229.9657196914777,"[93, 0, 161]",161,l,0.7949979263939895,colour,0.06
052,71,1,1,16,27,777,1230.4753616190283,1231.6137191338348,"[96, 0, 158]",158,l,0.6154737153556198,colour,0.06
052,71,1,1,16,28,778,1232.1338861872791,1232.6777851864463,"[84, 0, 170]",170,l,0.020535102114081383,colour,0.06
052,71,1,1,16,29,779,1233.1963827657746,1234.6457108063623,"[77, 0, 177]",177,l,0.9259649312007241,colour,0.06
052,71,1,1,16,30,780,1235.165168150328,1235.8537344622891,"[92, 0, 162]",162,l,0.1653678300208412,colour,0.06
052,71,1,1,16,31,781,1236.368282128824,1237.7257409906597,"[78, 0, 176]",176,l,0.8341430139262229,colour,0.06
052,71,1,1,16,32,782,1238.2445477019646,1239.5417304860312,"[79, 0, 175]",175,l,0.7738291270215996,colour,0.06
052,71,1,1,16,33,783,1240.0570851418888,1241.4136889652582,"[99, 0, 155]",155,l,0.8332608001073822,colour,0.06
052,71,1,1,16,34,784,1241.9320439358125,1243.3017313051969,"[59, 0, 195]",195,a,0.8464014537166804,colour,0.06
052,71,1,1,16,35,785,1243.8085084009217,1244.581782205787,"[71, 0, 183]",183,a,0.2500615383614786,colour,0.06
052,71,1,1,16,36,786,1245.0897471393691,1245.6857172339223,"[85, 0, 169]",169,l,0.07263140357099473,colour,0.06
052,71,1,1,16,37,787,1246.1972791580483,1246.7577196662896,"[75, 0, 179]",179,l,0.03570721053984016,colour,0.06
052,71,1,1,16,38,788,1247.2767941924976,1247.8857119563618,"[91, 0, 163]",163,l,0.08558576827635989,colour,0.06
052,71,1,1,16,39,789,1248.40177986637,1249.0057150913635,"[83, 0, 171]",171,l,0.08055439259624109,colour,0.06
052,71,1,1,16,40,790,1249.5268131955527,1250.0856968327425,"[69, 0, 185]",185,a,0.03561189997708425,colour,0.06
052,71,1,1,16,41,791,1250.6048938448657,1252.3977260150714,"[58, 0, 196]",196,a,1.2694982054526918,colour,0.06
052,71,1,1,16,42,792,1252.9053683892125,1253.429879164265,"[82, 0, 172]",172,l,0.0010814996203407645,colour,0.06
052,71,1,1,16,43,793,1253.9521316294558,1254.8217152205762,"[68, 0, 186]",186,l,0.34635163232451305,colour,0.06
052,71,1,1,16,44,794,1255.3429334475659,1256.853693502373,"[63, 0, 191]",191,a,0.9874453883967362,colour,0.06
052,71,1,1,16,45,795,1257.3741027708165,1257.9096656370093,"[89, 0, 165]",165,l,0.012382107321172953,colour,0.06
052,71,1,1,16,46,796,1258.4209345401032,1259.197671034257,"[73, 0, 181]",181,l,0.2533548740320839,colour,0.06
052,71,1,1,16,47,797,1259.7177782232175,1260.9417159925215,"[56, 0, 198]",198,a,0.7004761985735968,colour,0.06
052,71,1,1,16,48,798,1261.4546650403063,1262.2137387473485,"[80, 0, 174]",174,l,0.23564325011102483,colour,0.06
052,71,1,1,16,49,799,1262.7203311295016,1263.3176977999974,"[67, 0, 187]",187,a,0.07431784982327372,colour,0.06
052,71,1,1,16,50,800,1263.8296740495134,1265.0537220955594,"[66, 0, 188]",188,a,0.7006467336323112,colour,0.06
