id,age,condition,counterbalance,block,trialinblock,trial,tstart,tend,trialstim,trialintensity,response,RT,trialtype,colourfreq
174,20,1,1,Practice,1,NA,5.907844752073288e-06,0.7052303529344499,"[9, 0, 245]",245,a,0.08813759731128812,colour,0.5
174,20,1,1,Practice,2,NA,1.2196931629441679,1.7612324859946966,"[37, 0, 217]",217,a,0.01934492401778698,colour,0.5
174,20,1,1,Practice,3,NA,2.2666009995155036,2.905253274831921,"[86, 0, 168]",168,l,0.11642873147502542,colour,0.5
174,20,1,1,Practice,4,NA,3.4229089934378862,14.673265424091369,"[11, 0, 243]",243,l,10.728188419248909,colour,0.5
174,20,1,1,Practice,5,NA,15.189588368404657,16.425223625730723,"[59, 0, 195]",195,a,0.7138595166616142,colour,0.5
174,20,1,1,Practice,6,NA,16.939768355805427,17.73723702924326,"[63, 0, 191]",191,a,0.27652670443058014,colour,0.5
174,20,1,1,Practice,7,NA,18.252032638993114,19.113220462575555,"[66, 0, 188]",188,a,0.3385594063438475,colour,0.5
174,20,1,1,Practice,8,NA,19.627212232910097,20.457262991461903,"[31, 0, 223]",223,a,0.3077279655262828,colour,0.5
174,20,1,1,Practice,9,NA,20.971109432633966,21.801207453012466,"[35, 0, 219]",219,a,0.30783469835296273,colour,0.5
174,20,1,1,Practice,10,NA,22.315052712336183,23.23322137631476,"[67, 0, 187]",187,l,0.39595536002889276,colour,0.5
174,20,1,1,1,1,1,4.477905244100839,5.079962537623942,"[72, 0, 182]",182,l,0.07896768255159259,colour,0.5
174,20,1,1,1,2,2,5.588188797235489,6.37595901498571,"[79, 0, 175]",175,l,0.2655962985008955,colour,0.5
174,20,1,1,1,3,3,6.885814221575856,7.711956453509629,"[38, 0, 216]",216,a,0.3046031924895942,colour,0.5
174,20,1,1,1,4,4,8.228929637465626,9.09598576510325,"[20, 0, 234]",234,a,0.3447199440561235,colour,0.5
174,20,1,1,1,5,5,9.603911914397031,10.447966258507222,"[13, 0, 241]",241,a,0.3218473419547081,colour,0.5
174,20,1,1,1,6,6,10.96362320939079,11.759991083759815,"[25, 0, 229]",229,a,0.2741750506684184,colour,0.5
174,20,1,1,1,7,7,12.27615018794313,13.095984977204353,"[95, 0, 159]",159,l,0.2978022610768676,colour,0.5
174,20,1,1,1,8,8,13.604374289512634,14.567987258546054,"[77, 0, 177]",177,l,0.44134649634361267,colour,0.5
174,20,1,1,1,9,9,15.07329512014985,15.831953822635114,"[94, 0, 160]",160,l,0.23644776176661253,colour,0.5
174,20,1,1,1,10,10,16.338991455268115,17.09597355592996,"[11, 0, 243]",243,a,0.23470184300094843,colour,0.5
174,20,1,1,1,11,11,17.60458735981956,18.40799798676744,"[16, 0, 238]",238,a,0.28104175394400954,colour,0.5
174,20,1,1,1,12,12,18.917264393530786,19.74395958520472,"[46, 0, 208]",208,a,0.3044385644607246,colour,0.5
174,20,1,1,1,13,13,20.26112220901996,21.2639504163526,"[9, 0, 245]",245,a,0.48057118663564324,colour,0.5
174,20,1,1,1,14,14,21.777597177773714,22.62412448087707,"[74, 0, 180]",180,l,0.3251221710816026,colour,0.5
174,20,1,1,1,15,15,23.136416805908084,23.911942353937775,"[7, 0, 247]",247,a,0.25337919825688004,colour,0.5
174,20,1,1,1,16,16,24.417722042649984,25.207934498786926,"[41, 0, 213]",213,a,0.26790147833526134,colour,0.5
174,20,1,1,1,17,17,25.714645239524543,26.50397469336167,"[73, 0, 181]",181,l,0.267027928493917,colour,0.5
174,20,1,1,1,18,18,27.0116204242222,27.8079682122916,"[28, 0, 226]",226,a,0.2740813153795898,colour,0.5
174,20,1,1,1,19,19,28.324261617846787,29.07995308516547,"[68, 0, 186]",186,l,0.2334053018130362,colour,0.5
174,20,1,1,1,20,20,29.590028845705092,30.39997534547001,"[71, 0, 183]",183,l,0.28780369460582733,colour,0.5
174,20,1,1,1,21,21,30.918191506993026,31.671927135437727,"[66, 0, 188]",188,l,0.23138329712674022,colour,0.5
174,20,1,1,1,22,22,32.18393549788743,33.02395607205108,"[55, 0, 199]",199,a,0.3176690307445824,colour,0.5
174,20,1,1,1,23,23,33.54343254072592,34.29603113606572,"[84, 0, 170]",170,l,0.23057000525295734,colour,0.5
174,20,1,1,1,24,24,34.80914975004271,35.59195908438414,"[75, 0, 179]",179,l,0.2607275750488043,colour,0.5
174,20,1,1,1,25,25,36.10621866956353,36.91992876119912,"[23, 0, 231]",231,a,0.2915527136065066,colour,0.5
174,20,1,1,1,26,26,37.43441441422328,38.22396324016154,"[33, 0, 221]",221,a,0.2673784513026476,colour,0.5
174,20,1,1,1,27,27,38.73135178955272,39.52793352212757,"[36, 0, 218]",218,a,0.2743416470475495,colour,0.5
174,20,1,1,1,28,28,40.04396856483072,40.8159762811847,"[67, 0, 187]",187,l,0.24982158793136477,colour,0.5
174,20,1,1,1,29,29,41.325304915662855,42.063919617794454,"[39, 0, 215]",215,a,0.216499465983361,colour,0.5
174,20,1,1,1,30,30,42.575443155597895,43.2879387838766,"[81, 0, 173]",173,l,0.19044143799692392,colour,0.5
174,20,1,1,1,31,31,43.79427773412317,44.51197252236307,"[86, 0, 168]",168,l,0.19550235848873854,colour,0.5
174,20,1,1,1,32,32,45.02878501685336,45.77594066178426,"[52, 0, 202]",202,a,0.2249415530823171,colour,0.5
174,20,1,1,1,33,33,46.294469143263996,47.04795704269782,"[99, 0, 155]",155,l,0.23123796796426177,colour,0.5
174,20,1,1,1,34,34,47.56014893716201,48.29594252072275,"[85, 0, 169]",169,l,0.21383824897930026,colour,0.5
174,20,1,1,1,35,35,48.81033877050504,49.57592325378209,"[12, 0, 242]",242,a,0.24363229889422655,colour,0.5
174,20,1,1,1,36,36,50.09160895552486,50.82394496584311,"[37, 0, 217]",217,a,0.21080445405095816,colour,0.5
174,20,1,1,1,37,37,51.34171647531912,52.08794815745205,"[6, 0, 248]",248,a,0.22405540011823177,colour,0.5
174,20,1,1,1,38,38,52.607749548740685,53.463917018380016,"[51, 0, 203]",203,a,0.33433107612654567,colour,0.5
174,20,1,1,1,39,39,53.982515210751444,54.71196472411975,"[88, 0, 166]",166,l,0.20721769891679287,colour,0.5
174,20,1,1,1,40,40,55.21700122579932,55.95992893446237,"[1, 0, 253]",253,a,0.2205860111862421,colour,0.5
174,20,1,1,1,41,41,56.46716073341668,57.207941194064915,"[30, 0, 224]",224,a,0.21861835662275553,colour,0.5
174,20,1,1,1,42,42,57.71724029025063,58.46394891990349,"[78, 0, 176]",176,l,0.22446854412555695,colour,0.5
174,20,1,1,1,43,43,58.98302248399705,59.727922573219985,"[83, 0, 171]",171,l,0.2227446804754436,colour,0.5
174,20,1,1,1,44,44,60.233079591766,60.999927532393485,"[43, 0, 211]",211,a,0.2446381812915206,colour,0.5
174,20,1,1,1,45,45,61.51434583775699,62.37591411639005,"[59, 0, 195]",195,a,0.3392391838133335,colour,0.5
174,20,1,1,1,46,46,62.88943917956203,63.543979592621326,"[35, 0, 219]",219,a,0.13224046351388097,colour,0.5
174,20,1,1,1,47,47,64.06145020388067,64.81595186283812,"[93, 0, 161]",161,l,0.2322958381846547,colour,0.5
174,20,1,1,1,48,48,65.32714811479673,66.07994363317266,"[49, 0, 205]",205,a,0.23050541477277875,colour,0.5
174,20,1,1,1,49,49,66.59289564983919,67.34391925530508,"[22, 0, 232]",232,a,0.22898241225630045,colour,0.5
174,20,1,1,1,50,50,67.85867548082024,68.61592263961211,"[47, 0, 207]",207,a,0.23512010741978884,colour,0.5
174,20,1,1,2,1,51,284.8124911384657,285.5597944757901,"[66, 0, 188]",188,l,0.22420387994498014,colour,0.5
174,20,1,1,2,2,52,286.07902282103896,286.68778455397114,"[46, 0, 208]",208,a,0.08659450896084309,colour,0.5
174,20,1,1,2,3,53,287.20403581811115,287.96779285604134,"[22, 0, 232]",232,a,0.24163628788664937,colour,0.5
174,20,1,1,2,4,54,288.4854076150805,289.4717687307857,"[38, 0, 216]",216,a,0.46406116569414735,colour,0.5
174,20,1,1,2,5,55,289.98544896859676,290.75978982821107,"[12, 0, 242]",242,a,0.2519751372747123,colour,0.5
174,20,1,1,2,6,56,291.2668447904289,292.1118290047161,"[17, 0, 237]",237,a,0.3226984431967139,colour,0.5
174,20,1,1,2,7,57,292.62630481179804,293.4158221296966,"[99, 0, 155]",155,l,0.2674335893243551,colour,0.5
174,20,1,1,2,8,58,293.9233406484127,294.6959430719726,"[79, 0, 175]",175,l,0.25133238080888987,colour,0.5
174,20,1,1,2,9,59,295.2044781069271,295.9358031149022,"[51, 0, 203]",203,a,0.2088285288773477,colour,0.5
174,20,1,1,2,10,60,296.45470929471776,297.18382403906435,"[18, 0, 236]",236,a,0.20680888695642352,colour,0.5
174,20,1,1,2,11,61,297.6892335130833,298.4318103049882,"[41, 0, 213]",213,a,0.2203713650815189,colour,0.5
174,20,1,1,2,12,62,298.93931503919885,299.67178062489256,"[2, 0, 252]",252,a,0.21013649133965373,colour,0.5
174,20,1,1,2,13,63,300.18946982035413,300.93580665951595,"[23, 0, 231]",231,a,0.22422317834571004,colour,0.5
174,20,1,1,2,14,64,301.45517285121605,302.2078025606461,"[93, 0, 161]",161,l,0.2310985466465354,colour,0.5
174,20,1,1,2,15,65,302.72097906982526,303.8718110299669,"[64, 0, 190]",190,l,0.6287273578345776,colour,0.5
174,20,1,1,2,16,66,304.37724098330364,305.16779135959223,"[95, 0, 159]",159,l,0.2684694044291973,colour,0.5
174,20,1,1,2,17,67,305.67423664825037,306.431799671147,"[8, 0, 246]",246,a,0.2353489315137267,colour,0.5
174,20,1,1,2,18,68,306.94000623887405,307.71179891517386,"[74, 0, 180]",180,l,0.24956519436091185,colour,0.5
174,20,1,1,2,19,69,308.22127524157986,308.9838019050658,"[29, 0, 225]",225,a,0.24025270715355873,colour,0.5
174,20,1,1,2,20,70,309.5026245894842,310.33578200498596,"[94, 0, 160]",160,l,0.3117034467868507,colour,0.5
174,20,1,1,2,21,71,310.84658598620445,311.5918011520989,"[45, 0, 209]",209,a,0.22301092045381665,colour,0.5
174,20,1,1,2,22,72,312.09665924170986,312.93575821677223,"[67, 0, 187]",187,l,0.3168269884772599,colour,0.5
174,20,1,1,2,23,73,313.45617400761694,314.1997720422223,"[71, 0, 183]",183,l,0.22138394322246313,colour,0.5
174,20,1,1,2,24,74,314.7061354108155,315.43977623293176,"[43, 0, 211]",211,a,0.21123217092826962,colour,0.5
174,20,1,1,2,25,75,315.95629649376497,316.70384125830606,"[4, 0, 250]",250,a,0.22537990380078554,colour,0.5
174,20,1,1,2,26,76,317.22199164750054,317.9757954115048,"[24, 0, 230]",230,a,0.23151405388489366,colour,0.5
174,20,1,1,2,27,77,318.4877951089293,319.3277503051795,"[31, 0, 223]",223,a,0.3176812403835356,colour,0.5
174,20,1,1,2,28,78,319.8472968782298,320.62377671478316,"[88, 0, 166]",166,l,0.2542200591415167,colour,0.5
174,20,1,1,2,29,79,321.1441578473896,321.91978776454926,"[42, 0, 212]",212,a,0.2533449335023761,colour,0.5
174,20,1,1,2,30,80,322.425537914969,323.3437782586552,"[78, 0, 176]",176,l,0.39608217822387815,colour,0.5
174,20,1,1,2,31,81,323.86324369953945,324.6557849664241,"[58, 0, 196]",196,l,0.2702696737833321,colour,0.5
174,20,1,1,2,32,82,325.1757100257091,326.04778650728986,"[97, 0, 157]",157,l,0.34989704843610525,colour,0.5
174,20,1,1,2,33,83,326.566562323831,327.30378753785044,"[87, 0, 167]",167,l,0.21504499297589064,colour,0.5
174,20,1,1,2,34,84,327.8165914686397,328.5758066754788,"[25, 0, 229]",229,a,0.23694203840568662,colour,0.5
174,20,1,1,2,35,85,329.0824181670323,330.01578731415793,"[47, 0, 207]",207,a,0.41124288318678737,colour,0.5
174,20,1,1,2,36,86,330.53557767765597,331.2797700255178,"[33, 0, 221]",221,a,0.22195029351860285,colour,0.5
174,20,1,1,2,37,87,331.7856993759051,332.5277527468279,"[72, 0, 182]",182,l,0.21983061451464891,colour,0.5
174,20,1,1,2,38,88,333.0357178868726,334.31981746060774,"[54, 0, 200]",200,a,0.7625164235942066,colour,0.5
174,20,1,1,2,39,89,334.8327568746172,335.5677682803944,"[77, 0, 177]",177,l,0.21276895748451352,colour,0.5
174,20,1,1,2,40,90,336.0828565172851,336.83178958902135,"[76, 0, 178]",178,l,0.22671661712229252,colour,0.5
174,20,1,1,2,41,91,337.34854615759104,338.0717799947597,"[80, 0, 174]",174,l,0.20084527228027582,colour,0.5
174,20,1,1,2,42,92,338.583066043444,339.30374657781795,"[3, 0, 251]",251,a,0.1983104799874127,colour,0.5
174,20,1,1,2,43,93,339.8175457571633,340.5437948787585,"[30, 0, 224]",224,a,0.20391963329166174,colour,0.5
174,20,1,1,2,44,94,341.0520656434819,341.79976440174505,"[85, 0, 169]",169,l,0.22541810711845756,colour,0.5
174,20,1,1,2,45,95,342.31784704932943,343.19179351162165,"[48, 0, 206]",206,a,0.3518107458949089,colour,0.5
174,20,1,1,2,46,96,343.7085095141083,344.4717624289915,"[53, 0, 201]",201,a,0.24111838033422828,colour,0.5
174,20,1,1,2,47,97,344.989876978565,345.6877376860939,"[34, 0, 220]",220,a,0.17611608048900962,colour,0.5
174,20,1,1,2,48,98,346.19306642143056,346.8877621833235,"[81, 0, 173]",173,l,0.1728180148638785,colour,0.5
174,20,1,1,2,49,99,347.3962771324441,349.2477704384364,"[55, 0, 199]",199,l,1.3291945378296077,colour,0.5
174,20,1,1,2,50,100,349.7559470734559,350.6877814033069,"[49, 0, 205]",205,a,0.4097116105258465,colour,0.5
174,20,1,1,3,1,101,356.0680412151851,357.22378364624456,"[54, 0, 200]",200,a,0.6327028381638229,colour,0.5
174,20,1,1,3,2,102,357.7409919560887,358.4717817278579,"[29, 0, 225]",225,a,0.20874975994229317,colour,0.5
174,20,1,1,3,3,103,358.99102661479264,359.6638095774688,"[25, 0, 229]",229,a,0.15062125260010362,colour,0.5
174,20,1,1,3,4,104,360.1784921530634,360.90378107875586,"[12, 0, 242]",242,a,0.2029972462914884,colour,0.5
174,20,1,1,3,5,105,361.4129990423098,362.0957711189985,"[87, 0, 167]",167,l,0.1604429823346436,colour,0.5
174,20,1,1,3,6,106,362.60059415595606,363.67976545728743,"[61, 0, 193]",193,l,0.5568831665441394,colour,0.5
174,20,1,1,3,7,107,364.19449529470876,364.9037499646656,"[46, 0, 208]",208,a,0.18596931779757142,colour,0.5
174,20,1,1,3,8,108,365.4144283090718,366.1357894092798,"[80, 0, 174]",174,l,0.19916473142802715,colour,0.5
174,20,1,1,3,9,109,366.64890802279115,367.3837548010051,"[71, 0, 183]",183,l,0.21263504959642887,colour,0.5
174,20,1,1,3,10,110,367.8989316537045,368.4877718719654,"[24, 0, 230]",230,a,0.06656862515956163,colour,0.5
174,20,1,1,3,11,111,368.9928591796197,369.6957638724707,"[3, 0, 251]",251,a,0.18089106865227222,colour,0.5
174,20,1,1,3,12,112,370.2117055733688,371.0157719538547,"[59, 0, 195]",195,l,0.28183180885389447,colour,0.5
174,20,1,1,3,13,113,371.5242459429428,372.27178283035755,"[95, 0, 159]",159,l,0.22589978016912937,colour,0.5
174,20,1,1,3,14,114,372.78993085678667,373.47981263976544,"[20, 0, 234]",234,a,0.16751881781965494,colour,0.5
174,20,1,1,3,15,115,373.9933010749519,374.6957678105682,"[34, 0, 220]",220,a,0.18059765314683318,colour,0.5
174,20,1,1,3,16,116,375.21199229359627,375.89576119417325,"[8, 0, 246]",246,a,0.1614425634033978,colour,0.5
174,20,1,1,3,17,117,376.4151781918481,377.28773555951193,"[49, 0, 205]",205,a,0.3502093683928251,colour,0.5
174,20,1,1,3,18,118,377.8060068595223,378.40776364831254,"[93, 0, 161]",161,l,0.07950410060584545,colour,0.5
174,20,1,1,3,19,119,378.91543458541855,379.75978273898363,"[48, 0, 206]",206,a,0.3220608066767454,colour,0.5
174,20,1,1,3,20,120,380.27488594222814,380.98374361591414,"[96, 0, 158]",158,l,0.18656717566773295,colour,0.5
174,20,1,1,3,21,121,381.49375833012164,382.21574879577383,"[78, 0, 176]",176,l,0.19990437431260943,colour,0.5
174,20,1,1,3,22,122,382.7282092929818,383.4717297400348,"[1, 0, 253]",253,a,0.2212779987603426,colour,0.5
174,20,1,1,3,23,123,383.9783392623067,384.7197549967095,"[23, 0, 231]",231,a,0.21950529841706157,colour,0.5
174,20,1,1,3,24,124,385.22835580352694,386.07974040834233,"[62, 0, 192]",192,l,0.3290669317357242,colour,0.5
174,20,1,1,3,25,125,386.58792373910546,387.36775244772434,"[55, 0, 199]",199,a,0.25759216817095876,colour,0.5
174,20,1,1,3,26,126,387.8849765113555,388.59973911661655,"[70, 0, 184]",184,l,0.19260089518502355,colour,0.5
174,20,1,1,3,27,127,389.1194333820604,389.6797548234463,"[4, 0, 250]",250,a,0.038179817609488964,colour,0.5
174,20,1,1,3,28,128,390.19762440025806,390.82375316275284,"[15, 0, 239]",239,a,0.1039095507003367,colour,0.5
174,20,1,1,3,29,129,391.3383506680839,392.42373567586765,"[35, 0, 219]",219,a,0.5632874947041273,colour,0.5
174,20,1,1,3,30,130,392.9321364094503,393.663763103541,"[26, 0, 228]",228,a,0.2093645534478128,colour,0.5
174,20,1,1,3,31,131,394.18223999114707,394.9037184570916,"[16, 0, 238]",238,a,0.19928761152550578,colour,0.5
174,20,1,1,3,32,132,395.41673821536824,396.063783347141,"[76, 0, 178]",178,l,0.12474912032485008,colour,0.5
174,20,1,1,3,33,133,396.57307653548196,397.22373205283657,"[19, 0, 235]",235,a,0.12842567218467593,colour,0.5
174,20,1,1,3,34,134,397.7294258829206,398.44773073866963,"[18, 0, 236]",236,a,0.19606516417115927,colour,0.5
174,20,1,1,3,35,135,398.9639032338746,399.6877731322311,"[58, 0, 196]",196,l,0.20159003464505076,colour,0.5
174,20,1,1,3,36,136,400.19830102752894,400.91173125244677,"[2, 0, 252]",252,a,0.19119880395010114,colour,0.5
174,20,1,1,3,37,137,401.4172510029748,402.1517216581851,"[68, 0, 186]",186,l,0.2122037885710597,colour,0.5
174,20,1,1,3,38,138,402.66727030137554,403.3997272225097,"[91, 0, 163]",163,l,0.2101290081627667,colour,0.5
174,20,1,1,3,39,139,403.9173620673828,404.6317268884741,"[0, 0, 254]",254,a,0.19211213244125247,colour,0.5
174,20,1,1,3,40,140,405.1518642306328,405.86375057930127,"[88, 0, 166]",166,l,0.19032486015930772,colour,0.5
174,20,1,1,3,41,141,406.37079372582957,407.10371341602877,"[74, 0, 180]",180,l,0.21077215857803822,colour,0.5
174,20,1,1,3,42,142,407.620896125678,408.27174383960664,"[65, 0, 189]",189,l,0.1286375606432557,colour,0.5
174,20,1,1,3,43,143,408.7771497685462,409.4797433228232,"[11, 0, 243]",243,a,0.18057008413597941,colour,0.5
174,20,1,1,3,44,144,409.99608044559136,411.23173539573327,"[57, 0, 197]",197,a,0.713393990881741,colour,0.5
174,20,1,1,3,45,145,411.74615015648305,412.49574016267434,"[66, 0, 188]",188,l,0.22735267784446478,colour,0.5
174,20,1,1,3,46,146,413.0118106515147,413.9117217999883,"[72, 0, 182]",182,l,0.37760371528565884,colour,0.5
174,20,1,1,3,47,147,414.4182364055887,415.1597399674356,"[7, 0, 247]",247,a,0.21925599360838532,colour,0.5
174,20,1,1,3,48,148,415.66840418381616,416.42373922048137,"[39, 0, 215]",215,a,0.23318868689239025,colour,0.5
174,20,1,1,3,49,149,416.9340363224037,418.0637463256717,"[60, 0, 194]",194,l,0.6075026071630418,colour,0.5
174,20,1,1,3,50,150,418.57484332844615,419.51971632102504,"[83, 0, 171]",171,l,0.4226084891706705,colour,0.5
174,20,1,1,4,1,151,427.69977834355086,428.4637449076399,"[29, 0, 225]",225,a,0.24103409750387073,colour,0.5
174,20,1,1,4,2,152,428.98184094624594,429.69575166283175,"[64, 0, 190]",190,l,0.1915067913942039,colour,0.5
174,20,1,1,4,3,153,430.2007082137279,430.9117068341002,"[58, 0, 196]",196,l,0.1887250579893589,colour,0.5
174,20,1,1,4,4,154,431.4195928107947,432.15171102434397,"[75, 0, 179]",179,l,0.20993878040462732,colour,0.5
174,20,1,1,4,5,155,432.66972081083804,433.3837036010809,"[90, 0, 164]",164,l,0.19176397286355495,colour,0.5
174,20,1,1,4,6,156,433.8884841031395,434.60773655213416,"[37, 0, 217]",217,a,0.19702614843845367,colour,0.5
174,20,1,1,4,7,157,435.1229445184581,435.82368108909577,"[45, 0, 209]",209,a,0.17844725446775556,colour,0.5
174,20,1,1,4,8,158,436.3418275397271,437.02369298320264,"[1, 0, 253]",253,a,0.1596525334753096,colour,0.5
174,20,1,1,4,9,159,437.5294423457235,438.2237395355478,"[40, 0, 214]",214,a,0.1719393446110189,colour,0.5
174,20,1,1,4,10,160,438.73265660135075,439.39173254417256,"[68, 0, 186]",186,l,0.1368027743883431,colour,0.5
174,20,1,1,4,11,161,439.9046239089221,440.6237361487001,"[86, 0, 168]",168,l,0.19682410545647144,colour,0.5
174,20,1,1,4,12,162,441.1391067733057,441.78374393098056,"[36, 0, 218]",218,a,0.12257154611870646,colour,0.5
174,20,1,1,4,13,163,442.29550259467214,443.02373551856726,"[26, 0, 228]",228,a,0.20596172474324703,colour,0.5
174,20,1,1,4,14,164,443.52990787196904,444.1757324747741,"[82, 0, 172]",172,l,0.12342973612248898,colour,0.5
174,20,1,1,4,15,165,444.68622689321637,445.51171691622585,"[27, 0, 227]",227,a,0.3032739623449743,colour,0.5
174,20,1,1,4,16,166,446.03019537916407,446.8156702630222,"[42, 0, 212]",212,a,0.26330135855823755,colour,0.5
174,20,1,1,4,17,167,447.3270677700639,448.7757327109575,"[59, 0, 195]",195,l,0.9266446214169264,colour,0.5
174,20,1,1,4,18,168,449.29597678547725,451.6237203949131,"[60, 0, 194]",194,a,1.805420816410333,colour,0.5
174,20,1,1,4,19,169,452.14005869906396,452.8797233942896,"[41, 0, 213]",213,a,0.21747502218931913,colour,0.5
174,20,1,1,4,20,170,453.39005436655134,454.0636939438991,"[70, 0, 184]",184,l,0.15196978067979217,colour,0.5
174,20,1,1,4,21,171,454.577571105212,455.29568573320284,"[99, 0, 155]",155,l,0.1958170412108302,colour,0.5
174,20,1,1,4,22,172,455.81208035722375,456.44771852949634,"[95, 0, 159]",159,l,0.11332758842036128,colour,0.5
174,20,1,1,4,23,173,456.9527703910135,457.535722612869,"[2, 0, 252]",252,a,0.06068535475060344,colour,0.5
174,20,1,1,4,24,174,458.0467317881994,458.647754448466,"[9, 0, 245]",245,a,0.07957617472857237,colour,0.5
174,20,1,1,4,25,175,459.1562158339657,459.82371850451455,"[71, 0, 183]",183,l,0.14543390832841396,colour,0.5
174,20,1,1,4,26,176,460.34382512653247,460.9916953649372,"[83, 0, 171]",171,l,0.12586212856695056,colour,0.5
174,20,1,1,4,27,177,461.5001177601516,462.1517023597844,"[79, 0, 175]",175,l,0.12937129568308592,colour,0.5
174,20,1,1,4,28,178,462.6719960584305,463.2957010930404,"[74, 0, 180]",180,l,0.10146691836416721,colour,0.5
174,20,1,1,4,29,179,463.81276604300365,464.4717076844536,"[92, 0, 162]",162,l,0.13680119905620813,colour,0.5
174,20,1,1,4,30,180,464.9847112954594,465.9517093701288,"[66, 0, 188]",188,l,0.4447713801637292,colour,0.5
174,20,1,1,4,31,181,466.46948127355427,467.1756966346875,"[17, 0, 237]",237,a,0.18418204504996538,colour,0.5
174,20,1,1,4,32,182,467.6882213288918,468.3836787887849,"[34, 0, 220]",220,a,0.1733540389686823,colour,0.5
174,20,1,1,4,33,183,468.89753940841183,469.5996839781292,"[22, 0, 232]",232,a,0.1799245704896748,colour,0.5
174,20,1,1,4,34,184,470.11635705130175,471.06369906431064,"[62, 0, 192]",192,l,0.42517281975597143,colour,0.5
174,20,1,1,4,35,185,471.5695461006835,472.36768076755106,"[80, 0, 174]",174,l,0.27580399718135595,colour,0.5
174,20,1,1,4,36,186,472.88210576819256,473.59968358417973,"[31, 0, 223]",223,a,0.19528141058981419,colour,0.5
174,20,1,1,4,37,187,474.1166961528361,474.76780813746154,"[0, 0, 254]",254,a,0.12934727128595114,colour,0.5
174,20,1,1,4,38,188,475.27300060214475,475.9756764699705,"[69, 0, 185]",185,l,0.1804346009157598,colour,0.5
174,20,1,1,4,39,189,476.4918241528794,477.7516888114624,"[15, 0, 239]",239,a,0.7376797120086849,colour,0.5
174,20,1,1,4,40,190,478.2595377666876,478.99171230057254,"[20, 0, 234]",234,a,0.2100463006645441,colour,0.5
174,20,1,1,4,41,191,479.50955352094024,480.19971414702013,"[6, 0, 248]",248,a,0.16806153766810894,colour,0.5
174,20,1,1,4,42,192,480.7128776591271,481.4316956959665,"[32, 0, 222]",222,a,0.19658110244199634,colour,0.5
174,20,1,1,4,43,193,481.9473652499728,482.67971898335963,"[44, 0, 210]",210,a,0.2101368852891028,colour,0.5
174,20,1,1,4,44,194,483.19740660348907,483.8317025490105,"[3, 0, 251]",251,a,0.11203774297609925,colour,0.5
174,20,1,1,4,45,195,484.33811751101166,484.9756997069344,"[89, 0, 165]",165,l,0.1152767320163548,colour,0.5
174,20,1,1,4,46,196,485.49441211437806,486.1196909570135,"[23, 0, 231]",231,a,0.10310256062075496,colour,0.5
174,20,1,1,4,47,197,486.6351801296696,487.31967134354636,"[8, 0, 246]",246,a,0.16226845793426037,colour,0.5
174,20,1,1,4,48,198,487.8384353448637,488.6076940167695,"[53, 0, 201]",201,a,0.24707451276481152,colour,0.5
174,20,1,1,4,49,199,489.1198083232157,489.71971324877813,"[97, 0, 157]",157,l,0.07772273570299149,colour,0.5
174,20,1,1,4,50,200,490.2292573172599,490.83969722734764,"[98, 0, 156]",156,l,0.08826284017413855,colour,0.5
174,20,1,1,5,1,201,496.4852410182357,497.1997015438974,"[18, 0, 236]",236,a,0.19137367187067866,colour,0.4
174,20,1,1,5,2,202,497.70490267314017,498.33566778944805,"[25, 0, 229]",229,a,0.10854669287800789,colour,0.4
174,20,1,1,5,3,203,498.8455954636447,499.51169446716085,"[22, 0, 232]",232,a,0.14385261666029692,colour,0.4
174,20,1,1,5,4,204,500.0176242114976,500.69566501677036,"[59, 0, 195]",195,l,0.15586531069129705,colour,0.4
174,20,1,1,5,5,205,501.20516733732074,501.85569839924574,"[13, 0, 241]",241,a,0.12826813338324428,colour,0.4
174,20,1,1,5,6,206,502.36153677105904,503.00768354022875,"[1, 0, 253]",253,a,0.12400199426338077,colour,0.4
174,20,1,1,5,7,207,503.5178270419128,504.1036563082598,"[68, 0, 186]",186,l,0.06361399311572313,colour,0.4
174,20,1,1,5,8,208,504.61167894955724,505.1436942908913,"[54, 0, 200]",200,l,0.009819760452955961,colour,0.4
174,20,1,1,5,9,209,505.65857812203467,506.2636861461215,"[89, 0, 165]",165,a,0.08294670796021819,colour,0.4
174,20,1,1,5,10,210,506.7837266018614,507.4396915556863,"[90, 0, 164]",164,a,0.1337429853156209,colour,0.4
174,20,1,1,5,11,211,507.95569075876847,509.86368283769116,"[58, 0, 196]",196,a,1.3857701104134321,colour,0.4
174,20,1,1,5,12,212,510.3777325032279,511.4076876360923,"[56, 0, 198]",198,a,0.5077280444093049,colour,0.4
174,20,1,1,5,13,213,511.92468248168007,512.6316898670048,"[32, 0, 222]",222,a,0.18473539873957634,colour,0.4
174,20,1,1,5,14,214,513.1436875951476,514.3276494806632,"[61, 0, 193]",193,a,0.6620274246670306,colour,0.4
174,20,1,1,5,15,215,514.8468443490565,515.575669222977,"[4, 0, 250]",250,a,0.20654619159176946,colour,0.4
174,20,1,1,5,16,216,516.0813772319816,516.8156564785168,"[77, 0, 177]",177,l,0.21203955495730042,colour,0.4
174,20,1,1,5,17,217,517.3314788443968,518.3356859064661,"[6, 0, 248]",248,a,0.48191301990300417,colour,0.4
174,20,1,1,5,18,218,518.84725709958,519.6156772733666,"[37, 0, 217]",217,a,0.24614346073940396,colour,0.4
174,20,1,1,5,19,219,520.1284934133291,520.8396413009614,"[19, 0, 235]",235,a,0.18884439300745726,colour,0.4
174,20,1,1,5,20,220,521.347402822692,522.0876397760585,"[30, 0, 224]",224,a,0.217998837120831,colour,0.4
174,20,1,1,5,21,221,522.5974528412335,523.3116770591587,"[99, 0, 155]",155,l,0.19208023138344288,colour,0.4
174,20,1,1,5,22,222,523.8325654654764,524.4316578865983,"[97, 0, 157]",157,l,0.07743128947913647,colour,0.4
174,20,1,1,5,23,223,524.9416840225458,526.2156523037702,"[5, 0, 249]",249,a,0.7520972299389541,colour,0.4
174,20,1,1,5,24,224,526.7227907609195,527.375690412242,"[83, 0, 171]",171,l,0.13066783687099814,colour,0.4
174,20,1,1,5,25,225,527.8947525545955,528.6076865335926,"[70, 0, 184]",184,l,0.19069507531821728,colour,0.4
174,20,1,1,5,26,226,529.1135879210196,529.7357849194668,"[27, 0, 227]",227,a,0.09995376272127032,colour,0.4
174,20,1,1,5,27,227,530.2418942572549,531.1836546855047,"[29, 0, 225]",225,a,0.41957981372252107,colour,0.4
174,20,1,1,5,28,228,531.6951140263118,532.5116511438973,"[9, 0, 245]",245,a,0.2943265703506768,colour,0.4
174,20,1,1,5,29,229,533.0233389157802,534.1836594115011,"[48, 0, 206]",206,a,0.638072139583528,colour,0.4
174,20,1,1,5,30,230,534.6953499400988,535.4076454946771,"[86, 0, 168]",168,l,0.19046152429655194,colour,0.4
174,20,1,1,5,31,231,535.9142471402884,536.7116354689933,"[60, 0, 194]",194,l,0.27579612005501986,colour,0.4
174,20,1,1,5,32,232,537.2267666356638,538.1276592477225,"[74, 0, 180]",180,a,0.3788718990981579,colour,0.4
174,20,1,1,5,33,233,538.6331337061711,539.4236427284777,"[88, 0, 166]",166,l,0.26830517081543803,colour,0.4
174,20,1,1,5,34,234,539.9300825032406,540.5756251122802,"[53, 0, 201]",201,a,0.12320603150874376,colour,0.4
174,20,1,1,5,35,235,541.0864527244121,541.9836766622029,"[44, 0, 210]",210,a,0.37394094839692116,colour,0.4
174,20,1,1,5,36,236,542.4975116816349,543.1916552716866,"[79, 0, 175]",175,l,0.17190271709114313,colour,0.4
174,20,1,1,5,37,237,543.7007550816052,544.4236383959651,"[51, 0, 203]",203,a,0.2005743058398366,colour,0.4
174,20,1,1,5,38,238,544.9351910785772,545.7597059388645,"[66, 0, 188]",188,l,0.3023559073917568,colour,0.4
174,20,1,1,5,39,239,546.2790441676043,547.263665271923,"[94, 0, 160]",160,l,0.46238220063969493,colour,0.4
174,20,1,1,5,40,240,547.7791442046873,548.5116397226229,"[57, 0, 197]",197,a,0.21021841140463948,colour,0.4
174,20,1,1,5,41,241,549.0292300628498,549.7596295331605,"[36, 0, 218]",218,a,0.20549698639661074,colour,0.4
174,20,1,1,5,42,242,550.2663816274144,550.9836274315603,"[33, 0, 221]",221,a,0.19516168162226677,colour,0.4
174,20,1,1,5,43,243,551.5008073844947,552.175617471803,"[76, 0, 178]",178,l,0.15253691887483,colour,0.4
174,20,1,1,5,44,244,552.6883997414261,553.3356425836682,"[92, 0, 162]",162,l,0.12494880007579923,colour,0.4
174,20,1,1,5,45,245,553.8447400303558,554.9596319748089,"[38, 0, 216]",216,a,0.5926684006117284,colour,0.4
174,20,1,1,5,46,246,555.4698597593233,556.1836653193459,"[80, 0, 174]",174,l,0.19153751153498888,colour,0.4
174,20,1,1,5,47,247,556.6887341164984,557.3996346686035,"[71, 0, 183]",183,l,0.18862738367170095,colour,0.4
174,20,1,1,5,48,248,557.9076045346446,558.5436302511953,"[55, 0, 199]",199,a,0.11380650475621223,colour,0.4
174,20,1,1,5,49,249,559.0639188303612,559.6876593106426,"[78, 0, 176]",176,l,0.10144210606813431,colour,0.4
174,20,1,1,5,50,250,560.2046777871437,560.7596661606804,"[98, 0, 156]",156,l,0.032803820446133614,colour,0.4
174,20,1,1,6,1,251,565.9386990643106,566.7836580728181,"[67, 0, 187]",187,l,0.32198912696912885,colour,0.28
174,20,1,1,6,2,252,567.2989688329399,567.8556617717259,"[20, 0, 234]",234,a,0.034488693345338106,colour,0.28
174,20,1,1,6,3,253,568.3614981742576,569.61564143328,"[62, 0, 192]",192,a,0.7318358258344233,colour,0.28
174,20,1,1,6,4,254,570.1273091188632,570.8396342117339,"[59, 0, 195]",195,a,0.19027247838675976,colour,0.28
174,20,1,1,6,5,255,571.3461334570311,571.9916272298433,"[52, 0, 202]",202,a,0.1232450227253139,colour,0.28
174,20,1,1,6,6,256,572.5024883188307,573.0956576913595,"[98, 0, 156]",156,l,0.07090368727222085,colour,0.28
174,20,1,1,6,7,257,573.6119247092865,574.183642082382,"[23, 0, 231]",231,a,0.04943672148510814,colour,0.28
174,20,1,1,6,8,258,574.6901779556647,575.3596053509973,"[83, 0, 171]",171,l,0.14724796218797565,colour,0.28
174,20,1,1,6,9,259,575.8778033955023,576.5196560625918,"[85, 0, 169]",169,l,0.11974924616515636,colour,0.28
174,20,1,1,6,10,260,577.0340030817315,577.7676494172774,"[61, 0, 193]",193,a,0.20818616589531302,colour,0.28
174,20,1,1,6,11,261,578.2873287168331,578.9196412540041,"[46, 0, 208]",208,a,0.1100787534378469,colour,0.28
174,20,1,1,6,12,262,579.428008904215,580.279612487182,"[68, 0, 186]",186,l,0.3293816144578159,colour,0.28
174,20,1,1,6,13,263,580.7876241011545,581.4556253803894,"[44, 0, 210]",210,a,0.14580845553427935,colour,0.28
174,20,1,1,6,14,264,581.9751136642881,582.6076109148562,"[50, 0, 204]",204,a,0.11086959578096867,colour,0.28
174,20,1,1,6,15,265,583.1158170886338,583.8396519348025,"[78, 0, 176]",176,l,0.2015455299988389,colour,0.28
174,20,1,1,6,16,266,584.3502936516888,584.9996400251985,"[55, 0, 199]",199,a,0.1269912850111723,colour,0.28
174,20,1,1,6,17,267,585.5066752946004,586.1356239938177,"[0, 0, 254]",254,a,0.10670625092461705,colour,0.28
174,20,1,1,6,18,268,586.647470485419,587.2796207582578,"[89, 0, 165]",165,l,0.10994957201182842,colour,0.28
174,20,1,1,6,19,269,587.7881506732665,588.4396088481881,"[12, 0, 242]",242,a,0.12932797288522124,colour,0.28
174,20,1,1,6,20,270,588.9444149499759,589.59159477707,"[51, 0, 203]",203,a,0.12494013551622629,colour,0.28
174,20,1,1,6,21,271,590.1007253066637,590.6716463235207,"[53, 0, 201]",201,a,0.04866714682430029,colour,0.28
174,20,1,1,6,22,272,591.1790506266989,591.8876184294932,"[64, 0, 190]",190,l,0.18644035747274756,colour,0.28
174,20,1,1,6,23,273,592.3978095869534,593.0236465092748,"[81, 0, 173]",173,a,0.10358974803239107,colour,0.28
174,20,1,1,6,24,274,593.5385669684038,594.8236464303918,"[22, 0, 232]",232,a,0.7628082628361881,colour,0.28
174,20,1,1,6,25,275,595.3355752360076,596.0636273841374,"[56, 0, 198]",198,a,0.20578646287322044,colour,0.28
174,20,1,1,6,26,276,596.5701415957883,597.2636317950673,"[65, 0, 189]",189,l,0.17129855696111917,colour,0.28
174,20,1,1,6,27,277,597.7732672356069,598.895603261888,"[92, 0, 162]",162,l,0.6000601011328399,colour,0.28
174,20,1,1,6,28,278,599.4140754234977,600.0076421862468,"[66, 0, 188]",188,a,0.07132116379216313,colour,0.28
174,20,1,1,6,29,279,600.5234779431485,601.1756371641532,"[11, 0, 243]",243,a,0.12984824320301414,colour,0.28
174,20,1,1,6,30,280,601.6954818787053,602.3996342746541,"[71, 0, 183]",183,l,0.18190325237810612,colour,0.28
174,20,1,1,6,31,281,602.9144633617252,603.5916412505321,"[75, 0, 179]",179,l,0.155157963745296,colour,0.28
174,20,1,1,6,32,282,604.1019092076458,604.791633058805,"[93, 0, 161]",161,l,0.16747825173661113,colour,0.28
174,20,1,1,6,33,283,605.3051002263092,605.8876365465112,"[31, 0, 223]",223,a,0.06049079494550824,colour,0.28
174,20,1,1,6,34,284,606.3988745459355,607.0476214857772,"[54, 0, 200]",200,a,0.1264225714839995,colour,0.28
174,20,1,1,6,35,285,607.55528848432,608.119625184685,"[38, 0, 216]",216,a,0.04215372260659933,colour,0.28
174,20,1,1,6,36,286,608.633497226052,609.1996542820707,"[14, 0, 240]",240,a,0.04385986318811774,colour,0.28
174,20,1,1,6,37,287,609.7117406260222,610.2476570107974,"[74, 0, 180]",180,l,0.013744828756898642,colour,0.28
174,20,1,1,6,38,288,610.758733139839,611.3516150047071,"[87, 0, 167]",167,l,0.07076308410614729,colour,0.28
174,20,1,1,6,39,289,611.8658352056518,612.4476216435432,"[48, 0, 206]",206,a,0.05959085701033473,colour,0.28
174,20,1,1,6,40,290,612.9596197656356,613.583606006112,"[86, 0, 168]",168,l,0.10185761377215385,colour,0.28
174,20,1,1,6,41,291,614.1003220085986,614.6636390420608,"[5, 0, 249]",249,a,0.04111593868583441,colour,0.28
174,20,1,1,6,42,292,615.1785047561862,615.7676340574399,"[82, 0, 172]",172,l,0.06684234831482172,colour,0.28
174,20,1,1,6,43,293,616.2879494177178,617.1516231968999,"[80, 0, 174]",174,l,0.3415144323371351,colour,0.28
174,20,1,1,6,44,294,617.6631061686203,618.3436144185252,"[94, 0, 160]",160,l,0.15820830035954714,colour,0.28
174,20,1,1,6,45,295,618.8507193992846,619.4635735847987,"[19, 0, 235]",235,a,0.0906775095500052,colour,0.28
174,20,1,1,6,46,296,619.9757611467503,620.6156118949875,"[72, 0, 182]",182,l,0.11804546881467104,colour,0.28
174,20,1,1,6,47,297,621.1320329066366,621.7516147685237,"[73, 0, 181]",181,l,0.09720077970996499,colour,0.28
174,20,1,1,6,48,298,622.2572018667124,622.8395987655967,"[90, 0, 164]",164,l,0.060202499851584435,colour,0.28
174,20,1,1,6,49,299,623.3510596822016,623.903603060171,"[99, 0, 155]",155,l,0.030384031124413013,colour,0.28
174,20,1,1,6,50,300,624.4136571590789,625.5116086085327,"[76, 0, 178]",178,l,0.575731844175607,colour,0.28
174,20,1,1,7,1,301,630.1007918668911,630.8555916668847,"[63, 0, 191]",191,l,0.23178659519180655,colour,0.14
174,20,1,1,7,2,302,631.3672991311178,631.9515853086486,"[54, 0, 200]",200,a,0.062047273851931095,colour,0.14
174,20,1,1,7,3,303,632.4611025955528,633.0956127927639,"[52, 0, 202]",202,a,0.11234651785343885,colour,0.14
174,20,1,1,7,4,304,633.6018276815303,634.2155999219976,"[85, 0, 169]",169,l,0.09150655521079898,colour,0.14
174,20,1,1,7,5,305,634.7269781306386,635.2795979152434,"[58, 0, 196]",196,a,0.03062467137351632,colour,0.14
174,20,1,1,7,6,306,635.7894377615303,636.3356280112639,"[80, 0, 174]",174,l,0.02390920463949442,colour,0.14
174,20,1,1,7,7,307,636.8521029800177,637.7995911091566,"[57, 0, 197]",197,a,0.4377085412852466,colour,0.14
174,20,1,1,7,8,308,638.3085121135227,638.9276079689153,"[98, 0, 156]",156,l,0.0968073271214962,colour,0.14
174,20,1,1,7,9,309,639.4337236084975,640.1196220340207,"[60, 0, 194]",194,a,0.1637166291475296,colour,0.14
174,20,1,1,7,10,310,640.6368055315688,641.8876223680563,"[68, 0, 186]",186,l,0.7285440620034933,colour,0.14
174,20,1,1,7,11,311,642.4026282913983,643.7276019826531,"[9, 0, 245]",245,a,0.8027572366409004,colour,0.14
174,20,1,1,7,12,312,644.2465329747647,644.911580409389,"[84, 0, 170]",170,l,0.14279356505721807,colour,0.14
174,20,1,1,7,13,313,645.4185132789426,646.0395866353065,"[90, 0, 164]",164,l,0.09890376916155219,colour,0.14
174,20,1,1,7,14,314,646.559215915855,647.1675975872204,"[83, 0, 171]",171,l,0.08618924114853144,colour,0.14
174,20,1,1,7,15,315,647.6842875960283,648.2716134767979,"[78, 0, 176]",176,l,0.06508264457806945,colour,0.14
174,20,1,1,7,16,316,648.7781150853261,649.3516173679382,"[22, 0, 232]",232,a,0.05125825898721814,colour,0.14
174,20,1,1,7,17,317,649.8719945619814,650.8395700152032,"[64, 0, 190]",190,a,0.4453570293262601,colour,0.14
174,20,1,1,7,18,318,651.3563892049715,652.2476278659888,"[69, 0, 185]",185,l,0.36895446479320526,colour,0.14
174,20,1,1,7,19,319,652.7628441033885,653.4955790797248,"[74, 0, 180]",180,l,0.21048662019893527,colour,0.14
174,20,1,1,7,20,320,654.0129153896123,654.6875769970939,"[18, 0, 236]",236,a,0.15242861164733768,colour,0.14
174,20,1,1,7,21,321,655.2005179864354,655.8315934534185,"[53, 0, 201]",201,a,0.10916857561096549,colour,0.14
174,20,1,1,7,22,322,656.3412757618353,656.8716093804687,"[11, 0, 243]",243,a,0.008249890524893999,colour,0.14
174,20,1,1,7,23,323,657.3881221585907,658.4955845936202,"[75, 0, 179]",179,l,0.5852002943865955,colour,0.14
174,20,1,1,7,24,324,659.0133620109409,659.5996032399125,"[76, 0, 178]",178,l,0.06402438087388873,colour,0.14
174,20,1,1,7,25,325,660.1070906445384,660.647631962318,"[82, 0, 172]",172,l,0.018320530652999878,colour,0.14
174,20,1,1,7,26,326,661.1540973368101,661.8075850000605,"[94, 0, 160]",160,l,0.13133501168340445,colour,0.14
174,20,1,1,7,27,327,662.3260764600709,663.2955900286324,"[39, 0, 215]",215,a,0.44800131069496274,colour,0.14
174,20,1,1,7,28,328,663.8105577491224,664.6075703487732,"[72, 0, 182]",182,l,0.2749824342317879,colour,0.14
174,20,1,1,7,29,329,665.1231434103101,665.7355627901852,"[55, 0, 199]",199,a,0.09020725730806589,colour,0.14
174,20,1,1,7,30,330,666.2482505366206,666.9435646366328,"[97, 0, 157]",157,l,0.1730531407520175,colour,0.14
174,20,1,1,7,31,331,667.4514277703129,668.2075764928013,"[77, 0, 177]",177,l,0.2338349879719317,colour,0.14
174,20,1,1,7,32,332,668.717141435016,669.3515665619634,"[99, 0, 155]",155,l,0.1121015464887023,colour,0.14
174,20,1,1,7,33,333,669.8580535980873,670.5115908854641,"[59, 0, 195]",195,a,0.13142086984589696,colour,0.14
174,20,1,1,7,34,334,671.0298590348102,671.6155646336265,"[65, 0, 189]",189,a,0.06341903982684016,colour,0.14
174,20,1,1,7,35,335,672.1237365426496,672.7595743946731,"[50, 0, 204]",204,a,0.11368559440597892,colour,0.14
174,20,1,1,7,36,336,673.2645018007606,673.9435579413548,"[79, 0, 175]",175,l,0.15690427646040916,colour,0.14
174,20,1,1,7,37,337,674.4520272039808,675.0955954636447,"[93, 0, 161]",161,l,0.12130296835675836,colour,0.14
174,20,1,1,7,38,338,675.6083954563364,676.2075910652056,"[95, 0, 159]",159,l,0.07700278516858816,colour,0.14
174,20,1,1,7,39,339,676.7178928931244,677.3595573017374,"[66, 0, 188]",188,a,0.11941408319398761,colour,0.14
174,20,1,1,7,40,340,677.8742067944258,678.4715666878037,"[91, 0, 163]",163,l,0.07513280492275953,colour,0.14
174,20,1,1,7,41,341,678.9743342432193,679.6555510219187,"[87, 0, 167]",167,l,0.15950168995186687,colour,0.14
174,20,1,1,7,42,342,680.1619892213494,680.8155879490077,"[67, 0, 187]",187,a,0.13137557776644826,colour,0.14
174,20,1,1,7,43,343,681.3339388058521,681.9835589020513,"[89, 0, 165]",165,l,0.1272965152747929,colour,0.14
174,20,1,1,7,44,344,682.4902231688611,683.1675885287113,"[70, 0, 184]",184,a,0.15504217287525535,colour,0.14
174,20,1,1,7,45,345,683.6777918953449,684.2875563595444,"[61, 0, 193]",193,a,0.08751768385991454,colour,0.14
174,20,1,1,7,46,346,684.8029825165868,685.7595153176226,"[5, 0, 249]",249,a,0.4343380080536008,colour,0.14
174,20,1,1,7,47,347,686.2718269410543,686.8155564414337,"[73, 0, 181]",181,l,0.021567790303379297,colour,0.14
174,20,1,1,7,48,348,687.3343704612926,687.9355750782415,"[92, 0, 162]",162,l,0.07892869180068374,colour,0.14
174,20,1,1,7,49,349,688.4438879839145,689.0155521878041,"[31, 0, 223]",223,a,0.04969784105196595,colour,0.14
174,20,1,1,7,50,350,689.5220553716645,690.1275513339788,"[51, 0, 203]",203,a,0.0832452429458499,colour,0.14
174,20,1,1,8,1,351,778.9189709280618,780.7675044820644,"[60, 0, 194]",194,a,1.3254837216809392,colour,0.06
174,20,1,1,8,2,352,781.2793844505213,782.1674995198846,"[67, 0, 187]",187,l,0.36590727930888534,colour,0.06
174,20,1,1,8,3,353,782.6856369120069,783.4715233645402,"[65, 0, 189]",189,l,0.2637070193886757,colour,0.06
174,20,1,1,8,4,354,783.9826514814049,784.7195175075904,"[95, 0, 159]",159,l,0.21461018733680248,colour,0.06
174,20,1,1,8,5,355,785.2327314317226,785.9355376628228,"[96, 0, 158]",158,l,0.18061577016487718,colour,0.06
174,20,1,1,8,6,356,786.4516168166883,787.1675215750001,"[79, 0, 175]",175,l,0.19367609452456236,colour,0.06
174,20,1,1,8,7,357,787.6860799887218,788.3834940753877,"[51, 0, 203]",203,a,0.1752500138245523,colour,0.06
174,20,1,1,8,8,358,788.8893119669519,789.559493183624,"[88, 0, 166]",166,l,0.14801438665017486,colour,0.06
174,20,1,1,8,9,359,790.0768810869195,790.8155040601268,"[63, 0, 191]",191,a,0.2166215581819415,colour,0.06
174,20,1,1,8,10,360,791.3268243731,792.0234846384265,"[83, 0, 171]",171,l,0.17458795802667737,colour,0.06
174,20,1,1,8,11,361,792.5301725361496,793.2475550048985,"[77, 0, 177]",177,l,0.195101423189044,colour,0.06
174,20,1,1,8,12,362,793.764638859313,794.3594789262861,"[78, 0, 176]",176,l,0.07257595704868436,colour,0.06
174,20,1,1,8,13,363,794.8741142405197,795.4795188307762,"[85, 0, 169]",169,l,0.08318695379421115,colour,0.06
174,20,1,1,8,14,364,795.9992832005955,796.6794858262874,"[74, 0, 180]",180,l,0.15798853430896997,colour,0.06
174,20,1,1,8,15,365,797.1867889114656,797.7595007452182,"[58, 0, 196]",196,a,0.050444573163986206,colour,0.06
174,20,1,1,8,16,366,798.2650189204141,798.9275114769116,"[75, 0, 179]",179,l,0.14023711113259196,colour,0.06
174,20,1,1,8,17,367,799.436979138758,800.0154730249196,"[12, 0, 242]",242,a,0.05626364657655358,colour,0.06
174,20,1,1,8,18,368,800.5308645237237,801.191508367192,"[54, 0, 200]",200,a,0.13841872429475188,colour,0.06
174,20,1,1,8,19,369,801.7027463666163,802.3034720672294,"[90, 0, 164]",164,l,0.07841551071032882,colour,0.06
174,20,1,1,8,20,370,802.8122820062563,804.1834821808152,"[64, 0, 190]",190,a,0.8490384644828737,colour,0.06
174,20,1,1,8,21,371,804.7030535666272,805.4234741623513,"[61, 0, 193]",193,a,0.2066407147794962,colour,0.06
174,20,1,1,8,22,372,805.9290829221718,806.6475338945165,"[73, 0, 181]",181,l,0.19615771807730198,colour,0.06
174,20,1,1,8,23,373,807.1636169864796,807.8794796038419,"[53, 0, 201]",201,a,0.19362489506602287,colour,0.06
174,20,1,1,8,24,374,808.3980533774011,809.0554779241793,"[81, 0, 173]",173,l,0.1352604739367962,colour,0.06
174,20,1,1,8,25,375,809.5699100145139,810.2635045829229,"[52, 0, 202]",202,a,0.1712292404845357,colour,0.06
174,20,1,1,8,26,376,810.7732680235058,811.4714954015799,"[62, 0, 192]",192,a,0.17597232665866613,colour,0.06
174,20,1,1,8,27,377,811.9764098110609,812.6475394084118,"[72, 0, 182]",182,l,0.14953502546995878,colour,0.06
174,20,1,1,8,28,378,813.1640620324761,813.7835044725798,"[56, 0, 198]",198,a,0.09721692698076367,colour,0.06
174,20,1,1,8,29,379,814.2891577370465,815.1034688376822,"[80, 0, 174]",174,l,0.29204029543325305,colour,0.06
174,20,1,1,8,30,380,815.617366084829,816.2395024308935,"[50, 0, 204]",204,a,0.09983797185122967,colour,0.06
174,20,1,1,8,31,381,816.7581719090231,817.463474729564,"[71, 0, 183]",183,l,0.18317734403535724,colour,0.06
174,20,1,1,8,32,382,817.9768891213462,818.6714962678961,"[97, 0, 157]",157,l,0.1729334113188088,colour,0.06
174,20,1,1,8,33,383,819.1800450878218,819.8154729460366,"[18, 0, 236]",236,a,0.1130243269726634,colour,0.06
174,20,1,1,8,34,384,820.3209032937884,821.0634773289785,"[84, 0, 170]",170,l,0.22036270052194595,colour,0.06
174,20,1,1,8,35,385,821.5709379520267,822.2074926039204,"[91, 0, 163]",163,l,0.11433977261185646,colour,0.06
174,20,1,1,8,36,386,822.7150264824741,823.2874689255841,"[76, 0, 178]",178,l,0.05038234544917941,colour,0.06
174,20,1,1,8,37,387,823.7931308546104,824.4394832113758,"[82, 0, 172]",172,l,0.12423318205401301,colour,0.06
174,20,1,1,8,38,388,824.9494624794461,826.8634607084095,"[68, 0, 186]",186,l,1.3916923715732992,colour,0.06
174,20,1,1,8,39,389,827.371579054743,828.1434674356133,"[86, 0, 168]",168,a,0.24960772972553968,colour,0.06
174,20,1,1,8,40,390,828.6529221008532,829.2474947464652,"[22, 0, 232]",232,a,0.08480408554896712,colour,0.06
174,20,1,1,8,41,391,829.7654816894792,830.4314747485332,"[87, 0, 167]",167,l,0.1435643215663731,colour,0.06
174,20,1,1,8,42,392,830.9375254032202,832.071460979525,"[66, 0, 188]",188,a,0.6117183337919414,colour,0.06
174,20,1,1,8,43,393,832.5782737261616,833.2474935646169,"[98, 0, 156]",156,l,0.1469387928955257,colour,0.06
174,20,1,1,8,44,394,833.76594130788,834.4154893299565,"[59, 0, 195]",195,a,0.12722483556717634,colour,0.06
174,20,1,1,8,45,395,834.9221362676471,835.5354926069267,"[99, 0, 155]",155,l,0.0910189738497138,colour,0.06
174,20,1,1,8,46,396,836.0473402799107,836.7114818692207,"[92, 0, 162]",162,l,0.14215947315096855,colour,0.06
174,20,1,1,8,47,397,837.2193678459153,837.7754704095423,"[57, 0, 197]",197,a,0.03394242888316512,colour,0.06
174,20,1,1,8,48,398,838.2825864180923,838.8714612945914,"[93, 0, 161]",161,l,0.06733701890334487,colour,0.06
174,20,1,1,8,49,399,839.3913312153891,840.8714526300319,"[70, 0, 184]",184,l,0.9578616372309625,colour,0.06
174,20,1,1,8,50,400,841.3916025748476,842.1514593567699,"[69, 0, 185]",185,l,0.2377687208354473,colour,0.06
174,20,1,1,9,1,401,847.1411579228006,847.9034577310085,"[60, 0, 194]",194,a,0.2392432801425457,colour,0.06
174,20,1,1,9,2,402,848.4233678239398,848.9674955024384,"[77, 0, 177]",177,l,0.021952577866613865,colour,0.06
174,20,1,1,9,3,403,849.4858825933188,850.0314946770668,"[50, 0, 204]",204,a,0.023396810982376337,colour,0.06
174,20,1,1,9,4,404,850.5484269009903,851.1834565810859,"[71, 0, 183]",183,l,0.11274312110617757,colour,0.06
174,20,1,1,9,5,405,851.6891945223324,852.2634789831936,"[96, 0, 158]",158,l,0.052066036965698004,colour,0.06
174,20,1,1,9,6,406,852.7830078331754,853.3754800981842,"[61, 0, 193]",193,a,0.07031094888225198,colour,0.06
174,20,1,1,9,7,407,853.8924836083315,854.4954908583313,"[58, 0, 196]",196,a,0.08081442629918456,colour,0.06
174,20,1,1,9,8,408,855.0019550514407,855.5914529925212,"[56, 0, 198]",198,a,0.06723343720659614,colour,0.06
174,20,1,1,9,9,409,856.11142649455,856.751466288697,"[67, 0, 187]",187,l,0.11786981346085668,colour,0.06
174,20,1,1,9,10,410,857.2677014051005,857.8474756842479,"[59, 0, 195]",195,a,0.0574664524756372,colour,0.06
174,20,1,1,9,11,411,858.3616001806222,858.967465964146,"[94, 0, 160]",160,l,0.08371352590620518,colour,0.06
174,20,1,1,9,12,412,859.4866655590013,860.0554822566919,"[74, 0, 180]",180,l,0.04679362149909139,colour,0.06
174,20,1,1,9,13,413,860.5649321954697,861.1754804132506,"[90, 0, 164]",164,l,0.08836445212364197,colour,0.06
174,20,1,1,9,14,414,861.6899384972639,862.2714827200398,"[84, 0, 170]",170,l,0.05923324543982744,colour,0.06
174,20,1,1,9,15,415,862.7849116842262,863.3754541045055,"[52, 0, 202]",202,a,0.06821805192157626,colour,0.06
174,20,1,1,9,16,416,863.8943382287398,864.503482779488,"[87, 0, 167]",167,l,0.08710729610174894,colour,0.06
174,20,1,1,9,17,417,865.0194741054438,865.6794354142621,"[64, 0, 190]",190,a,0.13769680494442582,colour,0.06
174,20,1,1,9,18,418,866.1914295977913,866.7594822347164,"[83, 0, 171]",171,l,0.045895259361714125,colour,0.06
174,20,1,1,9,19,419,867.2695776871406,868.0714408932254,"[13, 0, 241]",241,a,0.27956522535532713,colour,0.06
174,20,1,1,9,20,420,868.5821720133536,869.2234669942409,"[63, 0, 191]",191,a,0.11898321565240622,colour,0.06
174,20,1,1,9,21,421,869.7385469609872,870.311478166841,"[78, 0, 176]",176,l,0.05075019737705588,colour,0.06
174,20,1,1,9,22,422,870.8167434930801,871.5114802150056,"[98, 0, 156]",156,l,0.1724741873331368,colour,0.06
174,20,1,1,9,23,423,872.0199813791551,872.6874623880722,"[97, 0, 157]",157,l,0.14523974200710654,colour,0.06
174,20,1,1,9,24,424,873.2075544376858,873.8474890748039,"[91, 0, 163]",163,l,0.11767485970631242,colour,0.06
174,20,1,1,9,25,425,874.363905754406,875.0874727852643,"[5, 0, 249]",249,a,0.20135175762698054,colour,0.06
174,20,1,1,9,26,426,875.5984209142625,876.3434218280017,"[75, 0, 179]",179,l,0.22279863758012652,colour,0.06
174,20,1,1,9,27,427,876.8484004344791,877.4234521067701,"[10, 0, 244]",244,a,0.05269343312829733,colour,0.06
174,20,1,1,9,28,428,877.9423322929069,878.4874721551314,"[79, 0, 175]",175,l,0.02301990007981658,colour,0.06
174,20,1,1,9,29,429,879.0048777819611,879.5914561431855,"[51, 0, 203]",203,a,0.06426659598946571,colour,0.06
174,20,1,1,9,30,430,880.0987202371471,880.7194576426409,"[72, 0, 182]",182,l,0.09825707413256168,colour,0.06
174,20,1,1,9,31,431,881.2403003629297,881.9114405941218,"[81, 0, 173]",173,l,0.14965514838695526,colour,0.06
174,20,1,1,9,32,432,882.4272101847455,882.9834226313978,"[76, 0, 178]",178,l,0.03432091511785984,colour,0.06
174,20,1,1,9,33,433,883.4896706030704,884.071436167229,"[85, 0, 169]",169,l,0.05951917730271816,colour,0.06
174,20,1,1,9,34,434,884.5835461416282,885.2874311166815,"[70, 0, 184]",184,a,0.18155903136357665,colour,0.06
174,20,1,1,9,35,435,885.8023338522762,886.463465671055,"[55, 0, 199]",199,a,0.13879327196627855,colour,0.06
174,20,1,1,9,36,436,886.9743236093782,887.6234742412344,"[99, 0, 155]",155,l,0.12676561158150434,colour,0.06
174,20,1,1,9,37,437,888.130763147492,888.7434597946703,"[89, 0, 165]",165,l,0.09046365087851882,colour,0.06
174,20,1,1,9,38,438,889.2557887476869,889.7914325911552,"[80, 0, 174]",174,l,0.01334625668823719,colour,0.06
174,20,1,1,9,39,439,890.3028214336373,891.1434540445916,"[68, 0, 186]",186,a,0.31841379310935736,colour,0.06
174,20,1,1,9,40,440,891.6621967782266,892.2554677631706,"[62, 0, 192]",192,a,0.07093440741300583,colour,0.06
174,20,1,1,9,41,441,892.7717040614225,893.3674519429915,"[92, 0, 162]",162,l,0.07348062098026276,colour,0.06
174,20,1,1,9,42,442,893.8812137073837,895.8714203345589,"[57, 0, 197]",197,a,1.467977569438517,colour,0.06
174,20,1,1,9,43,443,896.3813700643368,897.0634316429496,"[82, 0, 172]",172,l,0.16009679157286882,colour,0.06
174,20,1,1,9,44,444,897.5689230365679,898.2794309244491,"[95, 0, 159]",159,l,0.1882422026246786,colour,0.06
174,20,1,1,9,45,445,898.7878096024506,899.4075009534135,"[54, 0, 200]",200,a,0.09536309447139502,colour,0.06
174,20,1,1,9,46,446,899.9151191147976,900.4794605416246,"[93, 0, 161]",161,l,0.04218326136469841,colour,0.06
174,20,1,1,9,47,447,900.9933967795223,901.6874564802274,"[73, 0, 181]",181,a,0.17215674743056297,colour,0.06
174,20,1,1,9,48,448,902.1964247454889,904.3674554876052,"[53, 0, 201]",201,a,1.6487666321918368,colour,0.06
174,20,1,1,9,49,449,904.8841742472723,905.7994662602432,"[66, 0, 188]",188,a,0.3930672877468169,colour,0.06
174,20,1,1,9,50,450,906.3061754256487,907.0234413156286,"[65, 0, 189]",189,a,0.19506558310240507,colour,0.06
174,20,1,1,10,1,451,911.3308053677902,912.4154263148084,"[88, 0, 166]",166,l,0.5614253915846348,colour,0.06
174,20,1,1,10,2,452,912.9256237735972,915.2234480897896,"[71, 0, 183]",183,l,1.7756949015893042,colour,0.06
174,20,1,1,10,3,453,915.738363428507,916.375444652047,"[76, 0, 178]",178,l,0.114895882550627,colour,0.06
174,20,1,1,10,4,454,916.894609588664,917.6474098330364,"[62, 0, 192]",192,a,0.230662165209651,colour,0.06
174,20,1,1,10,5,455,918.1602373947389,918.8234038213268,"[56, 0, 198]",198,a,0.14136469177901745,colour,0.06
174,20,1,1,10,6,456,919.3323673605919,919.903433312662,"[81, 0, 173]",173,l,0.04881680803373456,colour,0.06
174,20,1,1,10,7,457,920.4105607424863,920.9594342643395,"[64, 0, 190]",190,a,0.02685832278802991,colour,0.06
174,20,1,1,10,8,458,921.4730952037498,922.0394598171115,"[57, 0, 197]",197,a,0.04415288474410772,colour,0.06
174,20,1,1,10,9,459,922.5501696690917,923.1034247269854,"[74, 0, 180]",180,l,0.031726258341223,colour,0.06
174,20,1,1,10,10,460,923.6127360318787,924.1754461489618,"[80, 0, 174]",174,l,0.040400320664048195,colour,0.06
174,20,1,1,10,11,461,924.6909853396937,925.2954399734735,"[97, 0, 157]",157,l,0.08218461601063609,colour,0.06
174,20,1,1,10,12,462,925.8004260626622,926.3594367848709,"[79, 0, 175]",175,l,0.03675567079335451,colour,0.06
174,20,1,1,10,13,463,926.8786430750042,927.4474329911172,"[91, 0, 163]",163,l,0.046475394163280725,colour,0.06
174,20,1,1,10,14,464,927.9568573301658,928.9753869930282,"[61, 0, 193]",193,a,0.4962785495445132,colour,0.06
174,20,1,1,10,15,465,929.4922034265473,930.1753941611387,"[65, 0, 189]",189,a,0.16103532630950212,colour,0.06
174,20,1,1,10,16,466,930.6953782970086,931.3434320678934,"[73, 0, 181]",181,l,0.12584834406152368,colour,0.06
174,20,1,1,10,17,467,931.8517170110717,932.391408408992,"[55, 0, 199]",199,a,0.01751590333878994,colour,0.06
174,20,1,1,10,18,468,932.8986417832784,933.5914750476368,"[98, 0, 156]",156,l,0.16981336427852511,colour,0.06
174,20,1,1,10,19,469,934.1026523951441,934.6714281328022,"[38, 0, 216]",216,a,0.046587640419602394,colour,0.06
174,20,1,1,10,20,470,935.1808607424609,935.8634102963842,"[99, 0, 155]",155,l,0.16029922850430012,colour,0.06
174,20,1,1,10,21,471,936.3684460101649,936.9593956670724,"[51, 0, 203]",203,a,0.06868082098662853,colour,0.06
174,20,1,1,10,22,472,937.4779320256785,938.0554121518508,"[52, 0, 202]",202,a,0.055284151807427406,colour,0.06
174,20,1,1,10,23,473,938.5718788499944,939.2074071392417,"[54, 0, 200]",200,a,0.1134268376044929,colour,0.06
174,20,1,1,10,24,474,939.7125224098563,940.2954376102425,"[89, 0, 165]",165,l,0.06070741033181548,colour,0.06
174,20,1,1,10,25,475,940.8062975178473,941.4553981311619,"[96, 0, 158]",158,l,0.12681287294253707,colour,0.06
174,20,1,1,10,26,476,941.9626815239899,943.271417341195,"[66, 0, 188]",188,a,0.7865406307391822,colour,0.06
174,20,1,1,10,27,477,943.7910119635053,945.7593821976334,"[77, 0, 177]",177,l,1.4461990715935826,colour,0.06
174,20,1,1,10,28,478,946.2690054289997,947.3674113769084,"[95, 0, 159]",159,l,0.5760866994969547,colour,0.06
174,20,1,1,10,29,479,947.868302650284,948.5433837040327,"[63, 0, 191]",191,a,0.15286656841635704,colour,0.06
174,20,1,1,10,30,480,949.0558619243093,949.7994115157053,"[86, 0, 168]",168,l,0.2212882386520505,colour,0.06
174,20,1,1,10,31,481,950.3059560530819,950.9834119975567,"[60, 0, 194]",194,a,0.1552371266297996,colour,0.06
174,20,1,1,10,32,482,951.4935905518942,954.1274079740979,"[72, 0, 182]",182,a,2.111862087622285,colour,0.06
174,20,1,1,10,33,483,954.6344408807345,955.5113679687493,"[70, 0, 184]",184,a,0.36702107544988394,colour,0.06
174,20,1,1,10,34,484,956.0284396139905,956.6474314946681,"[93, 0, 161]",161,l,0.09684671182185411,colour,0.06
174,20,1,1,10,35,485,957.1535030235536,957.7514253286645,"[53, 0, 201]",201,a,0.07568182609975338,colour,0.06
174,20,1,1,10,36,486,958.2629500478506,958.9354222659022,"[90, 0, 164]",164,l,0.15021716663613915,colour,0.06
174,20,1,1,10,37,487,959.4505857280456,959.9834379917011,"[84, 0, 170]",170,l,0.010665741749107838,colour,0.06
174,20,1,1,10,38,488,960.4975632755086,961.0714247454889,"[94, 0, 160]",160,l,0.05162571696564555,colour,0.06
174,20,1,1,10,39,489,961.5913092386909,962.255415381398,"[50, 0, 204]",204,a,0.14181997766718268,colour,0.06
174,20,1,1,10,40,490,962.7632796969265,963.359379677102,"[92, 0, 162]",162,l,0.07381263328716159,colour,0.06
174,20,1,1,10,41,491,963.87276571244,964.5033870749176,"[69, 0, 185]",185,a,0.10828636027872562,colour,0.06
174,20,1,1,10,42,492,965.0134868598543,965.6793873650022,"[14, 0, 240]",240,a,0.1435497491620481,colour,0.06
174,20,1,1,10,43,493,966.1856668442488,966.8154142629355,"[59, 0, 195]",195,a,0.10770977009087801,colour,0.06
174,20,1,1,10,44,494,967.3261745274067,967.9194388170727,"[75, 0, 179]",179,l,0.07114353962242603,colour,0.06
174,20,1,1,10,45,495,968.4356440012343,969.1113878972828,"[78, 0, 176]",176,l,0.1535502844490111,colour,0.06
174,20,1,1,10,46,496,969.6232528998516,970.2154266298749,"[7, 0, 247]",247,a,0.07000493118539453,colour,0.06
174,20,1,1,10,47,497,970.7326995301992,971.3354295128956,"[82, 0, 172]",172,l,0.08037725742906332,colour,0.06
174,20,1,1,10,48,498,971.8421890903264,972.4073891011067,"[87, 0, 167]",167,l,0.04304145136848092,colour,0.06
174,20,1,1,10,49,499,972.9204502133653,973.4474081788212,"[58, 0, 196]",196,a,0.004788772203028202,colour,0.06
174,20,1,1,10,50,500,973.9673560811207,974.6234072875232,"[67, 0, 187]",187,a,0.13432233314961195,colour,0.06
174,20,1,1,11,1,501,978.9200161951594,979.4473967575468,"[38, 0, 216]",216,a,0.004337425343692303,colour,0.06
174,20,1,1,11,2,502,979.967851145193,980.5593825126998,"[82, 0, 172]",172,l,0.06984896771609783,colour,0.06
174,20,1,1,11,3,503,981.0772119178437,981.7114133397117,"[75, 0, 179]",179,l,0.11487579671666026,colour,0.06
174,20,1,1,11,4,504,982.2307184855454,982.7993796141818,"[86, 0, 168]",168,l,0.046408834401518106,colour,0.06
174,20,1,1,11,5,505,983.3089386485517,983.9993985975161,"[63, 0, 191]",191,a,0.16824506968259811,colour,0.06
174,20,1,1,11,6,506,984.5122021343559,985.1353656309657,"[55, 0, 199]",199,a,0.10100887576118112,colour,0.06
174,20,1,1,11,7,507,985.6529354914092,986.2153998482972,"[78, 0, 176]",176,l,0.04030225286260247,colour,0.06
174,20,1,1,11,8,508,986.7311182389967,987.2794065061025,"[51, 0, 203]",203,a,0.02610174473375082,colour,0.06
174,20,1,1,11,9,509,987.7936345837079,988.4074009163305,"[68, 0, 186]",186,a,0.0917731886729598,colour,0.06
174,20,1,1,11,10,510,988.9188842820004,989.5834082956426,"[70, 0, 184]",184,a,0.14239617437124252,colour,0.06
174,20,1,1,11,11,511,990.0907948757522,990.7513981531374,"[57, 0, 197]",197,a,0.138390367385,colour,0.06
174,20,1,1,11,12,512,991.262714528013,991.8713644086383,"[93, 0, 161]",161,l,0.08648226270452142,colour,0.06
174,20,1,1,11,13,513,992.3877302818,992.9994080499746,"[91, 0, 163]",163,l,0.08941090106964111,colour,0.06
174,20,1,1,11,14,514,993.5128811248578,994.0953705776483,"[3, 0, 251]",251,a,0.0602820566855371,colour,0.06
174,20,1,1,11,15,515,994.6066692294553,995.2313907803036,"[14, 0, 240]",240,a,0.10242357011884451,colour,0.06
174,20,1,1,11,16,516,995.747416371014,996.3113726163283,"[80, 0, 174]",174,l,0.041724036913365126,colour,0.06
174,20,1,1,11,17,517,996.8255770630203,997.4153605424799,"[53, 0, 201]",201,a,0.06760956021025777,colour,0.06
174,20,1,1,11,18,518,997.935048900079,998.6153877964243,"[71, 0, 183]",183,l,0.15805470012128353,colour,0.06
174,20,1,1,11,19,519,999.1226987582631,999.7753652529791,"[83, 0, 171]",171,l,0.13050596602261066,colour,0.06
174,20,1,1,11,20,520,1000.2946755182929,1000.8953488375992,"[50, 0, 204]",204,a,0.07855099393054843,colour,0.06
174,20,1,1,11,21,521,1001.4041099399328,1002.2553724525496,"[65, 0, 189]",189,a,0.3290657503530383,colour,0.06
174,20,1,1,11,22,522,1002.7635884722695,1003.4313699854538,"[74, 0, 180]",180,a,0.1455319756641984,colour,0.06
174,20,1,1,11,23,523,1003.9512485703453,1004.7273991522379,"[56, 0, 198]",198,a,0.25395578844472766,colour,0.06
174,20,1,1,11,24,524,1005.2325301766396,1005.8153957524337,"[99, 0, 155]",155,l,0.06057625962421298,colour,0.06
174,20,1,1,11,25,525,1006.3263328536414,1006.935357675422,"[73, 0, 181]",181,l,0.08693282259628177,colour,0.06
174,20,1,1,11,26,526,1007.451422650367,1008.0634123440832,"[72, 0, 182]",182,l,0.08962633460760117,colour,0.06
174,20,1,1,11,27,527,1008.5765837333165,1009.5193898226134,"[66, 0, 188]",188,a,0.420849178917706,colour,0.06
174,20,1,1,11,28,528,1010.0297412751243,1010.7193847815506,"[67, 0, 187]",187,a,0.16741681192070246,colour,0.06
174,20,1,1,11,29,529,1011.2330205147155,1011.8633992685936,"[59, 0, 195]",195,a,0.1081756898202002,colour,0.06
174,20,1,1,11,30,530,1012.3737121238373,1012.9273996246047,"[54, 0, 200]",200,a,0.031412363052368164,colour,0.06
174,20,1,1,11,31,531,1013.4363348069601,1013.9833875792101,"[87, 0, 167]",167,l,0.024865461979061365,colour,0.06
174,20,1,1,11,32,532,1014.4988188561983,1015.0953816054389,"[61, 0, 193]",193,a,0.07419427018612623,colour,0.06
174,20,1,1,11,33,533,1015.608335591387,1016.2953592347912,"[90, 0, 164]",164,l,0.1647705608047545,colour,0.06
174,20,1,1,11,34,534,1016.8115010098554,1017.4314834130928,"[52, 0, 202]",202,a,0.09513545176014304,colour,0.06
174,20,1,1,11,35,535,1017.9314259113744,1018.5353772100061,"[58, 0, 196]",196,a,0.08174311462789774,colour,0.06
174,20,1,1,11,36,536,1019.0409182282165,1019.6393816778436,"[85, 0, 169]",169,l,0.076258416287601,colour,0.06
174,20,1,1,11,37,537,1020.1503577698022,1020.8473780103959,"[64, 0, 190]",190,l,0.17481875233352184,colour,0.06
174,20,1,1,11,38,538,1021.353569268249,1022.463377055712,"[89, 0, 165]",165,l,0.5875444654375315,colour,0.06
174,20,1,1,11,39,539,1022.9786700927652,1023.6153310826048,"[95, 0, 159]",159,l,0.11492266412824392,colour,0.06
174,20,1,1,11,40,540,1024.1350351944566,1024.8233471075073,"[94, 0, 160]",160,l,0.16609821561723948,colour,0.06
174,20,1,1,11,41,541,1025.3382667787373,1025.9993749666028,"[77, 0, 177]",177,a,0.1388618010096252,colour,0.06
174,20,1,1,11,42,542,1026.5102045480162,1027.1353510585614,"[69, 0, 185]",185,a,0.1037047510035336,colour,0.06
174,20,1,1,11,43,543,1027.650554298889,1028.2473710784689,"[92, 0, 162]",162,l,0.07561329659074545,colour,0.06
174,20,1,1,11,44,544,1028.7597642284818,1029.463349880185,"[97, 0, 157]",157,l,0.18157754186540842,colour,0.06
174,20,1,1,11,45,545,1029.9785019205883,1030.5193673735484,"[81, 0, 173]",173,l,0.019067262765020132,colour,0.06
174,20,1,1,11,46,546,1031.0255732033402,1031.5673582865857,"[96, 0, 158]",158,l,0.019615889992564917,colour,0.06
174,20,1,1,11,47,547,1032.0724826157093,1032.5994165567681,"[88, 0, 166]",166,l,0.004712759982794523,colour,0.06
174,20,1,1,11,48,548,1033.1194298374467,1033.7273774906062,"[98, 0, 156]",156,l,0.08567251544445753,colour,0.06
174,20,1,1,11,49,549,1034.2448670063168,1034.7913561849855,"[60, 0, 194]",194,a,0.02476188074797392,colour,0.06
174,20,1,1,11,50,550,1035.3071687049232,1035.8473386256956,"[62, 0, 192]",192,a,0.017920383252203465,colour,0.06
174,20,1,1,12,1,551,1040.353610622231,1040.9273885968141,"[18, 0, 236]",236,a,0.050790763925760984,colour,0.06
174,20,1,1,12,2,552,1041.4326531351544,1041.9673572625034,"[84, 0, 170]",170,l,0.012415992561727762,colour,0.06
174,20,1,1,12,3,553,1042.479610990733,1043.6233482104726,"[58, 0, 196]",196,a,0.6214597192592919,colour,0.06
174,20,1,1,12,4,554,1044.1359571875073,1044.7113767121918,"[96, 0, 158]",158,l,0.05325899599120021,colour,0.06
174,20,1,1,12,5,555,1045.2297496246174,1045.823366405908,"[59, 0, 195]",195,a,0.07123530562967062,colour,0.06
174,20,1,1,12,6,556,1046.3392840828747,1047.0473666675389,"[77, 0, 177]",177,l,0.18585510225966573,colour,0.06
174,20,1,1,12,7,557,1047.558040679898,1048.1113650542684,"[55, 0, 199]",199,a,0.031035452149808407,colour,0.06
174,20,1,1,12,8,558,1048.6207472519018,1049.5273640211672,"[72, 0, 182]",182,l,0.3844656930305064,colour,0.06
174,20,1,1,12,9,559,1050.0426535136066,1050.6873528985307,"[81, 0, 173]",173,l,0.12251758901402354,colour,0.06
174,20,1,1,12,10,560,1051.1989398458973,1051.8073656279594,"[98, 0, 156]",156,l,0.08606163552030921,colour,0.06
174,20,1,1,12,11,561,1052.3240832057782,1052.8633441301063,"[85, 0, 169]",169,l,0.017047620844095945,colour,0.06
174,20,1,1,12,12,562,1053.3710717810318,1053.9593373779207,"[95, 0, 159]",159,l,0.06555368425324559,colour,0.06
174,20,1,1,12,13,563,1054.4654443529435,1055.0713447951712,"[67, 0, 187]",187,a,0.08364696614444256,colour,0.06
174,20,1,1,12,14,564,1055.590598740615,1056.1433721245266,"[54, 0, 200]",200,a,0.03058528620749712,colour,0.06
174,20,1,1,12,15,565,1056.653079639189,1057.271355113946,"[56, 0, 198]",198,a,0.09664860786870122,colour,0.06
174,20,1,1,12,16,566,1057.7782856202684,1058.5353661822155,"[70, 0, 184]",184,l,0.2349783224053681,colour,0.06
174,20,1,1,12,17,567,1059.0439264234155,1059.671379296109,"[91, 0, 163]",163,l,0.10543491644784808,colour,0.06
174,20,1,1,12,18,568,1060.1846566293389,1060.735327664297,"[99, 0, 155]",155,l,0.028439613990485668,colour,0.06
174,20,1,1,12,19,569,1061.2472214172594,1061.775356982369,"[92, 0, 162]",162,l,0.00581710459664464,colour,0.06
174,20,1,1,12,20,570,1062.2942143250257,1062.9193226322532,"[76, 0, 178]",178,a,0.10312461573630571,colour,0.06
174,20,1,1,12,21,571,1063.4349059341475,1063.9673363887705,"[89, 0, 165]",165,l,0.010231329593807459,colour,0.06
174,20,1,1,12,22,572,1064.4821666567586,1065.0553251123056,"[90, 0, 164]",164,l,0.051134197507053614,colour,0.06
174,20,1,1,12,23,573,1065.5757562629879,1066.1193175911903,"[97, 0, 157]",157,l,0.02144254744052887,colour,0.06
174,20,1,1,12,24,574,1066.6382773336954,1067.2553539415821,"[71, 0, 183]",183,a,0.09483573446050286,colour,0.06
174,20,1,1,12,25,575,1067.7634006077424,1068.367338909302,"[50, 0, 204]",204,a,0.08166355779394507,colour,0.06
174,20,1,1,12,26,576,1068.87287008157,1069.4553429926746,"[93, 0, 161]",161,l,0.06019107811152935,colour,0.06
174,20,1,1,12,27,577,1069.9666380998679,1070.7273274720646,"[73, 0, 181]",181,l,0.23894750187173486,colour,0.06
174,20,1,1,12,28,578,1071.232326952275,1071.8553108549677,"[51, 0, 203]",203,l,0.10050829779356718,colour,0.06
174,20,1,1,12,29,579,1072.3731323829852,1073.0233523063362,"[68, 0, 186]",186,a,0.12796881049871445,colour,0.06
174,20,1,1,12,30,580,1073.5294970902614,1074.1593244597316,"[53, 0, 201]",201,a,0.10766881005838513,colour,0.06
174,20,1,1,12,31,581,1074.6702186320908,1075.2393389851786,"[52, 0, 202]",202,a,0.04691610811278224,colour,0.06
174,20,1,1,12,32,582,1075.7484588809311,1076.3433434525505,"[20, 0, 234]",234,a,0.07273231353610754,colour,0.06
174,20,1,1,12,33,583,1076.857909056358,1077.4553418112919,"[74, 0, 180]",180,l,0.0752021218650043,colour,0.06
174,20,1,1,12,34,584,1077.9671260751784,1078.5593328881077,"[30, 0, 224]",224,a,0.07030464755371213,colour,0.06
174,20,1,1,12,35,585,1079.0767893209122,1080.199337630067,"[66, 0, 188]",188,a,0.6007186113856733,colour,0.06
174,20,1,1,12,36,586,1080.7175258286297,1081.2633143556304,"[78, 0, 176]",176,l,0.023554349318146706,colour,0.06
174,20,1,1,12,37,587,1081.7801170041785,1082.335352318827,"[86, 0, 168]",168,l,0.0330267371609807,colour,0.06
174,20,1,1,12,38,588,1082.8426932129078,1083.423394211568,"[82, 0, 172]",172,l,0.058523534797132015,colour,0.06
174,20,1,1,12,39,589,1083.9365494530648,1084.4633215232752,"[87, 0, 167]",167,l,0.0046111480332911015,colour,0.06
174,20,1,1,12,40,590,1084.9834872223437,1085.6313818795606,"[69, 0, 185]",185,a,0.125766817945987,colour,0.06
174,20,1,1,12,41,591,1086.1397822191939,1086.7193485475145,"[64, 0, 190]",190,l,0.05728882784023881,colour,0.06
174,20,1,1,12,42,592,1087.2337361327372,1087.7993209310807,"[75, 0, 179]",179,a,0.04345380840823054,colour,0.06
174,20,1,1,12,43,593,1088.311939360574,1089.671345425304,"[62, 0, 192]",192,a,0.837149437982589,colour,0.06
174,20,1,1,12,44,594,1090.1870082835667,1090.7513445899822,"[60, 0, 194]",194,a,0.042171839624643326,colour,0.06
174,20,1,1,12,45,595,1091.2651898497716,1091.8553084917367,"[94, 0, 160]",160,l,0.06786043988540769,colour,0.06
174,20,1,1,12,46,596,1092.3746908311732,1092.9433188769035,"[65, 0, 189]",189,a,0.04643167741596699,colour,0.06
174,20,1,1,12,47,597,1093.4529310804792,1095.7193316123448,"[79, 0, 175]",175,l,1.7442372464574873,colour,0.06
174,20,1,1,12,48,598,1096.2343757385388,1096.7753077512607,"[63, 0, 191]",191,a,0.01872185943648219,colour,0.06
174,20,1,1,12,49,599,1097.2816384308971,1097.8473181459121,"[88, 0, 166]",166,l,0.04359204834327102,colour,0.06
174,20,1,1,12,50,600,1098.359667578712,1099.5913379890844,"[83, 0, 171]",171,l,0.7096260664984584,colour,0.06
174,20,1,1,13,1,601,1104.2278890963644,1105.055322355125,"[90, 0, 164]",164,l,0.30440745083615184,colour,0.06
174,20,1,1,13,2,602,1105.5725259389728,1106.1113363038749,"[87, 0, 167]",167,l,0.01653089514002204,colour,0.06
174,20,1,1,13,3,603,1106.6195109696127,1107.9193096356466,"[79, 0, 175]",175,l,0.7775763035751879,colour,0.06
174,20,1,1,13,4,604,1108.4321537385695,1109.0153308464214,"[53, 0, 201]",201,a,0.060948444064706564,colour,0.06
174,20,1,1,13,5,605,1109.5259973756038,1110.1113307899795,"[78, 0, 176]",176,l,0.06318903341889381,colour,0.06
174,20,1,1,13,6,606,1110.6199449878186,1111.279329312034,"[59, 0, 195]",195,a,0.13728799251839519,colour,0.06
174,20,1,1,13,7,607,1111.791762240231,1112.4313313886523,"[58, 0, 196]",196,a,0.11724556796252728,colour,0.06
174,20,1,1,13,8,608,1112.9481738153845,1113.503319333773,"[49, 0, 205]",205,a,0.03302161768078804,colour,0.06
174,20,1,1,13,9,609,1114.0106874029152,1114.5993200647645,"[56, 0, 198]",198,a,0.06660407176241279,colour,0.06
174,20,1,1,13,10,610,1115.1045408863574,1115.6713210064918,"[73, 0, 181]",181,l,0.0445116781629622,colour,0.06
174,20,1,1,13,11,611,1116.1827760152519,1116.7513378947042,"[82, 0, 172]",172,l,0.04632573248818517,colour,0.06
174,20,1,1,13,12,612,1117.2609784551896,1117.7912951386534,"[99, 0, 155]",155,l,0.008325114846229553,colour,0.06
174,20,1,1,13,13,613,1118.3079193751328,1118.8952984251082,"[63, 0, 191]",191,a,0.06520001078024507,colour,0.06
174,20,1,1,13,14,614,1119.4017385938205,1119.9273267630488,"[86, 0, 168]",168,l,0.003314607311040163,colour,0.06
174,20,1,1,13,15,615,1120.4486251627095,1121.0553180230781,"[67, 0, 187]",187,a,0.0843102028593421,colour,0.06
174,20,1,1,13,16,616,1121.5737567073666,1122.6233068564907,"[80, 0, 174]",174,l,0.5272974604740739,colour,0.06
174,20,1,1,13,17,617,1123.1362691135146,1123.8152957153507,"[89, 0, 165]",165,l,0.156660879496485,colour,0.06
174,20,1,1,13,18,618,1124.3240060117096,1124.9353127768263,"[81, 0, 173]",173,l,0.08907613204792142,colour,0.06
174,20,1,1,13,19,619,1125.4490591809154,1125.9993355819024,"[92, 0, 162]",162,l,0.027992598712444305,colour,0.06
174,20,1,1,13,20,620,1126.5116676855832,1127.183311645873,"[97, 0, 157]",157,l,0.1494444408454001,colour,0.06
174,20,1,1,13,21,621,1127.6992088425905,1128.327318649739,"[72, 0, 182]",182,a,0.10575786978006363,colour,0.06
174,20,1,1,13,22,622,1128.840001670178,1129.4393185838126,"[50, 0, 204]",204,l,0.07713826838880777,colour,0.06
174,20,1,1,13,23,623,1129.9493841039948,1130.887281297706,"[68, 0, 186]",186,a,0.41555431485176086,colour,0.06
174,20,1,1,13,24,624,1131.4027283284813,1132.031318233814,"[51, 0, 203]",203,a,0.10639550630003214,colour,0.06
174,20,1,1,13,25,625,1132.5433714943938,1133.1592905893922,"[65, 0, 189]",189,a,0.0938050402328372,colour,0.06
174,20,1,1,13,26,626,1133.6684270268306,1134.2712834337726,"[66, 0, 188]",188,a,0.08138077659532428,colour,0.06
174,20,1,1,13,27,627,1134.7779303714633,1135.3993247118779,"[54, 0, 200]",200,a,0.09937362745404243,colour,0.06
174,20,1,1,13,28,628,1135.9186802697368,1136.9513245830312,"[93, 0, 161]",161,l,0.5103636616840959,colour,0.06
174,20,1,1,13,29,629,1137.4542981195264,1138.7512910272926,"[70, 0, 184]",184,a,0.7751777824014425,colour,0.06
174,20,1,1,13,30,630,1139.2669562487863,1139.927285015583,"[69, 0, 185]",185,a,0.13816114934161305,colour,0.06
174,20,1,1,13,31,631,1140.4410420535132,1141.0152879171073,"[57, 0, 197]",197,a,0.05201877513900399,colour,0.06
174,20,1,1,13,32,632,1141.5348915979266,1142.0953130763955,"[55, 0, 199]",199,a,0.03818808821961284,colour,0.06
174,20,1,1,13,33,633,1142.613139724359,1143.1753169675358,"[84, 0, 170]",170,l,0.03990880120545626,colour,0.06
174,20,1,1,13,34,634,1143.6913338932209,1144.2553058923222,"[85, 0, 169]",169,l,0.041678350418806076,colour,0.06
174,20,1,1,13,35,635,1144.7694744993933,1145.311309994664,"[71, 0, 183]",183,a,0.01954814838245511,colour,0.06
174,20,1,1,13,36,636,1145.816528453026,1146.3592709754594,"[96, 0, 158]",158,l,0.020588689018040895,colour,0.06
174,20,1,1,13,37,637,1146.8790806378238,1147.423303232994,"[34, 0, 220]",220,a,0.021975026931613684,colour,0.06
174,20,1,1,13,38,638,1147.9416812653653,1148.5352763854899,"[83, 0, 171]",171,a,0.07139008725062013,colour,0.06
174,20,1,1,13,39,639,1149.051111748442,1149.7032729387283,"[61, 0, 193]",193,a,0.13341254880651832,colour,0.06
174,20,1,1,13,40,640,1150.2195202643052,1150.7672902299091,"[91, 0, 163]",163,l,0.025554298888891935,colour,0.06
174,20,1,1,13,41,641,1151.2821141965687,1152.0872994931415,"[94, 0, 160]",160,l,0.282941666431725,colour,0.06
174,20,1,1,13,42,642,1152.5947301844135,1153.1672726646066,"[88, 0, 166]",166,l,0.05054815486073494,colour,0.06
174,20,1,1,13,43,643,1153.6728908764198,1154.2633143556304,"[64, 0, 190]",190,a,0.06818063696846366,colour,0.06
174,20,1,1,13,44,644,1154.7822937904857,1156.335296786856,"[77, 0, 177]",177,l,1.0306057664565742,colour,0.06
174,20,1,1,13,45,645,1156.845043685753,1157.4392847130075,"[52, 0, 202]",202,a,0.07217147760093212,colour,0.06
174,20,1,1,13,46,646,1157.9544824394397,1158.5032874322496,"[31, 0, 223]",223,a,0.026746864430606365,colour,0.06
174,20,1,1,13,47,647,1159.0074503836222,1159.615296818316,"[95, 0, 159]",159,l,0.0856354939751327,colour,0.06
174,20,1,1,13,48,648,1160.132446445059,1161.0552455554716,"[60, 0, 194]",194,a,0.4004652895964682,colour,0.06
174,20,1,1,13,49,649,1161.5701821618713,1163.9992804438807,"[75, 0, 179]",179,l,1.9069042769260705,colour,0.06
174,20,1,1,13,50,650,1164.5080628138967,1165.063289070502,"[62, 0, 192]",192,a,0.03299444215372205,colour,0.06
174,20,1,1,14,1,651,1182.0867295982316,1182.647273562383,"[80, 0, 174]",174,l,0.037440568674355745,colour,0.06
174,20,1,1,14,2,652,1183.1658020438626,1184.2313592727296,"[73, 0, 181]",181,l,0.5433856728486717,colour,0.06
174,20,1,1,14,3,653,1184.743987548165,1185.4632384218276,"[67, 0, 187]",187,a,0.19718841277062893,colour,0.06
174,20,1,1,14,4,654,1185.9785003452562,1186.5992306615226,"[98, 0, 156]",156,l,0.09902625530958176,colour,0.06
174,20,1,1,14,5,655,1187.1192411850207,1187.7192871076986,"[93, 0, 161]",161,l,0.07785585569217801,colour,0.06
174,20,1,1,14,6,656,1188.2287319265306,1188.7992827282287,"[52, 0, 202]",202,a,0.04842256847769022,colour,0.06
174,20,1,1,14,7,657,1189.306952089537,1189.8392951106653,"[54, 0, 200]",200,a,0.010180129669606686,colour,0.06
174,20,1,1,14,8,658,1190.3538815882057,1190.9272999814712,"[85, 0, 169]",169,l,0.05127243744209409,colour,0.06
174,20,1,1,14,9,659,1191.4476362159476,1191.9912834023125,"[81, 0, 173]",173,l,0.02139331679791212,colour,0.06
174,20,1,1,14,10,660,1192.5102025787346,1193.6392745519988,"[15, 0, 239]",239,a,0.6069740662351251,colour,0.06
174,20,1,1,14,11,661,1194.150930815842,1194.7753333514556,"[82, 0, 172]",172,l,0.10328609310090542,colour,0.06
174,20,1,1,14,12,662,1195.2916413294151,1195.8232557354495,"[59, 0, 195]",195,a,0.018416629172861576,colour,0.06
174,20,1,1,14,13,663,1196.329576568678,1196.951277715154,"[84, 0, 170]",170,l,0.09946184884756804,colour,0.06
174,20,1,1,14,14,664,1197.4702823562548,1198.271329513751,"[62, 0, 192]",192,a,0.2788078598678112,colour,0.06
174,20,1,1,14,15,665,1198.7829066147096,1199.4152502655052,"[92, 0, 162]",162,l,0.11014570714905858,colour,0.06
174,20,1,1,14,16,666,1199.9236194915138,1201.28732477827,"[78, 0, 176]",176,l,0.8414864693768322,colour,0.06
174,20,1,1,14,17,667,1201.7987289805897,1202.407274492085,"[64, 0, 190]",190,a,0.08624004758894444,colour,0.06
174,20,1,1,14,18,668,1202.9238219284452,1203.6312901135534,"[69, 0, 185]",185,a,0.18525409372523427,colour,0.06
174,20,1,1,14,19,669,1204.142730943393,1204.799271700438,"[95, 0, 159]",159,l,0.1344393054023385,colour,0.06
174,20,1,1,14,20,670,1205.3146919496357,1205.9272499633953,"[90, 0, 164]",164,l,0.0904230852611363,colour,0.06
174,20,1,1,14,21,671,1206.4397451188415,1207.2152399467304,"[66, 0, 188]",188,a,0.2515694759786129,colour,0.06
174,20,1,1,14,22,672,1207.722740742378,1209.0792630673386,"[70, 0, 184]",184,a,0.8318147948011756,colour,0.06
174,20,1,1,14,23,673,1209.5846938085742,1210.3112587947398,"[51, 0, 203]",203,a,0.20450410060584545,colour,0.06
174,20,1,1,14,24,674,1210.8192700147629,1211.4472451265901,"[74, 0, 180]",180,l,0.10581497754901648,colour,0.06
174,20,1,1,14,25,675,1211.9506416539662,1212.9032509620301,"[71, 0, 183]",183,l,0.4303487427532673,colour,0.06
174,20,1,1,14,26,676,1213.4195266445167,1214.263232041616,"[83, 0, 171]",171,l,0.3214932745322585,colour,0.06
174,20,1,1,14,27,677,1214.7789535829797,1215.3512806296349,"[79, 0, 175]",175,l,0.05006333068013191,colour,0.06
174,20,1,1,14,28,678,1215.8572273091413,1216.8312901919708,"[72, 0, 182]",182,l,0.4519019606523216,colour,0.06
174,20,1,1,14,29,679,1217.3416818166152,1217.9432696457952,"[55, 0, 199]",199,a,0.0793067836202681,colour,0.06
174,20,1,1,14,30,680,1218.4511197828688,1219.0232491185889,"[56, 0, 198]",198,a,0.04985341057181358,colour,0.06
174,20,1,1,14,31,681,1219.5293115889654,1220.1112366607413,"[57, 0, 197]",197,a,0.059595977421849966,colour,0.06
174,20,1,1,14,32,682,1220.6232265122235,1221.1592508107424,"[63, 0, 191]",191,a,0.01385825639590621,colour,0.06
174,20,1,1,14,33,683,1221.6701820041053,1222.2792257308029,"[60, 0, 194]",194,a,0.08684105658903718,colour,0.06
174,20,1,1,14,34,684,1222.7952473824844,1223.8792259669863,"[58, 0, 196]",196,a,0.5623757415451109,colour,0.06
174,20,1,1,14,35,685,1224.3891154378653,1225.4792604679242,"[68, 0, 186]",186,l,0.5678891907446086,colour,0.06
174,20,1,1,14,36,686,1225.998643594794,1226.5912690660916,"[22, 0, 232]",232,a,0.07063981052488089,colour,0.06
174,20,1,1,14,37,687,1227.1080689579248,1227.7512150150724,"[75, 0, 179]",179,l,0.12094693165272474,colour,0.06
174,20,1,1,14,38,688,1228.2644742317498,1228.9352438538335,"[96, 0, 158]",158,l,0.14852756774052978,colour,0.06
174,20,1,1,14,39,689,1229.4520338992588,1230.1192561513744,"[50, 0, 204]",204,a,0.14500894816592336,colour,0.06
174,20,1,1,14,40,690,1230.63972235471,1235.447268363554,"[87, 0, 167]",167,l,4.285425258800387,colour,0.06
174,20,1,1,14,41,691,1235.952530539129,1236.663229836151,"[77, 0, 177]",177,l,0.18864983320236206,colour,0.06
174,20,1,1,14,42,692,1237.171433252748,1237.8632574840449,"[76, 0, 178]",178,l,0.16956563526764512,colour,0.06
174,20,1,1,14,43,693,1238.3745655883104,1239.2392294956371,"[94, 0, 160]",160,l,0.34238089295104146,colour,0.06
174,20,1,1,14,44,694,1239.7496939818375,1240.503244896885,"[65, 0, 189]",189,a,0.2312919250689447,colour,0.06
174,20,1,1,14,45,695,1241.015439548064,1241.7752459174953,"[89, 0, 165]",165,l,0.23754856130108237,colour,0.06
174,20,1,1,14,46,696,1242.281116978731,1242.9352162848227,"[97, 0, 157]",157,l,0.1317335837520659,colour,0.06
174,20,1,1,14,47,697,1243.453177234158,1244.0712140379474,"[61, 0, 193]",193,a,0.09579474944621325,colour,0.06
174,20,1,1,14,48,698,1244.5781795969233,1245.3032507258467,"[53, 0, 201]",201,a,0.20295904343947768,colour,0.06
174,20,1,1,14,49,699,1245.812759741675,1246.4072272302583,"[2, 0, 252]",252,a,0.07223528018221259,colour,0.06
174,20,1,1,14,50,700,1246.922116575297,1247.5192338596098,"[86, 0, 168]",168,l,0.07478346349671483,colour,0.06
174,20,1,1,15,1,701,1253.4219263480045,1254.4872539648786,"[74, 0, 180]",180,l,0.5423723072744906,colour,0.06
174,20,1,1,15,2,702,1255.0009889472276,1255.655236733146,"[73, 0, 181]",181,l,0.1320726852864027,colour,0.06
174,20,1,1,15,3,703,1256.1727865072899,1256.759218357969,"[83, 0, 171]",171,l,0.06405864516273141,colour,0.06
174,20,1,1,15,4,704,1257.2667683842592,1257.927216486074,"[56, 0, 198]",198,a,0.13833444099873304,colour,0.06
174,20,1,1,15,5,705,1258.440069254022,1259.0632437784225,"[62, 0, 192]",192,a,0.10252439510077238,colour,0.06
174,20,1,1,15,6,706,1259.5793579840101,1260.2072366038337,"[51, 0, 203]",203,a,0.10561293456703424,colour,0.06
174,20,1,1,15,7,707,1260.720090947114,1261.7272112877108,"[68, 0, 186]",186,l,0.4848231477662921,colour,0.06
174,20,1,1,15,8,708,1262.2358869253658,1263.0152115114033,"[12, 0, 242]",242,a,0.2571498788893223,colour,0.06
174,20,1,1,15,9,709,1263.5328073655255,1264.255197584629,"[58, 0, 196]",196,a,0.2000981462188065,colour,0.06
174,20,1,1,15,10,710,1264.7672764454037,1265.4392004301772,"[72, 0, 182]",182,l,0.14965948089957237,colour,0.06
174,20,1,1,15,11,711,1265.9549125190824,1266.727227828931,"[91, 0, 163]",163,l,0.25728614954277873,colour,0.06
174,20,1,1,15,12,712,1267.244618489407,1267.8952373792417,"[95, 0, 159]",159,l,0.12855367176234722,colour,0.06
174,20,1,1,15,13,713,1268.400950901676,1269.0152347479016,"[50, 0, 204]",204,a,0.09200988989323378,colour,0.06
174,20,1,1,15,14,714,1269.5263156029396,1270.4951978367753,"[97, 0, 157]",157,l,0.4468587636947632,colour,0.06
174,20,1,1,15,15,715,1271.0107224555686,1271.6151975691319,"[61, 0, 193]",193,a,0.08254695450887084,colour,0.06
174,20,1,1,15,16,716,1272.12019232288,1272.9672016934492,"[65, 0, 189]",189,a,0.3247972480021417,colour,0.06
174,20,1,1,15,17,717,1273.4796484061517,1274.2152198608965,"[64, 0, 190]",190,a,0.2133412156254053,colour,0.06
174,20,1,1,15,18,718,1274.7297299322672,1275.3912158184685,"[81, 0, 173]",173,l,0.13920681038871408,colour,0.06
174,20,1,1,15,19,719,1275.9017149629071,1276.479195089545,"[2, 0, 252]",252,a,0.06445091590285301,colour,0.06
174,20,1,1,15,20,720,1276.9864528821781,1277.6791931991465,"[69, 0, 185]",185,l,0.17043288424611092,colour,0.06
174,20,1,1,15,21,721,1278.1896143620834,1278.807228569407,"[60, 0, 194]",194,a,0.09535521734505892,colour,0.06
174,20,1,1,15,22,722,1279.314779383596,1279.9831989272498,"[59, 0, 195]",195,a,0.14626649860292673,colour,0.06
174,20,1,1,15,23,723,1280.502414275892,1281.055202232208,"[66, 0, 188]",188,a,0.03057110821828246,colour,0.06
174,20,1,1,15,24,724,1281.5648892666213,1282.1832352397032,"[78, 0, 176]",176,l,0.09613227564841509,colour,0.06
174,20,1,1,15,25,725,1282.690078312531,1283.3512333682738,"[82, 0, 172]",172,l,0.1389433271251619,colour,0.06
174,20,1,1,15,26,726,1283.862029472366,1284.4472049544565,"[99, 0, 155]",155,l,0.06302479980513453,colour,0.06
174,20,1,1,15,27,727,1284.9558317554183,1285.511289593298,"[86, 0, 168]",168,l,0.03390855807811022,colour,0.06
174,20,1,1,15,28,728,1286.0183240757324,1286.647177463863,"[93, 0, 161]",161,l,0.10668734600767493,colour,0.06
174,20,1,1,15,29,729,1287.159102724865,1287.7432053703815,"[70, 0, 184]",184,a,0.06190273258835077,colour,0.06
174,20,1,1,15,30,730,1288.253179518506,1288.8392226430587,"[90, 0, 164]",164,l,0.06399917462840676,colour,0.06
174,20,1,1,15,31,731,1289.3346233102493,1289.927235390991,"[87, 0, 167]",167,l,0.0704393433406949,colour,0.06
174,20,1,1,15,32,732,1290.4440258303657,1291.0631906092167,"[52, 0, 202]",202,a,0.09715627506375313,colour,0.06
174,20,1,1,15,33,733,1291.5692066056654,1292.1192368529737,"[89, 0, 165]",165,l,0.027848057448863983,colour,0.06
174,20,1,1,15,34,734,1292.6317249191925,1293.263184780255,"[92, 0, 162]",162,l,0.10922528943046927,colour,0.06
174,20,1,1,15,35,735,1293.772399987094,1294.4072260488756,"[71, 0, 183]",183,a,0.11251193378120661,colour,0.06
174,20,1,1,15,36,736,1294.913138857577,1295.4712563371286,"[85, 0, 169]",169,l,0.0359100834466517,colour,0.06
174,20,1,1,15,37,737,1295.991328694392,1296.5991991539486,"[54, 0, 200]",200,l,0.08559610927477479,colour,0.06
174,20,1,1,15,38,738,1297.1165078943595,1297.6472148792818,"[77, 0, 177]",177,l,0.008447600994259119,colour,0.06
174,20,1,1,15,39,739,1298.1634551160969,1299.007208168041,"[63, 0, 191]",191,a,0.3215621975250542,colour,0.06
174,20,1,1,15,40,740,1299.5230159619823,1300.2312088236213,"[49, 0, 205]",205,a,0.18612646218389273,colour,0.06
174,20,1,1,15,41,741,1300.740926971659,1301.303197556641,"[84, 0, 170]",170,l,0.04005216108635068,colour,0.06
174,20,1,1,15,42,742,1301.819149103947,1302.4551744265482,"[79, 0, 175]",175,l,0.11388330487534404,colour,0.06
174,20,1,1,15,43,743,1302.9753791163675,1303.5991924586706,"[53, 0, 201]",201,a,0.10209785960614681,colour,0.06
174,20,1,1,15,44,744,1304.1160723008215,1304.7592278099619,"[55, 0, 199]",199,a,0.12086658691987395,colour,0.06
174,20,1,1,15,45,745,1305.2724507930689,1305.8392088580877,"[76, 0, 178]",178,l,0.044549881014972925,colour,0.06
174,20,1,1,15,46,746,1306.350202279631,1306.8871966204606,"[67, 0, 187]",187,a,0.014820028096437454,colour,0.06
174,20,1,1,15,47,747,1307.397173131816,1308.1431850478984,"[57, 0, 197]",197,a,0.2238695048727095,colour,0.06
174,20,1,1,15,48,748,1308.6628840393387,1309.247205269523,"[98, 0, 156]",156,l,0.06210438162088394,colour,0.06
174,20,1,1,15,49,749,1309.756759183947,1310.6951723154634,"[96, 0, 158]",158,l,0.41617659106850624,colour,0.06
174,20,1,1,15,50,750,1311.2099568978883,1311.831207878422,"[88, 0, 166]",166,l,0.09928146749734879,colour,0.06
174,20,1,1,16,1,751,1316.1470774272457,1316.8632054962218,"[85, 0, 169]",169,l,0.1930750859901309,colour,0.06
174,20,1,1,16,2,752,1317.3823117497377,1317.9751707715914,"[99, 0, 155]",155,l,0.07059688121080399,colour,0.06
174,20,1,1,16,3,753,1318.4918020972982,1319.1111677377485,"[64, 0, 190]",190,a,0.0976824532262981,colour,0.06
174,20,1,1,16,4,754,1319.6168414819986,1320.3511715345085,"[82, 0, 172]",172,l,0.21216361643746495,colour,0.06
174,20,1,1,16,5,755,1320.8669667248614,1321.5431777224876,"[56, 0, 198]",198,a,0.15481059160083532,colour,0.06
174,20,1,1,16,6,756,1322.0544972480275,1322.9592022891156,"[69, 0, 185]",185,l,0.3823452265933156,colour,0.06
174,20,1,1,16,7,757,1323.4765141801909,1324.1992186885327,"[71, 0, 183]",183,l,0.20065189385786653,colour,0.06
174,20,1,1,16,8,758,1324.7111002323218,1325.39917386882,"[54, 0, 200]",200,a,0.166198646184057,colour,0.06
174,20,1,1,16,9,759,1325.9141719155014,1326.5991794615984,"[62, 0, 192]",192,a,0.16273319628089666,colour,0.06
174,20,1,1,16,10,760,1327.1174397338182,1327.9191682450473,"[72, 0, 182]",182,l,0.27961366903036833,colour,0.06
174,20,1,1,16,11,761,1328.430111253634,1329.1831757687032,"[94, 0, 160]",160,l,0.23087720479816198,colour,0.06
174,20,1,1,16,12,762,1329.695827675052,1330.27117473213,"[81, 0, 173]",173,l,0.053212916012853384,colour,0.06
174,20,1,1,16,13,763,1330.7897355090827,1331.4071614579298,"[90, 0, 164]",164,l,0.0952807804569602,colour,0.06
174,20,1,1,16,14,764,1331.914783952292,1332.51919723209,"[78, 0, 176]",176,l,0.08228071453049779,colour,0.06
174,20,1,1,16,15,765,1333.0247784224339,1333.6232044566423,"[67, 0, 187]",187,a,0.0761938258074224,colour,0.06
174,20,1,1,16,16,766,1334.134263256099,1334.8312271768227,"[68, 0, 186]",186,a,0.17478960752487183,colour,0.06
174,20,1,1,16,17,767,1335.3374960222282,1336.0151725206524,"[43, 0, 211]",211,a,0.15545059135183692,colour,0.06
174,20,1,1,16,18,768,1336.5250990130007,1337.1191651728004,"[98, 0, 156]",156,l,0.07189224055036902,colour,0.06
174,20,1,1,16,19,769,1337.6345113790594,1339.1032100808807,"[70, 0, 184]",184,l,0.946398357860744,colour,0.06
174,20,1,1,16,20,770,1339.6190824653022,1340.2391908988357,"[65, 0, 189]",189,a,0.09785535139963031,colour,0.06
174,20,1,1,16,21,771,1340.7441962868907,1341.34319142811,"[61, 0, 193]",193,a,0.07697167154401541,colour,0.06
174,20,1,1,16,22,772,1341.8536224374548,1342.3831955399364,"[89, 0, 165]",165,l,0.019746252801269293,colour,0.06
174,20,1,1,16,23,773,1342.9038184941746,1343.7511638146825,"[53, 0, 201]",201,a,0.3250520662404597,colour,0.06
174,20,1,1,16,24,774,1344.2633399553597,1344.8631940749474,"[88, 0, 166]",166,l,0.09003317775204778,colour,0.06
174,20,1,1,16,25,775,1345.37602163665,1345.951156804338,"[52, 0, 202]",202,a,0.052949827164411545,colour,0.06
174,20,1,1,16,26,776,1346.4698806335218,1347.2871247045696,"[92, 0, 162]",162,l,0.2950835428200662,colour,0.06
174,20,1,1,16,27,777,1347.7981224576943,1348.43120260071,"[55, 0, 199]",199,a,0.11072978051379323,colour,0.06
174,20,1,1,16,28,778,1348.9395308666863,1349.5271568577737,"[76, 0, 178]",178,l,0.06678445264697075,colour,0.06
174,20,1,1,16,29,779,1350.0325706638396,1350.6631561866961,"[66, 0, 188]",188,a,0.10818120371550322,colour,0.06
174,20,1,1,16,30,780,1351.1733268639073,1351.8872690885328,"[59, 0, 195]",195,a,0.19162967149168253,colour,0.06
174,20,1,1,16,31,781,1352.3921787715517,1353.015153221786,"[50, 0, 204]",204,a,0.10067765088751912,colour,0.06
174,20,1,1,16,32,782,1353.5329629345797,1354.151152944658,"[45, 0, 209]",209,a,0.09594007860869169,colour,0.06
174,20,1,1,16,33,783,1354.6587021835148,1355.3271713517606,"[97, 0, 157]",157,l,0.146967938169837,colour,0.06
174,20,1,1,16,34,784,1355.8455182700418,1356.4952017753385,"[57, 0, 197]",197,a,0.12739655235782266,colour,0.06
174,20,1,1,16,35,785,1357.0019396911375,1357.6711831605062,"[75, 0, 179]",179,l,0.1469951132312417,colour,0.06
174,20,1,1,16,36,786,1358.1896151495166,1358.7912010098808,"[60, 0, 194]",194,a,0.07934813806787133,colour,0.06
174,20,1,1,16,37,787,1359.298952291254,1359.9591790521517,"[51, 0, 203]",203,a,0.1378641896881163,colour,0.06
174,20,1,1,16,38,788,1360.4709723740816,1361.047169351019,"[93, 0, 161]",161,l,0.05391947599127889,colour,0.06
174,20,1,1,16,39,789,1361.5647975001484,1362.1351986401714,"[14, 0, 240]",240,a,0.04814687604084611,colour,0.06
174,20,1,1,16,40,790,1362.6430523218587,1363.2551704095677,"[74, 0, 180]",180,l,0.09001427330076694,colour,0.06
174,20,1,1,16,41,791,1363.7681212448515,1364.447145877406,"[91, 0, 163]",163,l,0.1567353163845837,colour,0.06
174,20,1,1,16,42,792,1364.9557092692703,1365.6231642845087,"[84, 0, 170]",170,l,0.14520232658833265,colour,0.06
174,20,1,1,16,43,793,1366.1433197432198,1366.7671535653062,"[96, 0, 158]",158,l,0.1017430042847991,colour,0.06
174,20,1,1,16,44,794,1367.283962121699,1368.0231640478596,"[80, 0, 174]",174,l,0.21700752712786198,colour,0.06
174,20,1,1,16,45,795,1368.5341491983272,1369.16717735352,"[87, 0, 167]",167,l,0.11080461135134101,colour,0.06
174,20,1,1,16,46,796,1369.674768733792,1370.2631505155005,"[77, 0, 177]",177,l,0.06605701940134168,colour,0.06
174,20,1,1,16,47,797,1370.7685934659094,1371.4071713043377,"[83, 0, 171]",171,l,0.11627710051834583,colour,0.06
174,20,1,1,16,48,798,1371.924982198514,1372.5111576551571,"[58, 0, 196]",196,a,0.06395191280171275,colour,0.06
174,20,1,1,16,49,799,1373.0188419828191,1373.5991684338078,"[86, 0, 168]",168,l,0.05813795933499932,colour,0.06
174,20,1,1,16,50,800,1374.1127939275466,1374.7511492427438,"[63, 0, 191]",191,a,0.11626567924395204,colour,0.06
