id,age,condition,counterbalance,block,trialinblock,trial,tstart,tend,trialstim,trialintensity,response,RT,trialtype,colourfreq
119,24,1,1,Practice,1,NA,5.399982910603285e-06,1.397511499992106,"[94, 0, 160]",160,l,0.8767528999887872,colour,0.5
119,24,1,1,Practice,2,NA,1.9096316999930423,2.485494900000049,"[8, 0, 246]",246,a,0.06260289999772795,colour,0.5
119,24,1,1,Practice,3,NA,3.0001426999806426,4.149554499977967,"[64, 0, 190]",190,l,0.6404948999988846,colour,0.5
119,24,1,1,Practice,4,NA,4.664808500005165,5.517481399991084,"[71, 0, 183]",183,a,0.3220826000033412,colour,0.5
119,24,1,1,Practice,5,NA,6.029483399994206,7.109538199991221,"[74, 0, 180]",180,l,0.5646530000085477,colour,0.5
119,24,1,1,Practice,6,NA,7.615704800002277,8.157603600004222,"[38, 0, 216]",216,a,0.018948000011732802,colour,0.5
119,24,1,1,Practice,7,NA,8.666360699979123,11.485472100001061,"[92, 0, 162]",162,l,2.2968621000181884,colour,0.5
119,24,1,1,Practice,8,NA,11.998426999984076,12.525522899988573,"[39, 0, 215]",215,a,0.004046799993375316,colour,0.5
119,24,1,1,Practice,9,NA,13.050788399996236,13.717487899994012,"[20, 0, 234]",234,a,0.14540090001537465,colour,0.5
119,24,1,1,Practice,10,NA,14.219019699987257,14.805475200002547,"[1, 0, 253]",253,a,0.07805670000379905,colour,0.5
119,24,1,1,1,1,1,4.516851699998369,5.127960900019389,"[6, 0, 248]",248,a,0.0913738000090234,colour,0.5
119,24,1,1,1,2,2,5.649907400016673,6.2879723999940325,"[77, 0, 177]",177,l,0.11555989997577854,colour,0.5
119,24,1,1,1,3,3,6.8051969000080135,7.760003100003814,"[69, 0, 185]",185,l,0.43235079999431036,colour,0.5
119,24,1,1,1,4,4,8.281228100007866,9.087934800016228,"[5, 0, 249]",249,a,0.2877355000237003,colour,0.5
119,24,1,1,1,5,5,9.601298800000222,10.455947900016326,"[21, 0, 233]",233,a,0.33111830000416376,colour,0.5
119,24,1,1,1,6,6,10.960908800014295,11.871941399993375,"[85, 0, 169]",169,l,0.3899055999936536,colour,0.5
119,24,1,1,1,7,7,12.389779000019189,13.327959999995073,"[91, 0, 163]",163,l,0.4137542999815196,colour,0.5
119,24,1,1,1,8,8,13.840139900014037,14.775976500008255,"[76, 0, 178]",178,l,0.41280819999519736,colour,0.5
119,24,1,1,1,9,9,15.287916600005701,16.519948300003307,"[52, 0, 202]",202,a,0.7098358999937773,colour,0.5
119,24,1,1,1,10,10,17.031769799999893,18.007980199996382,"[58, 0, 196]",196,l,0.4538794999825768,colour,0.5
119,24,1,1,1,11,11,18.516089100012323,19.175912100006826,"[70, 0, 184]",184,l,0.14206169999670237,colour,0.5
119,24,1,1,1,12,12,19.688323700014735,20.27993429999333,"[31, 0, 223]",223,a,0.07676799999899231,colour,0.5
119,24,1,1,1,13,13,20.797452900005737,21.687925900012488,"[48, 0, 206]",206,a,0.37301080001634546,colour,0.5
119,24,1,1,1,14,14,22.207582300005015,23.13594920001924,"[66, 0, 188]",188,l,0.4077666000230238,colour,0.5
119,24,1,1,1,15,15,23.649999799992656,24.5439619999961,"[23, 0, 231]",231,a,0.37478650000412017,colour,0.5
119,24,1,1,1,16,16,25.062065000005532,25.927951299992856,"[74, 0, 180]",180,l,0.345059899991611,colour,0.5
119,24,1,1,1,17,17,26.449584300018614,27.29594840001664,"[68, 0, 186]",186,l,0.3254400000150781,colour,0.5
119,24,1,1,1,18,18,27.805550899996888,28.687938599992776,"[36, 0, 218]",218,a,0.3598770999815315,colour,0.5
119,24,1,1,1,19,19,29.197521599999163,30.2079517999955,"[20, 0, 234]",234,a,0.477271199983079,colour,0.5
119,24,1,1,1,20,20,30.717470700008562,31.831923399993684,"[50, 0, 204]",204,l,0.5974241999792866,colour,0.5
119,24,1,1,1,21,21,32.35269440000411,33.255931699997745,"[84, 0, 170]",170,l,0.3836845000041649,colour,0.5
119,24,1,1,1,22,22,33.77767360000871,34.61591359999147,"[80, 0, 174]",174,l,0.3182123999868054,colour,0.5
119,24,1,1,1,23,23,35.12856230000034,35.991909100004705,"[75, 0, 179]",179,l,0.3449568999931216,colour,0.5
119,24,1,1,1,24,24,36.510476199997356,37.375950500019826,"[94, 0, 160]",160,l,0.34308630001032725,colour,0.5
119,24,1,1,1,25,25,37.892846700007794,39.07990730000893,"[37, 0, 217]",217,a,0.6693210999947041,colour,0.5
119,24,1,1,1,26,26,39.59477860000334,40.34397889999673,"[47, 0, 207]",207,a,0.2343731999862939,colour,0.5
119,24,1,1,1,27,27,40.85115649999352,41.49592539999867,"[2, 0, 252]",252,a,0.12082229999941774,colour,0.5
119,24,1,1,1,28,28,42.00823659999878,42.951963900006376,"[28, 0, 226]",226,a,0.4213973000005353,colour,0.5
119,24,1,1,1,29,29,43.47293320001336,44.239973000017926,"[99, 0, 155]",155,l,0.2485090000263881,colour,0.5
119,24,1,1,1,30,30,44.75881210001535,45.687974000000395,"[15, 0, 239]",239,a,0.40960320000885986,colour,0.5
119,24,1,1,1,31,31,46.2041242000123,47.03191180000431,"[42, 0, 212]",212,a,0.304007200000342,colour,0.5
119,24,1,1,1,32,32,47.55442269999185,48.43198270001449,"[32, 0, 222]",222,a,0.354686100006802,colour,0.5
119,24,1,1,1,33,33,48.954710799996974,49.83999800001038,"[18, 0, 236]",236,a,0.3505771000054665,colour,0.5
119,24,1,1,1,34,34,50.34942320000846,51.25599540001713,"[45, 0, 209]",209,a,0.3941089000145439,colour,0.5
119,24,1,1,1,35,35,51.76545679999981,52.81594630001928,"[67, 0, 187]",187,l,0.5313582000089809,colour,0.5
119,24,1,1,1,36,36,53.318080900004134,54.28789300000062,"[30, 0, 224]",224,a,0.45019989999127574,colour,0.5
119,24,1,1,1,37,37,54.795871700014686,55.61590350000188,"[34, 0, 220]",220,a,0.2935797999962233,colour,0.5
119,24,1,1,1,38,38,56.13443370000459,57.015970700012986,"[89, 0, 165]",165,l,0.35774880001554266,colour,0.5
119,24,1,1,1,39,39,57.53325730000506,58.335937800002284,"[97, 0, 157]",157,l,0.28348399998503737,colour,0.5
119,24,1,1,1,40,40,58.84258319999208,59.70390029999544,"[40, 0, 214]",214,a,0.34203319999505766,colour,0.5
119,24,1,1,1,41,41,60.212352800008375,61.12793230000534,"[44, 0, 210]",210,a,0.386784100002842,colour,0.5
119,24,1,1,1,42,42,61.636739000008674,62.551872500014724,"[61, 0, 193]",193,l,0.39596230001188815,colour,0.5
119,24,1,1,1,43,43,63.0667369000148,63.83993770001689,"[92, 0, 162]",162,l,0.2539429000171367,colour,0.5
119,24,1,1,1,44,44,64.35113060000003,65.24789230001625,"[7, 0, 247]",247,a,0.3775530999992043,colour,0.5
119,24,1,1,1,45,45,65.75713470001938,66.80789900000673,"[63, 0, 191]",191,l,0.5329906000115443,colour,0.5
119,24,1,1,1,46,46,67.316084399994,68.21592780001811,"[17, 0, 237]",237,a,0.37307710002642125,colour,0.5
119,24,1,1,1,47,47,68.73272990001715,69.87189390001004,"[43, 0, 211]",211,a,0.6203956000099424,colour,0.5
119,24,1,1,1,48,48,70.37894880000385,71.53595469999709,"[11, 0, 243]",243,a,0.6385030999954324,colour,0.5
119,24,1,1,1,49,49,72.05164300001343,72.74388950000866,"[88, 0, 166]",166,l,0.15999539999756962,colour,0.5
119,24,1,1,1,50,50,73.25664140001754,74.03191590000642,"[71, 0, 183]",183,l,0.25797450001118705,colour,0.5
119,24,1,1,2,1,51,78.97567990000243,79.7120494999981,"[99, 0, 155]",155,l,0.2159648999804631,colour,0.5
119,24,1,1,2,2,52,80.23344880001969,80.94387280000956,"[68, 0, 186]",186,l,0.20023360001505353,colour,0.5
119,24,1,1,2,3,53,81.4518861999968,83.34388289999333,"[94, 0, 160]",160,l,1.3757512999873143,colour,0.5
119,24,1,1,2,4,54,83.85133790000691,84.62391600001138,"[83, 0, 171]",171,l,0.24239580001449212,colour,0.5
119,24,1,1,2,5,55,85.13561729999492,85.90390010000556,"[86, 0, 168]",168,l,0.24907029999303631,colour,0.5
119,24,1,1,2,6,56,86.4200044000172,87.23989060000167,"[10, 0, 244]",244,a,0.30171919998247176,colour,0.5
119,24,1,1,2,7,57,87.757393900014,88.59188100000028,"[11, 0, 243]",243,a,0.315980799990939,colour,0.5
119,24,1,1,2,8,58,89.10839670000132,89.91189839999424,"[64, 0, 190]",190,l,0.2868421000021044,colour,0.5
119,24,1,1,2,9,59,90.41884230001597,91.14385610001045,"[91, 0, 163]",163,l,0.21587079999153502,colour,0.5
119,24,1,1,2,10,60,91.65999970000121,92.47190070000943,"[63, 0, 191]",191,l,0.29548530001193285,colour,0.5
119,24,1,1,2,11,61,92.9888370000117,93.79190660000313,"[36, 0, 218]",218,a,0.2773311999917496,colour,0.5
119,24,1,1,2,12,62,94.31518330000108,95.15190880000591,"[21, 0, 233]",233,a,0.31644860000233166,colour,0.5
119,24,1,1,2,13,63,95.66909710000618,96.36790380001185,"[46, 0, 208]",208,a,0.1793486000096891,colour,0.5
119,24,1,1,2,14,64,96.89115609999862,97.64793150001788,"[26, 0, 228]",228,a,0.22817139999824576,colour,0.5
119,24,1,1,2,15,65,98.16945250000572,98.90386310001486,"[34, 0, 220]",220,a,0.21639040001900867,colour,0.5
119,24,1,1,2,16,66,99.42316880001454,100.19989620000706,"[66, 0, 188]",188,l,0.2570422000135295,colour,0.5
119,24,1,1,2,17,67,100.71794360000058,101.4959266000078,"[85, 0, 169]",169,l,0.25450670000282116,colour,0.5
119,24,1,1,2,18,68,102.00952300001518,102.75191980000818,"[3, 0, 251]",251,a,0.22173029999248683,colour,0.5
119,24,1,1,2,19,69,103.25734149999334,103.84784490001039,"[13, 0, 241]",241,a,0.07172269999864511,colour,0.5
119,24,1,1,2,20,70,104.34815140001592,104.94386930001201,"[12, 0, 242]",242,a,0.08474170000408776,colour,0.5
119,24,1,1,2,21,71,105.45590990001801,106.12786030001007,"[52, 0, 202]",202,l,0.15227150000282563,colour,0.5
119,24,1,1,2,22,72,106.64115490001859,108.04792070001713,"[17, 0, 237]",237,a,0.889098500018008,colour,0.5
119,24,1,1,2,23,73,108.56795510000666,110.06385569999111,"[96, 0, 158]",158,l,0.9776103999756742,colour,0.5
119,24,1,1,2,24,74,110.57642230001511,111.7518525000196,"[1, 0, 253]",253,a,0.6594379000016488,colour,0.5
119,24,1,1,2,25,75,112.26537470001495,113.09587360001751,"[59, 0, 195]",195,l,0.3137937000137754,colour,0.5
119,24,1,1,2,26,76,113.61789389999467,114.47988500000793,"[55, 0, 199]",199,l,0.3370301999966614,colour,0.5
119,24,1,1,2,27,77,114.9852174000116,116.04787100001704,"[9, 0, 245]",245,a,0.5389515999995638,colour,0.5
119,24,1,1,2,28,78,116.56505360000301,117.53592980001122,"[33, 0, 221]",221,a,0.44348129999707453,colour,0.5
119,24,1,1,2,29,79,118.05124319999595,118.67991500001517,"[54, 0, 200]",200,l,0.09714590001385659,colour,0.5
119,24,1,1,2,30,80,119.19041660000221,119.98389400000451,"[80, 0, 174]",174,l,0.2748250000004191,colour,0.5
119,24,1,1,2,31,81,120.48929729999509,121.15191459999187,"[7, 0, 247]",247,a,0.14361979998648167,colour,0.5
119,24,1,1,2,32,82,121.66440760000842,122.43189300000085,"[89, 0, 165]",165,l,0.24493240000447258,colour,0.5
119,24,1,1,2,33,83,122.9415205999976,123.70386639999924,"[35, 0, 219]",219,a,0.2397155000071507,colour,0.5
119,24,1,1,2,34,84,124.21720370001276,125.00787629999104,"[29, 0, 225]",225,a,0.268098899978213,colour,0.5
119,24,1,1,2,35,85,125.52784950000932,126.2239504000172,"[87, 0, 167]",167,l,0.1717738000152167,colour,0.5
119,24,1,1,2,36,86,126.7424205999996,127.54388240000117,"[37, 0, 217]",217,a,0.27889119999599643,colour,0.5
119,24,1,1,2,37,87,128.06329980000737,128.83185630000662,"[5, 0, 249]",249,a,0.24614659999497235,colour,0.5
119,24,1,1,2,38,88,129.35395409999182,130.127910900017,"[61, 0, 193]",193,l,0.25450580002507195,colour,0.5
119,24,1,1,2,39,89,130.63655480000307,131.3679826000007,"[27, 0, 227]",227,a,0.21243389998562634,colour,0.5
119,24,1,1,2,40,90,131.88150380001753,132.63186670001596,"[4, 0, 250]",250,a,0.23050220002187416,colour,0.5
119,24,1,1,2,41,91,133.142530800018,133.75184330000775,"[65, 0, 189]",189,l,0.0920990000013262,colour,0.5
119,24,1,1,2,42,92,134.2621860000072,134.95986840000842,"[6, 0, 248]",248,a,0.17669029999524355,colour,0.5
119,24,1,1,2,43,93,135.4763185000047,136.05588120000903,"[2, 0, 252]",252,a,0.05674150001141243,colour,0.5
119,24,1,1,2,44,94,136.56763120001415,137.34381839999696,"[73, 0, 181]",181,l,0.2545879999815952,colour,0.5
119,24,1,1,2,45,95,137.86214400001336,138.559866399999,"[42, 0, 212]",212,a,0.16932119999546558,colour,0.5
119,24,1,1,2,46,96,139.0740441000089,139.79987640000763,"[56, 0, 198]",198,l,0.2074723000114318,colour,0.5
119,24,1,1,2,47,97,140.32285180001054,141.05583870000555,"[78, 0, 176]",176,l,0.21609510001144372,colour,0.5
119,24,1,1,2,48,98,141.56806499999948,142.3358687,"[0, 0, 254]",254,a,0.24395989999175072,colour,0.5
119,24,1,1,2,49,99,142.85659300000407,143.57590319999144,"[75, 0, 179]",179,l,0.19001839999691583,colour,0.5
119,24,1,1,2,50,100,144.09048840001924,144.7038665,"[81, 0, 173]",173,l,0.09602659998927265,colour,0.5
119,24,1,1,3,1,101,150.03378170001088,150.87182240001857,"[26, 0, 228]",228,a,0.30010350001975894,colour,0.5
119,24,1,1,3,2,102,151.3827877000149,152.1758961000014,"[51, 0, 203]",203,l,0.27900419998331927,colour,0.5
119,24,1,1,3,3,103,152.68876479999744,153.31979310000315,"[36, 0, 218]",218,a,0.113396400003694,colour,0.5
119,24,1,1,3,4,104,153.83067250001477,154.35195509999176,"[4, 0, 250]",250,a,0.0009382999851368368,colour,0.5
119,24,1,1,3,5,105,154.8759515999991,155.93586570001207,"[12, 0, 242]",242,a,0.5411478000169154,colour,0.5
119,24,1,1,3,6,106,156.44479400001,157.31187410000712,"[18, 0, 236]",236,a,0.3504955999960657,colour,0.5
119,24,1,1,3,7,107,157.8241942000168,158.61585570001625,"[63, 0, 191]",191,l,0.26987370001734234,colour,0.5
119,24,1,1,3,8,108,159.13007119999384,159.70382480000262,"[89, 0, 165]",165,l,0.05545029998756945,colour,0.5
119,24,1,1,3,9,109,160.2142743000004,160.76783080000314,"[46, 0, 208]",208,a,0.041667699988465756,colour,0.5
119,24,1,1,3,10,110,161.27310880000005,161.9438092999917,"[57, 0, 197]",197,a,0.14994129998376593,colour,0.5
119,24,1,1,3,11,111,162.45198380001239,163.03184189999592,"[64, 0, 190]",190,l,0.055771099985577166,colour,0.5
119,24,1,1,3,12,112,163.55295760001172,164.1438124999986,"[35, 0, 219]",219,a,0.06930879998253658,colour,0.5
119,24,1,1,3,13,113,164.66066560000763,165.2399226000125,"[78, 0, 176]",176,l,0.05393230001209304,colour,0.5
119,24,1,1,3,14,114,165.75388679999742,166.27982820000034,"[56, 0, 198]",198,a,0.007524799992097542,colour,0.5
119,24,1,1,3,15,115,166.80935270001646,168.39185179999913,"[28, 0, 226]",226,a,1.065715699980501,colour,0.5
119,24,1,1,3,16,116,168.91097130000708,170.66380390000995,"[99, 0, 155]",155,l,1.229364800004987,colour,0.5
119,24,1,1,3,17,117,171.1689907000109,171.70382970001083,"[13, 0, 241]",241,a,0.0118648000061512,colour,0.5
119,24,1,1,3,18,118,172.2239336000057,173.02383150000242,"[11, 0, 243]",243,a,0.2730724999855738,colour,0.5
119,24,1,1,3,19,119,173.5417812000087,174.33584060001886,"[80, 0, 174]",174,l,0.27596520000952296,colour,0.5
119,24,1,1,3,20,120,174.8506502000091,176.16781780001475,"[32, 0, 222]",222,l,0.7922548000060488,colour,0.5
119,24,1,1,3,21,121,176.68383270001505,177.5198345000099,"[66, 0, 188]",188,l,0.3220246999990195,colour,0.5
119,24,1,1,3,22,122,178.0212536000181,178.91986789999646,"[48, 0, 206]",206,l,0.390875099983532,colour,0.5
119,24,1,1,3,23,123,179.4346671999956,180.35178300002008,"[52, 0, 202]",202,a,0.3859338000183925,colour,0.5
119,24,1,1,3,24,124,180.8685703999945,181.55980620000628,"[91, 0, 163]",163,l,0.16792909998912364,colour,0.5
119,24,1,1,3,25,125,182.0545447000186,182.7917747000174,"[5, 0, 249]",249,a,0.22507350001251325,colour,0.5
119,24,1,1,3,26,126,183.30290510001942,183.88780580001185,"[40, 0, 214]",214,a,0.04938740000943653,colour,0.5
119,24,1,1,3,27,127,184.40233790001366,185.04000830001314,"[97, 0, 157]",157,l,0.12293159999535419,colour,0.5
119,24,1,1,3,28,128,185.55249360000016,186.1278408000071,"[72, 0, 182]",182,l,0.06783829999039881,colour,0.5
119,24,1,1,3,29,129,186.6223006999935,187.25583209999604,"[74, 0, 180]",180,l,0.11268890000064857,colour,0.5
119,24,1,1,3,30,130,187.76839810001547,188.91986920000636,"[73, 0, 181]",181,l,0.6286389000015333,colour,0.5
119,24,1,1,3,31,131,189.43320830000448,190.30386129999533,"[90, 0, 164]",164,l,0.33979709999402985,colour,0.5
119,24,1,1,3,32,132,190.81856879999395,191.63985720000346,"[67, 0, 187]",187,l,0.3025191999913659,colour,0.5
119,24,1,1,3,33,133,192.1474673000048,193.01584320000256,"[14, 0, 240]",240,a,0.33574780001072213,colour,0.5
119,24,1,1,3,34,134,193.5390461999923,194.36783319999813,"[9, 0, 245]",245,a,0.30947189999278635,colour,0.5
119,24,1,1,3,35,135,194.88464370000293,195.63986190001015,"[10, 0, 244]",244,a,0.23627870000200346,colour,0.5
119,24,1,1,3,36,136,196.14925320001203,196.95988480001688,"[62, 0, 192]",192,l,0.2969013999972958,colour,0.5
119,24,1,1,3,37,137,197.46697500001756,198.2398785999976,"[21, 0, 233]",233,a,0.24900690000504255,colour,0.5
119,24,1,1,3,38,138,198.746836300008,199.5358315000194,"[83, 0, 171]",171,l,0.2608038000180386,colour,0.5
119,24,1,1,3,39,139,200.04113270001835,201.2877800000133,"[88, 0, 166]",166,l,0.7282458000117913,colour,0.5
119,24,1,1,3,40,140,201.80204500001855,202.6717464000103,"[95, 0, 159]",159,l,0.35000249999575317,colour,0.5
119,24,1,1,3,41,141,203.18936889999895,204.06379320000997,"[6, 0, 248]",248,a,0.3534547000017483,colour,0.5
119,24,1,1,3,42,142,204.57576530001825,205.39181500000996,"[37, 0, 217]",217,a,0.29280530000687577,colour,0.5
119,24,1,1,3,43,143,205.90024690001155,206.65586590001476,"[75, 0, 179]",179,l,0.23801840000669472,colour,0.5
119,24,1,1,3,44,144,207.17057290000957,207.96781770000234,"[31, 0, 223]",223,a,0.27785640000365674,colour,0.5
119,24,1,1,3,45,145,208.4882942000113,209.16778210000484,"[47, 0, 207]",207,a,0.15822660000412725,colour,0.5
119,24,1,1,3,46,146,209.6866277999943,210.44784870001604,"[1, 0, 253]",253,a,0.24051990002044477,colour,0.5
119,24,1,1,3,47,147,210.96824429999106,211.63989500000025,"[81, 0, 173]",173,l,0.15228569999453612,colour,0.5
119,24,1,1,3,48,148,212.1518878999923,212.71184470001026,"[16, 0, 238]",238,a,0.03426640000543557,colour,0.5
119,24,1,1,3,49,149,213.22958169999765,213.79182400001446,"[70, 0, 184]",184,l,0.04377750001731329,colour,0.5
119,24,1,1,3,50,150,214.29968850000296,215.43989249999868,"[24, 0, 230]",230,a,0.6181789999827743,colour,0.5
119,24,1,1,4,1,151,220.62531750000198,221.35988299999735,"[71, 0, 183]",183,l,0.21790419999160804,colour,0.5
119,24,1,1,4,2,152,221.8672901999962,222.4398729999957,"[58, 0, 196]",196,a,0.053310399991460145,colour,0.5
119,24,1,1,4,3,153,222.9511248000199,223.51982640000642,"[3, 0, 251]",251,a,0.037322199990740046,colour,0.5
119,24,1,1,4,4,154,224.03358660000958,224.9758121999912,"[52, 0, 202]",202,a,0.41690229999949224,colour,0.5
119,24,1,1,4,5,155,225.48487650000607,226.43176579999272,"[11, 0, 243]",243,a,0.4248290999967139,colour,0.5
119,24,1,1,4,6,156,226.94972360000247,227.7278004999971,"[83, 0, 171]",171,l,0.2598996000015177,colour,0.5
119,24,1,1,4,7,157,228.24103689999902,228.91173779999372,"[16, 0, 238]",238,a,0.14907259997562505,colour,0.5
119,24,1,1,4,8,158,229.42262190001202,230.0797925000079,"[61, 0, 193]",193,l,0.1349952000018675,colour,0.5
119,24,1,1,4,9,159,230.59004820001428,231.1357788000023,"[40, 0, 214]",214,a,0.026576300006126985,colour,0.5
119,24,1,1,4,10,160,231.64018610000494,232.8878015000082,"[42, 0, 212]",212,a,0.7320498999906704,colour,0.5
119,24,1,1,4,11,161,233.39532979999785,234.26372770001763,"[13, 0, 241]",241,a,0.3503348000231199,colour,0.5
119,24,1,1,4,12,162,234.7845789999992,235.33580339999753,"[93, 0, 161]",161,l,0.027214600006118417,colour,0.5
119,24,1,1,4,13,163,235.85518099999172,236.57575340001495,"[81, 0, 173]",173,l,0.1994956000125967,colour,0.5
119,24,1,1,4,14,164,237.0853630999918,237.96779550000792,"[48, 0, 206]",206,a,0.35896599999978207,colour,0.5
119,24,1,1,4,15,165,238.4845936000056,239.3037883999932,"[12, 0, 242]",242,a,0.2885933999787085,colour,0.5
119,24,1,1,4,16,166,239.81795799999963,240.63179590000072,"[63, 0, 191]",191,l,0.29509249998955056,colour,0.5
119,24,1,1,4,17,167,241.14311560001806,241.751777700003,"[75, 0, 179]",179,l,0.09226859998307191,colour,0.5
119,24,1,1,4,18,168,242.26315050001722,242.9197827000171,"[47, 0, 207]",207,a,0.12587360001634806,colour,0.5
119,24,1,1,4,19,169,243.43456720001996,244.0158105000155,"[19, 0, 235]",235,a,0.06324519999907352,colour,0.5
119,24,1,1,4,20,170,244.52154810001957,245.60776489999262,"[37, 0, 217]",217,a,0.5664523000014015,colour,0.5
119,24,1,1,4,21,171,246.1183572000009,246.75982289999956,"[46, 0, 208]",208,a,0.11615109999547713,colour,0.5
119,24,1,1,4,22,172,247.26976200001081,247.81580870001926,"[24, 0, 230]",230,a,0.02519310000934638,colour,0.5
119,24,1,1,4,23,173,248.3235668000125,249.11983589999727,"[25, 0, 229]",229,a,0.2770795999967959,colour,0.5
119,24,1,1,4,24,174,249.63309909999953,250.4477365000057,"[41, 0, 213]",213,a,0.2840992000128608,colour,0.5
119,24,1,1,4,25,175,250.96812999999383,251.86377250001533,"[64, 0, 190]",190,l,0.37715149999712594,colour,0.5
119,24,1,1,4,26,176,252.38110020000022,253.18380160001107,"[90, 0, 164]",164,l,0.28380450000986457,colour,0.5
119,24,1,1,4,27,177,253.69697670001187,254.4798390000069,"[69, 0, 185]",185,l,0.2535949999873992,colour,0.5
119,24,1,1,4,28,178,254.99437950001447,255.52774250000948,"[78, 0, 176]",176,l,0.016377099993405864,colour,0.5
119,24,1,1,4,29,179,256.04758710000897,256.9917502000171,"[98, 0, 156]",156,l,0.42580120000639,colour,0.5
119,24,1,1,4,30,180,257.5059989000147,258.0557727999985,"[79, 0, 175]",175,l,0.02946180000435561,colour,0.5
119,24,1,1,4,31,181,258.567374700011,259.1038100000005,"[10, 0, 244]",244,a,0.013755899999523535,colour,0.5
119,24,1,1,4,32,182,259.6140086000087,260.2398494000081,"[85, 0, 169]",169,l,0.10282090000691824,colour,0.5
119,24,1,1,4,33,183,260.7486726999923,261.39979540000786,"[45, 0, 209]",209,a,0.13378420000663027,colour,0.5
119,24,1,1,4,34,184,261.90782910000416,262.5517341000086,"[95, 0, 159]",159,l,0.1221988000033889,colour,0.5
119,24,1,1,4,35,185,263.0670544000168,263.6081131999963,"[82, 0, 172]",172,l,0.015772199985804036,colour,0.5
119,24,1,1,4,36,186,264.12903450001613,264.7277555000037,"[88, 0, 166]",166,l,0.06988510000519454,colour,0.5
119,24,1,1,4,37,187,265.236193299992,265.7597240000032,"[94, 0, 160]",160,l,0.0023138000105973333,colour,0.5
119,24,1,1,4,38,188,266.27394469999126,266.84776350000175,"[60, 0, 194]",194,a,0.05667759999050759,colour,0.5
119,24,1,1,4,39,189,267.35502909999923,267.9678072000097,"[87, 0, 167]",167,l,0.10552790001383983,colour,0.5
119,24,1,1,4,40,190,268.48555650000344,269.28779930001474,"[4, 0, 250]",250,a,0.2855042000010144,colour,0.5
119,24,1,1,4,41,191,269.7983228999947,270.88778019999154,"[9, 0, 245]",245,a,0.5754759999981616,colour,0.5
119,24,1,1,4,42,192,271.4000481000112,272.1357301000098,"[77, 0, 177]",177,l,0.22047830000519753,colour,0.5
119,24,1,1,4,43,193,272.6519885000016,273.6477558000188,"[68, 0, 186]",186,a,0.48252830002456903,colour,0.5
119,24,1,1,4,44,194,274.1660360000096,274.9198054000153,"[29, 0, 225]",225,a,0.24397290000342764,colour,0.5
119,24,1,1,4,45,195,275.43473070001346,276.1517495000153,"[15, 0, 239]",239,a,0.1937925000092946,colour,0.5
119,24,1,1,4,46,196,276.6679978000175,277.2957169000001,"[36, 0, 218]",218,a,0.10916930000530556,colour,0.5
119,24,1,1,4,47,197,277.8016337000008,278.3837040000071,"[8, 0, 246]",246,a,0.06276500000967644,colour,0.5
119,24,1,1,4,48,198,278.8998166999954,279.6237043000001,"[96, 0, 158]",158,l,0.19773929999792017,colour,0.5
119,24,1,1,4,49,199,280.14289829999325,280.7516680000117,"[28, 0, 226]",226,a,0.09990450000623241,colour,0.5
119,24,1,1,4,50,200,281.2615455999912,281.8637940000044,"[30, 0, 224]",224,a,0.07447970000794157,colour,0.5
119,24,1,1,5,1,201,286.6100801000139,287.1437295000069,"[43, 0, 211]",211,a,0.013828600000124425,colour,0.4
119,24,1,1,5,2,202,287.6643636999943,288.4797665000078,"[39, 0, 215]",215,a,0.29510439999285154,colour,0.4
119,24,1,1,5,3,203,288.99904930000775,289.61571440001717,"[61, 0, 193]",193,l,0.09439660000498407,colour,0.4
119,24,1,1,5,4,204,290.1378774000041,290.7597102000145,"[81, 0, 173]",173,l,0.09934310000971891,colour,0.4
119,24,1,1,5,5,205,291.2730419000145,291.8797794000129,"[55, 0, 199]",199,a,0.08658259999356233,colour,0.4
119,24,1,1,5,6,206,292.4003109000041,293.0397878999938,"[3, 0, 251]",251,a,0.12256560000241734,colour,0.4
119,24,1,1,5,7,207,293.54545010000584,294.07176489999983,"[64, 0, 190]",190,l,0.00787619999027811,colour,0.4
119,24,1,1,5,8,208,294.5891392999911,295.2237144999963,"[7, 0, 247]",247,a,0.11395089997677132,colour,0.4
119,24,1,1,5,9,209,295.74437460000627,296.33570789999794,"[71, 0, 183]",183,l,0.07202130000223406,colour,0.4
119,24,1,1,5,10,210,296.8483224000083,297.46377299999585,"[60, 0, 194]",194,l,0.09682469998369925,colour,0.4
119,24,1,1,5,11,211,297.97791760001564,298.59173879999435,"[58, 0, 196]",196,l,0.09241389998351224,colour,0.4
119,24,1,1,5,12,212,299.1134900000179,300.2317480999918,"[14, 0, 240]",240,a,0.5968385999731254,colour,0.4
119,24,1,1,5,13,213,300.7429274000169,301.39174180000555,"[59, 0, 195]",195,a,0.12699849999626167,colour,0.4
119,24,1,1,5,14,214,301.9015435000183,302.9437689000042,"[49, 0, 205]",205,a,0.511599399993429,colour,0.4
119,24,1,1,5,15,215,303.45305549999466,304.09568620001664,"[93, 0, 161]",161,l,0.13059939999948256,colour,0.4
119,24,1,1,5,16,216,304.63255080001545,305.17575220001163,"[63, 0, 191]",191,a,0.024665400007506832,colour,0.4
119,24,1,1,5,17,217,305.6878626999969,306.3437533999968,"[21, 0, 233]",233,l,0.1367786999908276,colour,0.4
119,24,1,1,5,18,218,306.86663580001914,307.51968870000564,"[41, 0, 213]",213,a,0.13222920001135208,colour,0.4
119,24,1,1,5,19,219,308.031833200017,308.61571420001565,"[79, 0, 175]",175,l,0.06082760001299903,colour,0.4
119,24,1,1,5,20,220,309.12458669999614,309.743675900012,"[65, 0, 189]",189,l,0.09080599999288097,colour,0.4
119,24,1,1,5,21,221,310.25810370000545,310.9116877000197,"[69, 0, 185]",185,l,0.13238120000460185,colour,0.4
119,24,1,1,5,22,222,311.4220608000178,312.0957663000154,"[17, 0, 237]",237,a,0.1541694000188727,colour,0.4
119,24,1,1,5,23,223,312.6051412000088,313.2396999000048,"[35, 0, 219]",219,a,0.11954919999698177,colour,0.4
119,24,1,1,5,24,224,313.7503871000081,314.44766340000206,"[98, 0, 156]",156,l,0.1783280000090599,colour,0.4
119,24,1,1,5,25,225,314.96869939999306,315.50374370001373,"[9, 0, 245]",245,a,0.02020300002186559,colour,0.4
119,24,1,1,5,26,226,316.01784889999544,316.7117183000082,"[36, 0, 218]",218,a,0.163139999989653,colour,0.4
119,24,1,1,5,27,227,317.2197054999997,317.8556913000066,"[44, 0, 210]",210,a,0.11398759999428876,colour,0.4
119,24,1,1,5,28,228,318.3728942000016,319.2717690000136,"[40, 0, 214]",214,a,0.3803546999988612,colour,0.4
119,24,1,1,5,29,229,319.78486740001244,320.94371809999575,"[25, 0, 229]",229,a,0.6401246000023093,colour,0.4
119,24,1,1,5,30,230,321.4515183000185,322.3037081999937,"[96, 0, 158]",158,l,0.3359379999747034,colour,0.4
119,24,1,1,5,31,231,322.81014439999126,323.43973840001854,"[50, 0, 204]",204,a,0.11400000000139698,colour,0.4
119,24,1,1,5,32,232,323.95049730001483,324.6237039999978,"[62, 0, 192]",192,a,0.15406579998671077,colour,0.4
119,24,1,1,5,33,233,325.13486409999314,325.91973049999797,"[85, 0, 169]",169,l,0.26349240000126883,colour,0.4
119,24,1,1,5,34,234,326.4353254000016,327.2796601000009,"[73, 0, 181]",181,l,0.33017329999711365,colour,0.4
119,24,1,1,5,35,235,327.7977704000077,328.62367240001913,"[97, 0, 157]",157,l,0.29344040001160465,colour,0.4
119,24,1,1,5,36,236,329.13458589999937,329.81570010000723,"[57, 0, 197]",197,a,0.16770160000305623,colour,0.4
119,24,1,1,5,37,237,330.33534819999477,331.143702500005,"[51, 0, 203]",203,a,0.2832625999872107,colour,0.4
119,24,1,1,5,38,238,331.65695410000626,334.0237102000101,"[48, 0, 206]",206,a,1.8477405000012368,colour,0.4
119,24,1,1,5,39,239,334.5417672000185,335.5757287000015,"[70, 0, 184]",184,l,0.5035094000049867,colour,0.4
119,24,1,1,5,40,240,336.09555550001096,336.80772169999545,"[31, 0, 223]",223,l,0.19152259998372756,colour,0.4
119,24,1,1,5,41,241,337.32605920001515,337.9356822000118,"[27, 0, 227]",227,a,0.08472189999883994,colour,0.4
119,24,1,1,5,42,242,338.45336830001906,339.1997013000073,"[45, 0, 209]",209,a,0.22709860000759363,colour,0.4
119,24,1,1,5,43,243,339.7079503000132,340.2877475999994,"[78, 0, 176]",176,l,0.058845699997618794,colour,0.4
119,24,1,1,5,44,244,340.7999313000182,341.5277824999939,"[74, 0, 180]",180,l,0.20764469998539425,colour,0.4
119,24,1,1,5,45,245,342.0548911000078,342.5837504999945,"[89, 0, 165]",165,l,0.011927299987291917,colour,0.4
119,24,1,1,5,46,246,343.0984440000029,343.6717092000181,"[82, 0, 172]",172,l,0.05924690002575517,colour,0.4
119,24,1,1,5,47,247,344.17313460001606,344.9116835000168,"[95, 0, 159]",159,l,0.22125590001815,colour,0.4
119,24,1,1,5,48,248,345.4177553000045,346.1676703999983,"[10, 0, 244]",244,a,0.21965280000586063,colour,0.4
119,24,1,1,5,49,249,346.6853252000001,347.51971530000446,"[66, 0, 188]",188,a,0.3160774999996647,colour,0.4
119,24,1,1,5,50,250,348.0268648999918,348.91971170000033,"[86, 0, 168]",168,l,0.3780063999874983,colour,0.4
119,24,1,1,6,1,251,353.9505674999964,354.50370540001313,"[7, 0, 247]",247,a,0.040219000016804785,colour,0.28
119,24,1,1,6,2,252,355.01682409999194,355.8876680000103,"[37, 0, 217]",217,a,0.34658199999830686,colour,0.28
119,24,1,1,6,3,253,356.40728499999386,357.20771879999666,"[9, 0, 245]",245,a,0.27883979998296127,colour,0.28
119,24,1,1,6,4,254,357.715632300009,358.3597293999919,"[82, 0, 172]",172,l,0.12090799998259172,colour,0.28
119,24,1,1,6,5,255,358.87004650000017,359.49573009999585,"[60, 0, 194]",194,l,0.10295989998849109,colour,0.28
119,24,1,1,6,6,256,360.0165011000063,361.0557470000058,"[61, 0, 193]",193,a,0.511522499989951,colour,0.28
119,24,1,1,6,7,257,361.57739910000237,362.11170030001085,"[85, 0, 169]",169,l,0.007369700004346669,colour,0.28
119,24,1,1,6,8,258,362.6254755000118,363.7516727000184,"[53, 0, 201]",201,a,0.6098231000069063,colour,0.28
119,24,1,1,6,9,259,364.2592463000037,365.07169370001066,"[59, 0, 195]",195,a,0.29504860000452027,colour,0.28
119,24,1,1,6,10,260,365.57741180001176,366.3356602000131,"[62, 0, 192]",192,a,0.24253700001281686,colour,0.28
119,24,1,1,6,11,261,366.8439142999996,367.5116918999993,"[70, 0, 184]",184,l,0.15181710000615567,colour,0.28
119,24,1,1,6,12,262,368.01880439999513,368.84771120001096,"[95, 0, 159]",159,l,0.3203104000131134,colour,0.28
119,24,1,1,6,13,263,369.35474320000503,370.0716403000115,"[94, 0, 160]",160,l,0.1969270000117831,colour,0.28
119,24,1,1,6,14,264,370.5846564999956,371.1996725999925,"[32, 0, 222]",222,a,0.09928859997307882,colour,0.28
119,24,1,1,6,15,265,371.71520790000795,372.47969740000553,"[86, 0, 168]",168,l,0.23248929998953827,colour,0.28
119,24,1,1,6,16,266,372.9859342999989,373.64771479999763,"[87, 0, 167]",167,l,0.15427009999984875,colour,0.28
119,24,1,1,6,17,267,374.1543331000139,374.7916632000124,"[57, 0, 197]",197,a,0.10791960000642575,colour,0.28
119,24,1,1,6,18,268,375.31594090000726,376.09568150000996,"[84, 0, 170]",170,l,0.25615279999328777,colour,0.28
119,24,1,1,6,19,269,376.61037670000223,377.32772510001087,"[58, 0, 196]",196,a,0.19761339999968186,colour,0.28
119,24,1,1,6,20,270,377.8398305000155,378.47970379999606,"[69, 0, 185]",185,a,0.1206938999821432,colour,0.28
119,24,1,1,6,21,271,378.99170230000163,379.5437221000029,"[78, 0, 176]",176,l,0.02938339998945594,colour,0.28
119,24,1,1,6,22,272,380.06732070000726,380.64769119999255,"[43, 0, 211]",211,a,0.05740719998721033,colour,0.28
119,24,1,1,6,23,273,381.15859000000637,382.3197034000186,"[17, 0, 237]",237,a,0.6416675000218675,colour,0.28
119,24,1,1,6,24,274,382.83467969999765,383.9676933000155,"[39, 0, 215]",215,a,0.616781999997329,colour,0.28
119,24,1,1,6,25,275,384.4834219000186,385.27968770000734,"[55, 0, 199]",199,a,0.2776540000049863,colour,0.28
119,24,1,1,6,26,276,385.78537270001834,386.71971340000164,"[76, 0, 178]",178,l,0.4201834999839775,colour,0.28
119,24,1,1,6,27,277,387.2263982000004,387.8796597000037,"[26, 0, 228]",228,a,0.13719889998901635,colour,0.28
119,24,1,1,6,28,278,388.39312520000385,389.03964629999246,"[36, 0, 218]",218,a,0.11584189999848604,colour,0.28
119,24,1,1,6,29,279,389.53909080001176,390.327707599994,"[83, 0, 171]",171,l,0.2797808999894187,colour,0.28
119,24,1,1,6,30,280,390.8347412000003,391.4636756000109,"[74, 0, 180]",180,l,0.11416379999718629,colour,0.28
119,24,1,1,6,31,281,391.984861600009,392.7356391999929,"[81, 0, 173]",173,l,0.22499449999304488,colour,0.28
119,24,1,1,6,32,282,393.24771220001276,393.83165490001556,"[79, 0, 175]",175,l,0.0563696000026539,colour,0.28
119,24,1,1,6,33,283,394.3406668000098,394.99169399999664,"[10, 0, 244]",244,a,0.13309509999817237,colour,0.28
119,24,1,1,6,34,284,395.50015850001364,396.351817799994,"[99, 0, 155]",155,l,0.3267213999934029,colour,0.28
119,24,1,1,6,35,285,396.87345579999965,397.55166130000725,"[88, 0, 166]",166,l,0.15715780001482926,colour,0.28
119,24,1,1,6,36,286,398.06684030001634,398.63167580001755,"[52, 0, 202]",202,a,0.046823800017591566,colour,0.28
119,24,1,1,6,37,287,399.15320600001724,399.72768270000233,"[89, 0, 165]",165,l,0.05386650000582449,colour,0.28
119,24,1,1,6,38,288,400.2395114999963,400.855676200008,"[51, 0, 203]",203,a,0.09605819999706,colour,0.28
119,24,1,1,6,39,289,401.37399059999734,401.999636499997,"[75, 0, 179]",179,a,0.10587109997868538,colour,0.28
119,24,1,1,6,40,290,402.52247130000615,404.31168800001615,"[34, 0, 220]",220,a,1.272970100020757,colour,0.28
119,24,1,1,6,41,291,404.8207314000174,405.6476224999933,"[13, 0, 241]",241,a,0.2978543999779504,colour,0.28
119,24,1,1,6,42,292,406.16012220000266,406.7036744999932,"[80, 0, 174]",174,l,0.027707000001100823,colour,0.28
119,24,1,1,6,43,293,407.20686679999926,407.9596340999997,"[1, 0, 253]",253,a,0.2344945000077132,colour,0.28
119,24,1,1,6,44,294,408.46935560001293,409.1996601000137,"[15, 0, 239]",239,a,0.2095913999946788,colour,0.28
119,24,1,1,6,45,295,409.70171900000423,410.511644800019,"[63, 0, 191]",191,l,0.2894232000107877,colour,0.28
119,24,1,1,6,46,296,411.01848150001024,411.67966120000347,"[91, 0, 163]",163,l,0.1419152999878861,colour,0.28
119,24,1,1,6,47,297,412.18574800001807,412.94360530000995,"[68, 0, 186]",186,l,0.23514289999729954,colour,0.28
119,24,1,1,6,48,298,413.4533667000069,414.9916796000034,"[64, 0, 190]",190,a,1.021010500000557,colour,0.28
119,24,1,1,6,49,299,415.5018473000091,416.1756649000163,"[71, 0, 183]",183,a,0.16588290000800043,colour,0.28
119,24,1,1,6,50,300,416.686434800009,417.43167210000684,"[54, 0, 200]",200,a,0.23622039999463595,colour,0.28
119,24,1,1,7,1,301,423.4780879000027,424.00803590001306,"[78, 0, 176]",176,l,0.014251900021918118,colour,0.14
119,24,1,1,7,2,302,424.524799900013,428.3756302999973,"[5, 0, 249]",249,a,3.3311939999985043,colour,0.14
119,24,1,1,7,3,303,428.8847256000154,429.4636249000032,"[97, 0, 157]",157,l,0.048505499988095835,colour,0.14
119,24,1,1,7,4,304,429.9715358999965,432.29569460000494,"[92, 0, 162]",162,l,1.8161978000134695,colour,0.14
119,24,1,1,7,5,305,432.8044872000173,433.6716509000107,"[96, 0, 158]",158,l,0.3423109000141267,colour,0.14
119,24,1,1,7,6,306,434.1714212000079,434.7276775999926,"[59, 0, 195]",195,a,0.04129049999755807,colour,0.14
119,24,1,1,7,7,307,435.24449599999934,436.0236619999923,"[52, 0, 202]",202,a,0.2603380999935325,colour,0.14
119,24,1,1,7,8,308,436.53983850000077,437.11158389999764,"[57, 0, 197]",197,a,0.05022519998601638,colour,0.14
119,24,1,1,7,9,309,437.6331682000018,438.59965139999986,"[60, 0, 194]",194,a,0.44624629997997545,colour,0.14
119,24,1,1,7,10,310,439.1108251000114,439.67965239999467,"[27, 0, 227]",227,a,0.04775679999147542,colour,0.14
119,24,1,1,7,11,311,440.19842299999436,440.75166969999555,"[98, 0, 156]",156,l,0.022180300002219155,colour,0.14
119,24,1,1,7,12,312,441.27456230000826,442.01568149999366,"[21, 0, 233]",233,a,0.21205609999014996,colour,0.14
119,24,1,1,7,13,313,442.527112700016,443.1596126999939,"[93, 0, 161]",161,l,0.10740569999325089,colour,0.14
119,24,1,1,7,14,314,443.66893569999957,444.6316422999953,"[58, 0, 196]",196,a,0.44605649998993613,colour,0.14
119,24,1,1,7,15,315,445.14069940001355,445.9356767999998,"[54, 0, 200]",200,a,0.2364159999997355,colour,0.14
119,24,1,1,7,16,316,446.45300870001665,447.1596628999978,"[33, 0, 221]",221,a,0.18662779999431223,colour,0.14
119,24,1,1,7,17,317,447.67689550001523,448.3275917000137,"[82, 0, 172]",172,l,0.12079169999924488,colour,0.14
119,24,1,1,7,18,318,448.8495852999913,449.7116170999943,"[55, 0, 199]",199,a,0.34462419999181293,colour,0.14
119,24,1,1,7,19,319,450.2265993000183,450.97565969999414,"[43, 0, 211]",211,a,0.22559200000250712,colour,0.14
119,24,1,1,7,20,320,451.4881035000144,452.1116034000006,"[72, 0, 182]",182,l,0.10599029998411424,colour,0.14
119,24,1,1,7,21,321,452.6335359000077,453.3115967999911,"[91, 0, 163]",163,l,0.15351219999138266,colour,0.14
119,24,1,1,7,22,322,453.81840059999377,454.56765660000383,"[65, 0, 189]",189,a,0.2387670000025537,colour,0.14
119,24,1,1,7,23,323,455.0718043000088,455.83164380001836,"[83, 0, 171]",171,l,0.23918610002147034,colour,0.14
119,24,1,1,7,24,324,456.3440225000086,457.11160540001583,"[63, 0, 191]",191,a,0.25293620000593364,colour,0.14
119,24,1,1,7,25,325,457.6204407000041,458.3995743000123,"[84, 0, 170]",170,l,0.25717769999755546,colour,0.14
119,24,1,1,7,26,326,458.91802860001917,459.7275769000116,"[85, 0, 169]",169,l,0.2889576000161469,colour,0.14
119,24,1,1,7,27,327,460.2346430000034,461.10356590000447,"[71, 0, 183]",183,l,0.345086999994237,colour,0.14
119,24,1,1,7,28,328,461.60673659999156,462.2076185000187,"[75, 0, 179]",179,l,0.08084440001402982,colour,0.14
119,24,1,1,7,29,329,462.722081600019,463.2876349000144,"[80, 0, 174]",174,l,0.05201200000010431,colour,0.14
119,24,1,1,7,30,330,463.78761530001066,464.38357639999595,"[90, 0, 164]",164,l,0.08768549998058006,colour,0.14
119,24,1,1,7,31,331,464.8991376000049,465.6076044999936,"[61, 0, 193]",193,a,0.18449559999862686,colour,0.14
119,24,1,1,7,32,332,466.13591710000765,467.0716148999927,"[50, 0, 204]",204,a,0.4242702999908943,colour,0.14
119,24,1,1,7,33,333,467.58483290000004,468.2716381000064,"[19, 0, 235]",235,a,0.1679839999997057,colour,0.14
119,24,1,1,7,34,334,468.7847562000097,469.51162570001907,"[77, 0, 177]",177,l,0.19131650001509115,colour,0.14
119,24,1,1,7,35,335,470.0340733000194,471.05561800001306,"[64, 0, 190]",190,a,0.49723000000813045,colour,0.14
119,24,1,1,7,36,336,471.56828370000585,472.279567199992,"[51, 0, 203]",203,a,0.1929387999989558,colour,0.14
119,24,1,1,7,37,337,472.79286260000663,473.3916159000073,"[99, 0, 155]",155,l,0.08221290001529269,colour,0.14
119,24,1,1,7,38,338,473.902865400014,474.68758890000754,"[81, 0, 173]",173,l,0.2609723999921698,colour,0.14
119,24,1,1,7,39,339,475.1966661000042,475.99959449999733,"[74, 0, 180]",180,l,0.2730217000062112,colour,0.14
119,24,1,1,7,40,340,476.5071944000083,477.42360080001527,"[62, 0, 192]",192,l,0.37580290000187233,colour,0.14
119,24,1,1,7,41,341,477.93199030001415,478.55961039999966,"[68, 0, 186]",186,a,0.10261329999775626,colour,0.14
119,24,1,1,7,42,342,479.06876930000726,479.6876090000151,"[86, 0, 168]",168,l,0.10024930001236498,colour,0.14
119,24,1,1,7,43,343,480.2040976000135,480.73557200000505,"[13, 0, 241]",241,a,0.010220900003332645,colour,0.14
119,24,1,1,7,44,344,481.23535910001374,481.82362360000843,"[76, 0, 178]",178,l,0.07513820001622662,colour,0.14
119,24,1,1,7,45,345,482.340414700011,483.1036817000131,"[88, 0, 166]",166,l,0.23215150000760332,colour,0.14
119,24,1,1,7,46,346,483.61829109999235,484.7436547999969,"[67, 0, 187]",187,a,0.5989171999972314,colour,0.14
119,24,1,1,7,47,347,485.2573867000174,485.9996127000195,"[87, 0, 167]",167,l,0.2205769000283908,colour,0.14
119,24,1,1,7,48,348,486.51556250001886,487.25557030001073,"[73, 0, 181]",181,l,0.21370720001868904,colour,0.14
119,24,1,1,7,49,349,487.7673284000193,488.39960989999236,"[94, 0, 160]",160,l,0.11316439998336136,colour,0.14
119,24,1,1,7,50,350,488.9119604000007,489.46363179999753,"[95, 0, 159]",159,l,0.020787899993592873,colour,0.14
119,24,1,1,8,1,351,494.09317290000035,494.97555410000496,"[94, 0, 160]",160,l,0.36511630000313744,colour,0.06
119,24,1,1,8,2,352,495.48974449999514,496.151995799999,"[93, 0, 161]",161,l,0.14089700000477023,colour,0.06
119,24,1,1,8,3,353,496.66819270001724,497.44756590001634,"[85, 0, 169]",169,l,0.2638472000253387,colour,0.06
119,24,1,1,8,4,354,497.95322660001693,498.68760619999375,"[91, 0, 163]",163,l,0.21719169997959398,colour,0.06
119,24,1,1,8,5,355,499.1963526000036,499.8636039000121,"[81, 0, 173]",173,l,0.15346240001963452,colour,0.06
119,24,1,1,8,6,356,500.3727896999917,500.9275665000023,"[70, 0, 184]",184,a,0.03599539998685941,colour,0.06
119,24,1,1,8,7,357,501.43917160001,502.02354530000594,"[97, 0, 157]",157,l,0.06023649999406189,colour,0.06
119,24,1,1,8,8,358,502.52178539999295,503.2315660000022,"[90, 0, 164]",164,l,0.20181769999908283,colour,0.06
119,24,1,1,8,9,359,503.7493987000198,504.27158570001484,"[89, 0, 165]",165,l,0.0028697000234387815,colour,0.06
119,24,1,1,8,10,360,504.78478049999103,505.60761659999844,"[61, 0, 193]",193,a,0.29918760000145994,colour,0.06
119,24,1,1,8,11,361,506.12052339999354,506.83964829999604,"[72, 0, 182]",182,a,0.19364589999895543,colour,0.06
119,24,1,1,8,12,362,507.35305619999417,507.9515621000028,"[52, 0, 202]",202,a,0.0795739000022877,colour,0.06
119,24,1,1,8,13,363,508.4696005000151,509.22360359999584,"[65, 0, 189]",189,a,0.23459279999951832,colour,0.06
119,24,1,1,8,14,364,509.7431759000174,510.3595512000029,"[68, 0, 186]",186,a,0.09699079999700189,colour,0.06
119,24,1,1,8,15,365,510.8810839999933,511.54358570001204,"[87, 0, 167]",167,l,0.1417968000168912,colour,0.06
119,24,1,1,8,16,366,512.064006200002,512.7995709000097,"[78, 0, 176]",176,l,0.21326119999866933,colour,0.06
119,24,1,1,8,17,367,513.3228373000165,514.0396161999961,"[80, 0, 174]",174,l,0.20133729997905903,colour,0.06
119,24,1,1,8,18,368,514.5486157000123,515.1756324000016,"[51, 0, 203]",203,a,0.09987079998245463,colour,0.06
119,24,1,1,8,19,369,515.684077700018,516.7116041000118,"[77, 0, 177]",177,l,0.5080239000089932,colour,0.06
119,24,1,1,8,20,370,517.2181174000143,517.7995307999954,"[53, 0, 201]",201,a,0.05766140000196174,colour,0.06
119,24,1,1,8,21,371,518.3044025000127,518.86358200002,"[58, 0, 196]",196,a,0.037658700020983815,colour,0.06
119,24,1,1,8,22,372,519.3579590000154,520.1755665999954,"[83, 0, 171]",171,l,0.3091590999974869,colour,0.06
119,24,1,1,8,23,373,520.6838477000128,522.8716292000026,"[50, 0, 204]",204,a,1.662312500004191,colour,0.06
119,24,1,1,8,24,374,523.3800707000191,524.4316674000002,"[76, 0, 178]",178,l,0.5258761000004597,colour,0.06
119,24,1,1,8,25,375,524.9516895000124,525.7916369000159,"[66, 0, 188]",188,l,0.3158011000195984,colour,0.06
119,24,1,1,8,26,376,526.311604699993,526.9355806999956,"[98, 0, 156]",156,l,0.10433049997664057,colour,0.06
119,24,1,1,8,27,377,527.4451898999978,528.0875895000063,"[40, 0, 214]",214,a,0.1215653000108432,colour,0.06
119,24,1,1,8,28,378,528.5966317999992,529.3115532000083,"[99, 0, 155]",155,l,0.1907851000141818,colour,0.06
119,24,1,1,8,29,379,529.8284542000038,530.5915572000085,"[12, 0, 242]",242,a,0.24016280000796542,colour,0.06
119,24,1,1,8,30,380,531.1108863000118,531.831554000004,"[57, 0, 197]",197,a,0.19408399998792447,colour,0.06
119,24,1,1,8,31,381,532.347983899992,533.2075748000061,"[82, 0, 172]",172,l,0.3394038999977056,colour,0.06
119,24,1,1,8,32,382,533.7365450999932,534.5595790999942,"[64, 0, 190]",190,l,0.3006007999938447,colour,0.06
119,24,1,1,8,33,383,535.0737189000065,535.6955168000131,"[84, 0, 170]",170,a,0.10398139999597333,colour,0.06
119,24,1,1,8,34,384,536.2068772999919,537.0876304999983,"[96, 0, 158]",158,l,0.35577439999906346,colour,0.06
119,24,1,1,8,35,385,537.5964281000197,538.2715521999926,"[60, 0, 194]",194,a,0.15586719999555498,colour,0.06
119,24,1,1,8,36,386,538.7908425999922,539.4635542000178,"[56, 0, 198]",198,a,0.15283390000695363,colour,0.06
119,24,1,1,8,37,387,539.985990599991,540.8396313000121,"[54, 0, 200]",200,a,0.3329899999953341,colour,0.06
119,24,1,1,8,38,388,541.3504134000104,543.6155526000075,"[7, 0, 247]",247,a,1.7452869999979157,colour,0.06
119,24,1,1,8,39,389,544.1217410000099,544.7915159999975,"[71, 0, 183]",183,l,0.14945609998540021,colour,0.06
119,24,1,1,8,40,390,545.307190099993,546.0635543999961,"[55, 0, 199]",199,a,0.22533749998547137,colour,0.06
119,24,1,1,8,41,391,546.592250799993,547.3675980000116,"[74, 0, 180]",180,l,0.2362757000082638,colour,0.06
119,24,1,1,8,42,392,547.882635499991,548.6715084000025,"[86, 0, 168]",168,l,0.2623772000079043,colour,0.06
119,24,1,1,8,43,393,549.184866399999,550.0155218,"[62, 0, 192]",192,l,0.31180259998654947,colour,0.06
119,24,1,1,8,44,394,550.5285287000006,551.3835381999961,"[95, 0, 159]",159,l,0.3349854999978561,colour,0.06
119,24,1,1,8,45,395,551.9020977000182,552.6955301999988,"[88, 0, 166]",166,l,0.27512469998328015,colour,0.06
119,24,1,1,8,46,396,553.2060270000075,554.4235749999934,"[59, 0, 195]",195,a,0.6985483999887947,colour,0.06
119,24,1,1,8,47,397,554.9360916000151,556.1675768000132,"[67, 0, 187]",187,a,0.7175207000109367,colour,0.06
119,24,1,1,8,48,398,556.682421400008,557.2955789999978,"[63, 0, 191]",191,a,0.09121939999749884,colour,0.06
119,24,1,1,8,49,399,557.8047172999941,558.5754851000092,"[79, 0, 175]",175,a,0.24773780000396073,colour,0.06
119,24,1,1,8,50,400,559.0857239000034,559.9035524000064,"[73, 0, 181]",181,l,0.3073926999932155,colour,0.06
119,24,1,1,9,1,401,564.351952099998,566.9915485999954,"[50, 0, 204]",204,l,2.122611600003438,colour,0.06
119,24,1,1,9,2,402,567.5001263000013,569.3675226000196,"[23, 0, 231]",231,a,1.3482762000057846,colour,0.06
119,24,1,1,9,3,403,569.8771800000104,570.7595918000152,"[89, 0, 165]",165,l,0.3646724999998696,colour,0.06
119,24,1,1,9,4,404,571.275146,572.0315659000189,"[63, 0, 191]",191,a,0.23724050002056174,colour,0.06
119,24,1,1,9,5,405,572.5470461999939,573.3755224000197,"[70, 0, 184]",184,l,0.307738600007724,colour,0.06
119,24,1,1,9,6,406,573.8966449,574.655528400006,"[24, 0, 230]",230,a,0.2437664000026416,colour,0.06
119,24,1,1,9,7,407,575.1682231000159,575.9035223000101,"[69, 0, 185]",185,l,0.21428899999591522,colour,0.06
119,24,1,1,9,8,408,576.4148270000005,577.087529100012,"[74, 0, 180]",180,l,0.15360610000789165,colour,0.06
119,24,1,1,9,9,409,577.6017186999961,578.2075837000157,"[53, 0, 201]",201,a,0.07356680001248606,colour,0.06
119,24,1,1,9,10,410,578.7069885999954,579.5115295000141,"[72, 0, 182]",182,l,0.2841580999956932,colour,0.06
119,24,1,1,9,11,411,580.0198462000117,580.679506400018,"[56, 0, 198]",198,a,0.14610160002484918,colour,0.06
119,24,1,1,9,12,412,581.1973572999996,581.9195450000116,"[73, 0, 181]",181,l,0.18811250000726432,colour,0.06
119,24,1,1,9,13,413,582.4349794000154,583.0955371000164,"[76, 0, 178]",178,l,0.1366017000109423,colour,0.06
119,24,1,1,9,14,414,583.6040355000005,584.3595397000026,"[80, 0, 174]",174,l,0.2241996999946423,colour,0.06
119,24,1,1,9,15,415,584.868384500005,585.6235811999941,"[51, 0, 203]",203,a,0.23084759997436777,colour,0.06
119,24,1,1,9,16,416,586.1410669000179,586.8075733000005,"[94, 0, 160]",160,l,0.1417195999820251,colour,0.06
119,24,1,1,9,17,417,587.3240987000172,587.8635461000085,"[59, 0, 195]",195,a,0.018202600011136383,colour,0.06
119,24,1,1,9,18,418,588.3804374000174,588.9914865000173,"[86, 0, 168]",168,l,0.09211560001131147,colour,0.06
119,24,1,1,9,19,419,589.5122335000196,590.1435460000066,"[87, 0, 167]",167,l,0.11248670000350103,colour,0.06
119,24,1,1,9,20,420,590.6595633999968,591.2315002999967,"[99, 0, 155]",155,l,0.052908799989381805,colour,0.06
119,24,1,1,9,21,421,591.7470839000016,592.4155030999973,"[61, 0, 193]",193,a,0.14714689998072572,colour,0.06
119,24,1,1,9,22,422,592.9304288999992,593.4955285000033,"[71, 0, 183]",183,l,0.04742419999092817,colour,0.06
119,24,1,1,9,23,423,594.0145841000194,594.7435237000172,"[97, 0, 157]",157,l,0.2164362000185065,colour,0.06
119,24,1,1,9,24,424,595.257091300009,596.0395305000129,"[95, 0, 159]",159,l,0.2642078000062611,colour,0.06
119,24,1,1,9,25,425,596.5467224000022,597.135558000009,"[64, 0, 190]",190,a,0.07082409999566153,colour,0.06
119,24,1,1,9,26,426,597.6443434999965,598.2235382999934,"[66, 0, 188]",188,a,0.06352169997990131,colour,0.06
119,24,1,1,9,27,427,598.7232110000041,599.3435191000171,"[58, 0, 196]",196,a,0.09732800000347197,colour,0.06
119,24,1,1,9,28,428,599.853691700002,600.4395642000018,"[60, 0, 194]",194,a,0.0554161999898497,colour,0.06
119,24,1,1,9,29,429,600.9402713000018,601.5995207999949,"[65, 0, 189]",189,a,0.14331799998763017,colour,0.06
119,24,1,1,9,30,430,602.118215399998,602.7275046000141,"[67, 0, 187]",187,a,0.09277450002264231,colour,0.06
119,24,1,1,9,31,431,603.2511523000139,603.7915732999973,"[52, 0, 202]",202,a,0.02761259998078458,colour,0.06
119,24,1,1,9,32,432,604.2903149999911,605.0476038000197,"[55, 0, 199]",199,a,0.2331053000234533,colour,0.06
119,24,1,1,9,33,433,605.5613860000158,606.12753290002,"[91, 0, 163]",163,l,0.05162510002264753,colour,0.06
119,24,1,1,9,34,434,606.6396217000147,607.1598902000114,"[14, 0, 240]",240,a,0.0012980000174138695,colour,0.06
119,24,1,1,9,35,435,607.6802500000049,608.5994966000144,"[68, 0, 186]",186,l,0.40038730000378564,colour,0.06
119,24,1,1,9,36,436,609.1230780000042,609.7595206999977,"[54, 0, 200]",200,a,0.11765749999904074,colour,0.06
119,24,1,1,9,37,437,610.2700467999966,611.1515302000043,"[57, 0, 197]",197,a,0.36382070000399835,colour,0.06
119,24,1,1,9,38,438,611.6698551000154,612.2875026999973,"[78, 0, 176]",176,l,0.095527099998435,colour,0.06
119,24,1,1,9,39,439,612.8091582000197,613.3915097000136,"[93, 0, 161]",161,l,0.06149150000419468,colour,0.06
119,24,1,1,9,40,440,613.9131338000007,614.5514827000152,"[98, 0, 156]",156,l,0.11951540000154637,colour,0.06
119,24,1,1,9,41,441,615.0599966000009,615.8395046000078,"[62, 0, 192]",192,a,0.24909250001655892,colour,0.06
119,24,1,1,9,42,442,616.3537799000042,616.9994910999958,"[90, 0, 164]",164,l,0.12933579998207279,colour,0.06
119,24,1,1,9,43,443,617.5080873999977,618.4795092999993,"[85, 0, 169]",169,a,0.45310220000101253,colour,0.06
119,24,1,1,9,44,444,618.9942049999954,622.319522100006,"[79, 0, 175]",175,a,2.805995400005486,colour,0.06
119,24,1,1,9,45,445,622.8436039999942,623.8555616000085,"[81, 0, 173]",173,l,0.48912990000098944,colour,0.06
119,24,1,1,9,46,446,624.3749435000063,625.1755349000159,"[96, 0, 158]",158,l,0.2825576000032015,colour,0.06
119,24,1,1,9,47,447,625.6865585999913,628.0474916000094,"[75, 0, 179]",179,l,1.8473577999975532,colour,0.06
119,24,1,1,9,48,448,628.5564144999953,629.3114897000196,"[92, 0, 162]",162,l,0.23343350001960061,colour,0.06
119,24,1,1,9,49,449,629.831250999996,630.7915162999998,"[88, 0, 166]",166,l,0.4368254999862984,colour,0.06
119,24,1,1,9,50,450,631.3061487000086,632.0634878000128,"[84, 0, 170]",170,l,0.23309200000949204,colour,0.06
119,24,1,1,10,1,451,636.999538700009,638.1594653000066,"[62, 0, 192]",192,a,0.6386885000101756,colour,0.06
119,24,1,1,10,2,452,638.6657051999937,639.7115049000131,"[84, 0, 170]",170,l,0.5258856000145897,colour,0.06
119,24,1,1,10,3,453,640.2198868000123,641.159743199998,"[74, 0, 180]",180,l,0.4295762999972794,colour,0.06
119,24,1,1,10,4,454,641.6741521999938,642.2314557000063,"[35, 0, 219]",219,a,0.04154229999403469,colour,0.06
119,24,1,1,10,5,455,642.7389759999933,643.8075295000162,"[54, 0, 200]",200,a,0.5476344000198878,colour,0.06
119,24,1,1,10,6,456,644.3217865000188,645.5194898000045,"[95, 0, 159]",159,l,0.6776382999960333,colour,0.06
119,24,1,1,10,7,457,646.0355058000132,646.82358940001,"[76, 0, 178]",178,l,0.26975569999194704,colour,0.06
119,24,1,1,10,8,458,647.3360455000075,648.3434745999984,"[67, 0, 187]",187,a,0.48124140000436455,colour,0.06
119,24,1,1,10,9,459,648.8541089000064,649.5914722000016,"[58, 0, 196]",196,a,0.2140040000085719,colour,0.06
119,24,1,1,10,10,460,650.1055330999952,650.8074540999951,"[81, 0, 173]",173,l,0.18254439998418093,colour,0.06
119,24,1,1,10,11,461,651.3310395000153,652.1435167000163,"[17, 0, 237]",237,a,0.2922991000232287,colour,0.06
119,24,1,1,10,12,462,652.6552608000056,653.3674774999963,"[59, 0, 195]",195,a,0.19329759999527596,colour,0.06
119,24,1,1,10,13,463,653.877408100001,654.6794493000198,"[90, 0, 164]",164,l,0.28129750001244247,colour,0.06
119,24,1,1,10,14,464,655.1972663000051,655.895474000019,"[51, 0, 203]",203,a,0.1791780000203289,colour,0.06
119,24,1,1,10,15,465,656.4037563000165,657.0394300000044,"[52, 0, 202]",202,a,0.1276773999852594,colour,0.06
119,24,1,1,10,16,466,657.5870550000109,658.3594224000117,"[64, 0, 190]",190,a,0.24982379999710247,colour,0.06
119,24,1,1,10,17,467,658.8666347000108,659.4474716999975,"[68, 0, 186]",186,l,0.07102350000059232,colour,0.06
119,24,1,1,10,18,468,659.9452800000145,660.6555326000089,"[87, 0, 167]",167,l,0.18191449998994358,colour,0.06
119,24,1,1,10,19,469,661.1643388000084,661.7034839999978,"[96, 0, 158]",158,l,0.02718770000501536,colour,0.06
119,24,1,1,10,20,470,662.1979607999965,662.791513300006,"[65, 0, 189]",189,a,0.07652199998847209,colour,0.06
119,24,1,1,10,21,471,663.294018799992,664.2074807000172,"[86, 0, 168]",168,l,0.3974482000048738,colour,0.06
119,24,1,1,10,22,472,664.71233390001,665.4074800999952,"[93, 0, 161]",161,a,0.17126199998892844,colour,0.06
119,24,1,1,10,23,473,665.9156936999934,667.1034732999979,"[82, 0, 172]",172,l,0.6571324999968056,colour,0.06
119,24,1,1,10,24,474,667.6269934000156,668.2554335000168,"[80, 0, 174]",174,l,0.071693600009894,colour,0.06
119,24,1,1,10,25,475,668.7579254000157,669.4715353999927,"[56, 0, 198]",198,a,0.20476609998149797,colour,0.06
119,24,1,1,10,26,476,669.984979300003,670.7674687000108,"[61, 0, 193]",193,a,0.2516139000072144,colour,0.06
119,24,1,1,10,27,477,671.2793823000102,671.8634461000038,"[85, 0, 169]",169,l,0.0649748999858275,colour,0.06
119,24,1,1,10,28,478,672.3719408000179,674.5515483999916,"[79, 0, 175]",175,l,1.6715770999726374,colour,0.06
119,24,1,1,10,29,479,675.0709509000008,677.2554519000114,"[92, 0, 162]",162,l,1.665149400010705,colour,0.06
119,24,1,1,10,30,480,677.7730663999973,678.759421099996,"[50, 0, 204]",204,a,0.4557706999767106,colour,0.06
119,24,1,1,10,31,481,679.2680105000036,680.0154460000049,"[60, 0, 194]",194,a,0.221487500006333,colour,0.06
119,24,1,1,10,32,482,680.5198808000132,681.295441299997,"[63, 0, 191]",191,a,0.24505559998215176,colour,0.06
119,24,1,1,10,33,483,681.8040594000195,682.647526500019,"[77, 0, 177]",177,l,0.32228310001664795,colour,0.06
119,24,1,1,10,34,484,683.1547467999917,684.3914361000061,"[70, 0, 184]",184,l,0.726431799994316,colour,0.06
119,24,1,1,10,35,485,684.8997190000082,685.447458700015,"[71, 0, 183]",183,l,0.02196050001657568,colour,0.06
119,24,1,1,10,36,486,685.9568800000125,686.6155359999975,"[98, 0, 156]",156,l,0.14048999999067746,colour,0.06
119,24,1,1,10,37,487,687.1215745999943,688.079464600014,"[55, 0, 199]",199,a,0.4399136000138242,colour,0.06
119,24,1,1,10,38,488,688.5865950000007,689.3034123000107,"[99, 0, 155]",155,l,0.20326639999984764,colour,0.06
119,24,1,1,10,39,489,689.8101655000064,690.6554434999998,"[53, 0, 201]",201,a,0.330028600001242,colour,0.06
119,24,1,1,10,40,490,691.1682864000031,691.887449700007,"[97, 0, 157]",157,l,0.1994630999979563,colour,0.06
119,24,1,1,10,41,491,692.3990984999982,692.9434532000159,"[89, 0, 165]",165,l,0.02097350000985898,colour,0.06
119,24,1,1,10,42,492,693.4524941999989,694.0954516000056,"[66, 0, 188]",188,a,0.13480599998729303,colour,0.06
119,24,1,1,10,43,493,694.6070350999944,695.3594449000084,"[69, 0, 185]",185,a,0.2332559000060428,colour,0.06
119,24,1,1,10,44,494,695.8694682999921,696.5354799000197,"[73, 0, 181]",181,l,0.15195140001014806,colour,0.06
119,24,1,1,10,45,495,697.0429009000072,697.7834535000147,"[2, 0, 252]",252,a,0.2148178000061307,colour,0.06
119,24,1,1,10,46,496,698.2973821999913,698.9034495000087,"[78, 0, 176]",176,l,0.08565329998964444,colour,0.06
119,24,1,1,10,47,497,699.416470600001,700.2074346000154,"[91, 0, 163]",163,l,0.2696525000210386,colour,0.06
119,24,1,1,10,48,498,700.7250497000059,701.5834106999973,"[83, 0, 171]",171,l,0.3421774999878835,colour,0.06
119,24,1,1,10,49,499,702.0920670000196,702.8074744000041,"[88, 0, 166]",166,l,0.1935083999997005,colour,0.06
119,24,1,1,10,50,500,703.3235377999954,704.04742420002,"[75, 0, 179]",179,l,0.20422780001536012,colour,0.06
119,24,1,1,11,1,501,708.6418692000152,709.4314466000069,"[57, 0, 197]",197,a,0.271470000006957,colour,0.06
119,24,1,1,11,2,502,709.9512609000085,710.719447600015,"[85, 0, 169]",169,l,0.24681440001586452,colour,0.06
119,24,1,1,11,3,503,711.230063199997,712.1355139999941,"[69, 0, 185]",185,a,0.376665799994953,colour,0.06
119,24,1,1,11,4,504,712.6417488000006,713.3914439000073,"[52, 0, 202]",202,a,0.24068220000481233,colour,0.06
119,24,1,1,11,5,505,713.9005361000018,714.7274567999993,"[49, 0, 205]",205,a,0.3096910000022035,colour,0.06
119,24,1,1,11,6,506,715.236940200004,716.0394046000147,"[56, 0, 198]",198,a,0.2812034000235144,colour,0.06
119,24,1,1,11,7,507,716.5525221000134,717.3674585999979,"[72, 0, 182]",182,l,0.30021539999870583,colour,0.06
119,24,1,1,11,8,508,717.8867600999947,719.0634419000125,"[74, 0, 180]",180,l,0.6542533000174444,colour,0.06
119,24,1,1,11,9,509,719.5855137000035,720.223487500014,"[90, 0, 164]",164,l,0.11910770001122728,colour,0.06
119,24,1,1,11,10,510,720.7319994000136,721.543468799995,"[59, 0, 195]",195,a,0.29219629999715835,colour,0.06
119,24,1,1,11,11,511,722.0542509999941,722.8074128000007,"[64, 0, 190]",190,a,0.23396169999614358,colour,0.06
119,24,1,1,11,12,512,723.3259678000177,723.8875008000177,"[95, 0, 159]",159,l,0.03934210000443272,colour,0.06
119,24,1,1,11,13,513,724.3992893999966,725.1594289999921,"[81, 0, 173]",173,l,0.24075789999915287,colour,0.06
119,24,1,1,11,14,514,725.6688527000078,726.5194072000158,"[88, 0, 166]",166,l,0.32653400002163835,colour,0.06
119,24,1,1,11,15,515,727.0293185000191,727.7354154000059,"[91, 0, 163]",163,l,0.18789400000241585,colour,0.06
119,24,1,1,11,16,516,728.2490812000178,728.9753790000104,"[94, 0, 160]",160,l,0.19977179999114014,colour,0.06
119,24,1,1,11,17,517,729.4910421000095,730.0394333000004,"[82, 0, 172]",172,l,0.030745399999432266,colour,0.06
119,24,1,1,11,18,518,730.5410203000065,731.2154379000131,"[60, 0, 194]",194,a,0.16612179999356158,colour,0.06
119,24,1,1,11,19,519,731.7269640000013,732.5434107000183,"[79, 0, 175]",175,a,0.2977660000033211,colour,0.06
119,24,1,1,11,20,520,733.0517734000168,735.0554354000196,"[10, 0, 244]",244,l,1.4800946000032127,colour,0.06
119,24,1,1,11,21,521,735.5721569000161,736.3034496000037,"[89, 0, 165]",165,l,0.21159250001073815,colour,0.06
119,24,1,1,11,22,522,736.8047033000039,737.3274402999959,"[66, 0, 188]",188,a,0.0012962000037077814,colour,0.06
119,24,1,1,11,23,523,737.8445821999921,738.6953866000113,"[87, 0, 167]",167,l,0.3326985000167042,colour,0.06
119,24,1,1,11,24,524,739.2060762000037,739.9114065000031,"[53, 0, 201]",201,a,0.18614199999137782,colour,0.06
119,24,1,1,11,25,525,740.4205535000074,741.8874594999943,"[84, 0, 170]",170,l,0.9472408999863546,colour,0.06
119,24,1,1,11,26,526,742.3939445000142,742.9353921000147,"[55, 0, 199]",199,a,0.022091799997724593,colour,0.06
119,24,1,1,11,27,527,743.4522993999999,744.2794434000098,"[80, 0, 174]",174,l,0.29639609999139793,colour,0.06
119,24,1,1,11,28,528,744.786417299998,745.6874038999958,"[62, 0, 192]",192,a,0.376783699990483,colour,0.06
119,24,1,1,11,29,529,746.1965064000105,746.9034218000015,"[92, 0, 162]",162,l,0.19023989999550395,colour,0.06
119,24,1,1,11,30,530,747.4093405000167,748.2793966000027,"[73, 0, 181]",181,a,0.3500389999826439,colour,0.06
119,24,1,1,11,31,531,748.7986893999914,749.4634432000166,"[83, 0, 171]",171,l,0.14123420001124032,colour,0.06
119,24,1,1,11,32,532,749.9726376000035,751.1513768000004,"[71, 0, 183]",183,a,0.6587907999928575,colour,0.06
119,24,1,1,11,33,533,751.6697419999982,752.3754329000076,"[65, 0, 189]",189,a,0.18247400000109337,colour,0.06
119,24,1,1,11,34,534,752.8934309000033,753.951430999994,"[98, 0, 156]",156,l,0.5378097999782767,colour,0.06
119,24,1,1,11,35,535,754.4637819000054,755.23935790002,"[78, 0, 176]",176,l,0.2576013000216335,colour,0.06
119,24,1,1,11,36,536,755.7522806999914,756.5754315000086,"[76, 0, 178]",178,l,0.30416679999325424,colour,0.06
119,24,1,1,11,37,537,757.0834576000052,757.7274085000099,"[67, 0, 187]",187,a,0.11788430000888184,colour,0.06
119,24,1,1,11,38,538,758.2448607000115,759.2394356000004,"[75, 0, 179]",179,l,0.4635050999931991,colour,0.06
119,24,1,1,11,39,539,759.758307000011,760.5194061000075,"[96, 0, 158]",158,l,0.23993320000590757,colour,0.06
119,24,1,1,11,40,540,761.0302404999966,761.6713696999941,"[93, 0, 161]",161,l,0.1214841999753844,colour,0.06
119,24,1,1,11,41,541,762.1803602,763.1194305999961,"[54, 0, 200]",200,a,0.42094499999075197,colour,0.06
119,24,1,1,11,42,542,763.6381989000074,764.1674046000117,"[61, 0, 193]",193,a,0.005100200010929257,colour,0.06
119,24,1,1,11,43,543,764.6858900999941,765.2313544999924,"[58, 0, 196]",196,a,0.024797899997793138,colour,0.06
119,24,1,1,11,44,544,765.7446327999933,766.2633875000174,"[32, 0, 222]",222,a,0.002737100003287196,colour,0.06
119,24,1,1,11,45,545,766.7666188000003,772.0393874000001,"[97, 0, 157]",157,l,4.7599865999945905,colour,0.06
119,24,1,1,11,46,546,772.5505553999974,773.5834786000196,"[51, 0, 203]",203,a,0.5051552000222728,colour,0.06
119,24,1,1,11,47,547,774.0993589000136,774.9273653000128,"[86, 0, 168]",168,l,0.3037091000005603,colour,0.06
119,24,1,1,11,48,548,775.442464199994,776.0073654000007,"[70, 0, 184]",184,l,0.038854299986269325,colour,0.06
119,24,1,1,11,49,549,776.5081923000107,777.0714034000121,"[50, 0, 204]",204,a,0.04513230000156909,colour,0.06
119,24,1,1,11,50,550,777.5883482999925,778.7753624000179,"[68, 0, 186]",186,a,0.655617100012023,colour,0.06
119,24,1,1,12,1,551,783.1611405000149,784.135425000015,"[91, 0, 163]",163,l,0.4434446000086609,colour,0.06
119,24,1,1,12,2,552,784.6486940000032,785.4393525000196,"[54, 0, 200]",200,a,0.2638147000106983,colour,0.06
119,24,1,1,12,3,553,785.9511199000117,786.6473971999949,"[83, 0, 171]",171,l,0.16846610000357032,colour,0.06
119,24,1,1,12,4,554,787.1526644999976,788.3193605999986,"[81, 0, 173]",173,l,0.6524658999987878,colour,0.06
119,24,1,1,12,5,555,788.8336857999966,789.599372800003,"[64, 0, 190]",190,a,0.253285099985078,colour,0.06
119,24,1,1,12,6,556,790.1077195999969,791.1193545999995,"[72, 0, 182]",182,l,0.4832418999867514,colour,0.06
119,24,1,1,12,7,557,791.6347631000099,792.319353800005,"[17, 0, 237]",237,l,0.16075159999309108,colour,0.06
119,24,1,1,12,8,558,792.8367962000193,793.6475761000183,"[76, 0, 178]",178,l,0.2906574000080582,colour,0.06
119,24,1,1,12,9,559,794.1636092000117,794.9913889000018,"[98, 0, 156]",156,l,0.3091095999989193,colour,0.06
119,24,1,1,12,10,560,795.5042638000159,796.3433618000126,"[53, 0, 201]",201,a,0.31782910000765696,colour,0.06
119,24,1,1,12,11,561,796.8569114000129,797.6313813000161,"[88, 0, 166]",166,l,0.25821390000055544,colour,0.06
119,24,1,1,12,12,562,798.1424307000125,798.9674087000021,"[70, 0, 184]",184,a,0.3067817999981344,colour,0.06
119,24,1,1,12,13,563,799.5008512999921,800.1993973999924,"[60, 0, 194]",194,a,0.18152999997255392,colour,0.06
119,24,1,1,12,14,564,800.7033265999926,801.5513799000182,"[50, 0, 204]",204,a,0.33428180002374575,colour,0.06
119,24,1,1,12,15,565,802.068915300013,802.9354068000102,"[65, 0, 189]",189,a,0.3528416000190191,colour,0.06
119,24,1,1,12,16,566,803.4523383000051,804.2393677000073,"[73, 0, 181]",181,l,0.2644938000012189,colour,0.06
119,24,1,1,12,17,567,804.7507172000187,805.5273712000053,"[99, 0, 155]",155,l,0.2517578999977559,colour,0.06
119,24,1,1,12,18,568,806.0405470000114,806.8473373000161,"[86, 0, 168]",168,l,0.287768700014567,colour,0.06
119,24,1,1,12,19,569,807.3591700000106,807.9193708999956,"[58, 0, 196]",196,a,0.02942629999597557,colour,0.06
119,24,1,1,12,20,570,808.4247056000168,809.2473948000115,"[71, 0, 183]",183,a,0.30476299999281764,colour,0.06
119,24,1,1,12,21,571,809.7674341000093,810.3913661999977,"[87, 0, 167]",167,l,0.10553109997999854,colour,0.06
119,24,1,1,12,22,572,810.9004538000154,811.4553386000043,"[69, 0, 185]",185,a,0.03630119998706505,colour,0.06
119,24,1,1,12,23,573,811.9731679999968,812.6553115000133,"[57, 0, 197]",197,a,0.16364490002160892,colour,0.06
119,24,1,1,12,24,574,813.1704295999953,816.2153645000071,"[52, 0, 202]",202,a,2.523918999999296,colour,0.06
119,24,1,1,12,25,575,816.7227681000077,817.5193948000087,"[62, 0, 192]",192,a,0.2907845000154339,colour,0.06
119,24,1,1,12,26,576,818.0348845999979,819.1193572000193,"[94, 0, 160]",160,l,0.5651167000178248,colour,0.06
119,24,1,1,12,27,577,819.6351427000191,822.0553804000083,"[59, 0, 195]",195,l,1.9020813000097405,colour,0.06
119,24,1,1,12,28,578,822.568379400007,823.5353540999931,"[68, 0, 186]",186,a,0.45322549997945316,colour,0.06
119,24,1,1,12,29,579,824.0410570999957,824.7433780000138,"[77, 0, 177]",177,l,0.18341749999672174,colour,0.06
119,24,1,1,12,30,580,825.2534926999942,826.007423300005,"[23, 0, 231]",231,a,0.24618509999709204,colour,0.06
119,24,1,1,12,31,581,826.5184114000003,827.3113062000193,"[74, 0, 180]",180,l,0.2618784000223968,colour,0.06
119,24,1,1,12,32,582,827.8228995999962,828.7433251000184,"[96, 0, 158]",158,l,0.3942815000191331,colour,0.06
119,24,1,1,12,33,583,829.2576217000023,829.847416900011,"[55, 0, 199]",199,a,0.05952340000658296,colour,0.06
119,24,1,1,12,34,584,830.3608285000082,830.9914188999974,"[66, 0, 188]",188,a,0.11193129999446683,colour,0.06
119,24,1,1,12,35,585,831.5083513999998,832.3033600000199,"[85, 0, 169]",169,l,0.27539370002341457,colour,0.06
119,24,1,1,12,36,586,832.8130646999925,833.495387300005,"[90, 0, 164]",164,l,0.16296059999149293,colour,0.06
119,24,1,1,12,37,587,834.0071080999915,834.8154149000184,"[84, 0, 170]",170,l,0.287655000021914,colour,0.06
119,24,1,1,12,38,588,835.3267090000154,837.2953330000164,"[44, 0, 210]",210,l,1.4480895000160672,colour,0.06
119,24,1,1,12,39,589,837.8035421000095,838.855326799996,"[92, 0, 162]",162,l,0.5206716999819037,colour,0.06
119,24,1,1,12,40,590,839.4040269000106,840.231345600012,"[51, 0, 203]",203,a,0.29586209999979474,colour,0.06
119,24,1,1,12,41,591,840.7521974999981,841.5433607000159,"[89, 0, 165]",165,l,0.2699865000031423,colour,0.06
119,24,1,1,12,42,592,842.0590993000078,843.0793668999977,"[61, 0, 193]",193,a,0.5023074999917299,colour,0.06
119,24,1,1,12,43,593,843.597051299992,844.3753649000137,"[79, 0, 175]",175,l,0.2566050000023097,colour,0.06
119,24,1,1,12,44,594,844.8891015000117,845.6233228000056,"[80, 0, 174]",174,l,0.212483000010252,colour,0.06
119,24,1,1,12,45,595,846.1328771999979,846.8555822999915,"[56, 0, 198]",198,a,0.19545089997700416,colour,0.06
119,24,1,1,12,46,596,847.3721825999964,848.2392883000139,"[67, 0, 187]",187,a,0.34632480001891963,colour,0.06
119,24,1,1,12,47,597,848.7591701000056,849.4553396000119,"[82, 0, 172]",172,l,0.15653229999588802,colour,0.06
119,24,1,1,12,48,598,849.9684916000115,851.5353319999995,"[93, 0, 161]",161,l,1.0436441999918316,colour,0.06
119,24,1,1,12,49,599,852.0425293000008,852.7833780999936,"[63, 0, 191]",191,a,0.2224827999889385,colour,0.06
119,24,1,1,12,50,600,853.299130200001,854.1113184000133,"[95, 0, 159]",159,l,0.2854249000083655,colour,0.06
119,24,1,1,13,1,601,858.5498443999968,859.3353355000145,"[94, 0, 160]",160,l,0.25985970001784153,colour,0.06
119,24,1,1,13,2,602,859.8891274000052,860.6234312000161,"[77, 0, 177]",177,l,0.2147834000061266,colour,0.06
119,24,1,1,13,3,603,861.1340015000023,861.8313295000116,"[65, 0, 189]",189,a,0.18260679999366403,colour,0.06
119,24,1,1,13,4,604,862.3467608999927,863.031333299994,"[55, 0, 199]",199,a,0.1710976999893319,colour,0.06
119,24,1,1,13,5,605,863.5518977000029,864.2232963000133,"[86, 0, 168]",168,l,0.14808300000731833,colour,0.06
119,24,1,1,13,6,606,864.7378694000072,865.3033352000057,"[97, 0, 157]",157,l,0.04673559998627752,colour,0.06
119,24,1,1,13,7,607,865.807578100008,866.8473731999984,"[75, 0, 179]",179,a,0.518339999980526,colour,0.06
119,24,1,1,13,8,608,867.3626044999983,867.9992727999925,"[52, 0, 202]",202,a,0.1017085999774281,colour,0.06
119,24,1,1,13,9,609,868.5035491000162,869.351346600015,"[76, 0, 178]",178,l,0.3242890000110492,colour,0.06
119,24,1,1,13,10,610,869.8663885999995,870.7753270000103,"[66, 0, 188]",188,a,0.3832133999967482,colour,0.06
119,24,1,1,13,11,611,871.286679700017,872.9433242999949,"[56, 0, 198]",198,a,1.1430712000001222,colour,0.06
119,24,1,1,13,12,612,873.4647588999942,874.2472359999956,"[62, 0, 192]",192,a,0.25515169999562204,colour,0.06
119,24,1,1,13,13,613,874.770429199998,875.5353576000198,"[96, 0, 158]",158,l,0.24466680001933128,colour,0.06
119,24,1,1,13,14,614,876.0518382000155,876.9113337000017,"[68, 0, 186]",186,a,0.3289723999914713,colour,0.06
119,24,1,1,13,15,615,877.421076300001,878.3432930000126,"[89, 0, 165]",165,l,0.40652720001526177,colour,0.06
119,24,1,1,13,16,616,878.8522035999922,879.6712901999999,"[71, 0, 183]",183,a,0.30148189997999,colour,0.06
119,24,1,1,13,17,617,880.1779219000018,880.9833469000005,"[95, 0, 159]",159,l,0.2893401999899652,colour,0.06
119,24,1,1,13,18,618,881.4944477000099,892.2393540000194,"[73, 0, 181]",181,l,10.22885930002667,colour,0.06
119,24,1,1,13,19,619,892.7562043000071,895.4472641000175,"[91, 0, 163]",163,l,2.171903400012525,colour,0.06
119,24,1,1,13,20,620,895.9554426000104,896.551279700012,"[53, 0, 201]",201,a,0.075810200010892,colour,0.06
119,24,1,1,13,21,621,897.0541139999987,897.735353600001,"[54, 0, 200]",200,a,0.1727606999920681,colour,0.06
119,24,1,1,13,22,622,898.2431832000148,899.0232833000191,"[74, 0, 180]",180,l,0.25177900001290254,colour,0.06
119,24,1,1,13,23,623,899.5327594999981,900.0872644000046,"[60, 0, 194]",194,a,0.028695099987089634,colour,0.06
119,24,1,1,13,24,624,900.5959941000037,901.5273236999928,"[57, 0, 197]",197,a,0.41197319998173043,colour,0.06
119,24,1,1,13,25,625,902.0379185999918,902.8312633000023,"[43, 0, 211]",211,a,0.2746210999903269,colour,0.06
119,24,1,1,13,26,626,903.3401716999942,904.0632948999992,"[28, 0, 226]",226,a,0.20496479998109862,colour,0.06
119,24,1,1,13,27,627,904.5801723000186,905.3112852000049,"[59, 0, 195]",195,a,0.21207290000165813,colour,0.06
119,24,1,1,13,28,628,905.8223554000142,906.607302999997,"[64, 0, 190]",190,a,0.2667953999771271,colour,0.06
119,24,1,1,13,29,629,907.1150817000016,907.9352595999953,"[88, 0, 166]",166,l,0.3010589999903459,colour,0.06
119,24,1,1,13,30,630,908.4516718999948,909.0792546000157,"[24, 0, 230]",230,a,0.10348449999582954,colour,0.06
119,24,1,1,13,31,631,909.6024762000015,910.479301400017,"[70, 0, 184]",184,l,0.36011239999788813,colour,0.06
119,24,1,1,13,32,632,910.9982485999935,911.6393360999937,"[72, 0, 182]",182,l,0.11962309997761622,colour,0.06
119,24,1,1,13,33,633,912.1621966999955,912.9993495999952,"[58, 0, 196]",196,a,0.31867659999988973,colour,0.06
119,24,1,1,13,34,634,913.5182369000104,914.3832887000171,"[67, 0, 187]",187,a,0.3471193000150379,colour,0.06
119,24,1,1,13,35,635,914.8963864000107,915.5912491999916,"[51, 0, 203]",203,a,0.1741234999790322,colour,0.06
119,24,1,1,13,36,636,916.1100421000156,916.9352654000104,"[50, 0, 204]",204,a,0.3058589000138454,colour,0.06
119,24,1,1,13,37,637,917.4432677000004,918.2232781999919,"[84, 0, 170]",170,a,0.24998239998240024,colour,0.06
119,24,1,1,13,38,638,918.7327615999966,919.2632471999968,"[87, 0, 167]",167,l,0.01312239997787401,colour,0.06
119,24,1,1,13,39,639,919.7853128999996,921.6632883000129,"[78, 0, 176]",176,l,1.3549992000043858,colour,0.06
119,24,1,1,13,40,640,922.1756113000156,924.663258799992,"[92, 0, 162]",162,l,1.9656824999838136,colour,0.06
119,24,1,1,13,41,641,925.1836424999929,926.1192383000161,"[83, 0, 171]",171,l,0.4050166000088211,colour,0.06
119,24,1,1,13,42,642,926.635125700006,927.3432721999998,"[81, 0, 173]",173,l,0.18981369998073205,colour,0.06
119,24,1,1,13,43,643,927.8523740000091,928.6632487000024,"[69, 0, 185]",185,a,0.29253949999110773,colour,0.06
119,24,1,1,13,44,644,929.1840012000175,929.9192695000092,"[80, 0, 174]",174,l,0.21703520001028664,colour,0.06
119,24,1,1,13,45,645,930.435650600004,931.087233600003,"[98, 0, 156]",156,l,0.13328750000800937,colour,0.06
119,24,1,1,13,46,646,931.6041708000121,932.4473087000079,"[79, 0, 175]",175,a,0.3239234999928158,colour,0.06
119,24,1,1,13,47,647,932.9595368000155,933.9272501000087,"[93, 0, 161]",161,l,0.45137789999716915,colour,0.06
119,24,1,1,13,48,648,934.4479358000099,935.3352616000047,"[61, 0, 193]",193,a,0.3702329999941867,colour,0.06
119,24,1,1,13,49,649,935.8519338000042,936.4553259999957,"[63, 0, 191]",191,a,0.09077999999863096,colour,0.06
119,24,1,1,13,50,650,936.974736300006,938.7752529999998,"[99, 0, 155]",155,l,1.2914938000030816,colour,0.06
119,24,1,1,14,1,651,943.1599822000135,944.015273099998,"[52, 0, 202]",202,a,0.3308519999845885,colour,0.06
119,24,1,1,14,2,652,944.5261054000002,947.5592616999929,"[79, 0, 175]",175,l,2.507222299987916,colour,0.06
119,24,1,1,14,3,653,948.0740292000119,948.679234500014,"[64, 0, 190]",190,a,0.08608480001566932,colour,0.06
119,24,1,1,14,4,654,949.1794450000161,949.8632494000194,"[81, 0, 173]",173,l,0.16914750001160428,colour,0.06
119,24,1,1,14,5,655,950.3921994999982,950.9592840000114,"[62, 0, 192]",192,a,0.04292959999293089,colour,0.06
119,24,1,1,14,6,656,951.4685158999928,952.1432458000199,"[91, 0, 163]",163,l,0.15519340001628734,colour,0.06
119,24,1,1,14,7,657,952.6591748000064,953.3752679000027,"[59, 0, 195]",195,a,0.19751179998274893,colour,0.06
119,24,1,1,14,8,658,953.8851330000034,954.5672935000039,"[76, 0, 178]",178,l,0.1626844999846071,colour,0.06
119,24,1,1,14,9,659,955.0810633999936,955.8312494000129,"[71, 0, 183]",183,l,0.22968210000544786,colour,0.06
119,24,1,1,14,10,660,956.3419686999987,957.0712558999949,"[50, 0, 204]",204,l,0.20896999997785315,colour,0.06
119,24,1,1,14,11,661,957.5848382000113,958.6152449999936,"[75, 0, 179]",179,l,0.5110901999869384,colour,0.06
119,24,1,1,14,12,662,959.1215261000034,960.1112651000149,"[67, 0, 187]",187,a,0.4663111999980174,colour,0.06
119,24,1,1,14,13,663,960.6269432000117,961.4072603000095,"[69, 0, 185]",185,a,0.25830270000733435,colour,0.06
119,24,1,1,14,14,664,961.9245347999968,963.7272856000054,"[77, 0, 177]",177,l,1.2800998000020627,colour,0.06
119,24,1,1,14,15,665,964.2459587999911,964.8232963000191,"[55, 0, 199]",199,a,0.04987690001144074,colour,0.06
119,24,1,1,14,16,666,965.3312441000016,966.1352188000164,"[61, 0, 193]",193,a,0.2774282000027597,colour,0.06
119,24,1,1,14,17,667,966.6447971000161,967.5752148000174,"[51, 0, 203]",203,a,0.41125750000355765,colour,0.06
119,24,1,1,14,18,668,968.0854423000128,973.7592014000111,"[65, 0, 189]",189,l,5.152412399998866,colour,0.06
119,24,1,1,14,19,669,974.2679775000142,974.8551617000194,"[92, 0, 162]",162,l,0.0683603000070434,colour,0.06
119,24,1,1,14,20,670,975.3703123000159,976.1752347000001,"[96, 0, 158]",158,l,0.2837615000025835,colour,0.06
119,24,1,1,14,21,671,976.6908835000067,977.4712870999938,"[56, 0, 198]",198,a,0.26086949999444187,colour,0.06
119,24,1,1,14,22,672,977.9769883000117,978.7432137000142,"[70, 0, 184]",184,a,0.2532825999951456,colour,0.06
119,24,1,1,14,23,673,979.2510167,980.0073495999968,"[30, 0, 224]",224,a,0.23814989998936653,colour,0.06
119,24,1,1,14,24,674,980.5178469000093,981.1512079999957,"[66, 0, 188]",188,a,0.10820619997684844,colour,0.06
119,24,1,1,14,25,675,981.6620629999961,982.3352333999937,"[58, 0, 196]",196,a,0.15437989999190904,colour,0.06
119,24,1,1,14,26,676,982.8509857000026,983.5592546999978,"[68, 0, 186]",186,a,0.1777513999841176,colour,0.06
119,24,1,1,14,27,677,984.0674394000089,984.8632195999962,"[85, 0, 169]",169,l,0.27651419999892823,colour,0.06
119,24,1,1,14,28,678,985.3695502000046,985.9352519999957,"[98, 0, 156]",156,l,0.049434399988967925,colour,0.06
119,24,1,1,14,29,679,986.4390032000083,987.1031772000133,"[89, 0, 165]",165,l,0.14562190001015551,colour,0.06
119,24,1,1,14,30,680,987.6095381000196,988.3032290000119,"[72, 0, 182]",182,a,0.16012660000706092,colour,0.06
119,24,1,1,14,31,681,988.8190744000021,989.5831963999954,"[84, 0, 170]",170,l,0.23438249999890104,colour,0.06
119,24,1,1,14,32,682,990.0910113000136,991.2552762000123,"[27, 0, 227]",227,a,0.6469894000038039,colour,0.06
119,24,1,1,14,33,683,991.7712242999987,993.8312547999958,"[63, 0, 191]",191,a,1.5388758999761194,colour,0.06
119,24,1,1,14,34,684,994.3439777000167,995.0872709999967,"[24, 0, 230]",230,a,0.2193175999855157,colour,0.06
119,24,1,1,14,35,685,995.5978495000163,996.2871973000001,"[74, 0, 180]",180,l,0.15820289999828674,colour,0.06
119,24,1,1,14,36,686,996.8037536000193,997.8551976000017,"[60, 0, 194]",194,a,0.5250895000062883,colour,0.06
119,24,1,1,14,37,687,998.3642013999925,999.8152703999949,"[95, 0, 159]",159,l,0.9229378000018187,colour,0.06
119,24,1,1,14,38,688,1000.3301768999954,1001.0072847999982,"[53, 0, 201]",201,a,0.15402729998459108,colour,0.06
119,24,1,1,14,39,689,1001.525125300017,1002.22318120001,"[87, 0, 167]",167,l,0.17712800001027063,colour,0.06
119,24,1,1,14,40,690,1002.7365627000108,1003.5272259000049,"[94, 0, 160]",160,l,0.2595177000039257,colour,0.06
119,24,1,1,14,41,691,1004.0496438000118,1004.7912169000192,"[57, 0, 197]",197,l,0.22082590000354685,colour,0.06
119,24,1,1,14,42,692,1005.3127273000136,1006.1032641000056,"[54, 0, 200]",200,a,0.26954310000292026,colour,0.06
119,24,1,1,14,43,693,1006.618089399999,1007.5832036999927,"[93, 0, 161]",161,l,0.44504689998575486,colour,0.06
119,24,1,1,14,44,694,1008.0965968999953,1009.1432152999914,"[78, 0, 176]",176,l,0.5275226999947336,colour,0.06
119,24,1,1,14,45,695,1009.652036799991,1010.3592918000068,"[83, 0, 171]",171,l,0.18652920000022277,colour,0.06
119,24,1,1,14,46,696,1010.8784855999984,1011.4632657000038,"[99, 0, 155]",155,l,0.0653726999880746,colour,0.06
119,24,1,1,14,47,697,1011.981568200019,1012.7352382999961,"[86, 0, 168]",168,l,0.23489959997823462,colour,0.06
119,24,1,1,14,48,698,1013.2569467000139,1014.103208400018,"[90, 0, 164]",164,l,0.3281794000067748,colour,0.06
119,24,1,1,14,49,699,1014.6209556999966,1015.423259800009,"[80, 0, 174]",174,l,0.2801411999971606,colour,0.06
119,24,1,1,14,50,700,1015.944450800016,1016.5912610999949,"[97, 0, 157]",157,l,0.12360269998316653,colour,0.06
119,24,1,1,15,1,701,1021.1780803000147,1021.8471759000095,"[65, 0, 189]",189,a,0.14901650001411326,colour,0.06
119,24,1,1,15,2,702,1022.36001210002,1022.9511863999942,"[49, 0, 205]",205,a,0.07288169997627847,colour,0.06
119,24,1,1,15,3,703,1023.4627366999921,1024.1992456000007,"[85, 0, 169]",169,l,0.21791899998788722,colour,0.06
119,24,1,1,15,4,704,1024.7190630999976,1025.415295600018,"[53, 0, 201]",201,a,0.17808520002290606,colour,0.06
119,24,1,1,15,5,705,1025.9309013000166,1026.6392040000064,"[67, 0, 187]",187,a,0.18537250001099892,colour,0.06
119,24,1,1,15,6,706,1027.1614043000154,1027.975196400017,"[56, 0, 198]",198,a,0.29242800001520663,colour,0.06
119,24,1,1,15,7,707,1028.4911314999918,1029.3351938000123,"[73, 0, 181]",181,l,0.3248762000002898,colour,0.06
119,24,1,1,15,8,708,1029.8504033999925,1030.5911784000054,"[83, 0, 171]",171,l,0.21474850000231527,colour,0.06
119,24,1,1,15,9,709,1031.1119901000056,1031.887214699993,"[95, 0, 159]",159,l,0.2562055999878794,colour,0.06
119,24,1,1,15,10,710,1032.400036600011,1033.1432084999979,"[64, 0, 190]",190,a,0.22503169998526573,colour,0.06
119,24,1,1,15,11,711,1033.655231200013,1034.4472080999985,"[88, 0, 166]",166,l,0.2727304000000004,colour,0.06
119,24,1,1,15,12,712,1034.9612124999985,1038.5591720000084,"[58, 0, 196]",196,l,3.0745476000010967,colour,0.06
119,24,1,1,15,13,713,1039.0665209,1041.5272152000107,"[50, 0, 204]",204,a,1.9423224999918602,colour,0.06
119,24,1,1,15,14,714,1042.0412654000102,1042.7592015000118,"[54, 0, 200]",200,a,0.19297249999362975,colour,0.06
119,24,1,1,15,15,715,1043.2731707000057,1044.0551577000006,"[99, 0, 155]",155,l,0.2622574999986682,colour,0.06
119,24,1,1,15,16,716,1044.5737653000106,1045.3591873999976,"[77, 0, 177]",177,l,0.2648183999990579,colour,0.06
119,24,1,1,15,17,717,1045.877875200007,1046.615135,"[60, 0, 194]",194,a,0.2169104999920819,colour,0.06
119,24,1,1,15,18,718,1047.1361259999976,1047.671218500007,"[96, 0, 158]",158,l,0.014811800007009879,colour,0.06
119,24,1,1,15,19,719,1048.1894712999929,1048.9351471000118,"[75, 0, 179]",179,a,0.23754940001526847,colour,0.06
119,24,1,1,15,20,720,1049.4517860999913,1050.007213200006,"[55, 0, 199]",199,a,0.03655710001476109,colour,0.06
119,24,1,1,15,21,721,1050.5160122000088,1051.1592037999944,"[51, 0, 203]",203,a,0.12274689998594113,colour,0.06
119,24,1,1,15,22,722,1051.6746134000132,1053.279177599994,"[90, 0, 164]",164,l,1.082259899994824,colour,0.06
119,24,1,1,15,23,723,1053.7960240000102,1058.2951652000193,"[76, 0, 178]",178,l,3.976667000009911,colour,0.06
119,24,1,1,15,24,724,1058.811783000012,1059.767181800009,"[52, 0, 202]",202,a,0.4407906999986153,colour,0.06
119,24,1,1,15,25,725,1060.2701145000174,1061.0311632000085,"[59, 0, 195]",195,a,0.23686239999369718,colour,0.06
119,24,1,1,15,26,726,1061.5546068999975,1062.1351654000173,"[80, 0, 174]",174,l,0.0570867000205908,colour,0.06
119,24,1,1,15,27,727,1062.645715999999,1063.1753832999966,"[91, 0, 163]",163,l,0.011192899983143434,colour,0.06
119,24,1,1,15,28,728,1063.6987324999936,1064.4312273999967,"[68, 0, 186]",186,l,0.21188610000535846,colour,0.06
119,24,1,1,15,29,729,1064.940447400004,1065.5191498000058,"[81, 0, 173]",173,l,0.058761199994478375,colour,0.06
119,24,1,1,15,30,730,1066.0310627,1066.799197699991,"[93, 0, 161]",161,l,0.2458572999748867,colour,0.06
119,24,1,1,15,31,731,1067.3119445000193,1067.831204999995,"[23, 0, 231]",231,a,0.0010444999788887799,colour,0.06
119,24,1,1,15,32,732,1068.3520387000171,1068.8792508000042,"[98, 0, 156]",156,l,0.014902700000675395,colour,0.06
119,24,1,1,15,33,733,1069.3884453999926,1069.9751486000023,"[66, 0, 188]",188,a,0.06393830000888556,colour,0.06
119,24,1,1,15,34,734,1070.4744125000143,1071.8711078000197,"[84, 0, 170]",170,l,0.8716071000089869,colour,0.06
119,24,1,1,15,35,735,1072.3848319000099,1073.151173899998,"[82, 0, 172]",172,l,0.24698440000065602,colour,0.06
119,24,1,1,15,36,736,1073.6689296000113,1074.4151462000154,"[94, 0, 160]",160,l,0.22348410001723096,colour,0.06
119,24,1,1,15,37,737,1074.9222861000162,1075.6072176000162,"[63, 0, 191]",191,a,0.1710717000241857,colour,0.06
119,24,1,1,15,38,738,1076.1142720000062,1076.911145399994,"[72, 0, 182]",182,a,0.28218499998911284,colour,0.06
119,24,1,1,15,39,739,1077.4249610000115,1078.5911621999985,"[86, 0, 168]",168,l,0.6480987999821082,colour,0.06
119,24,1,1,15,40,740,1079.1015727999911,1079.855124499998,"[74, 0, 180]",180,l,0.22927579999668524,colour,0.06
119,24,1,1,15,41,741,1080.3611128000193,1080.91116280001,"[87, 0, 167]",167,l,0.030838500009849668,colour,0.06
119,24,1,1,15,42,742,1081.4312829000119,1082.1271901,"[78, 0, 176]",176,l,0.18086219998076558,colour,0.06
119,24,1,1,15,43,743,1082.636716900015,1083.5751662999974,"[89, 0, 165]",165,l,0.4247308000049088,colour,0.06
119,24,1,1,15,44,744,1084.0867924999911,1084.9191812000063,"[70, 0, 184]",184,l,0.313185600010911,colour,0.06
119,24,1,1,15,45,745,1085.425243500009,1086.5351951000048,"[71, 0, 183]",183,l,0.5931092000100762,colour,0.06
119,24,1,1,15,46,746,1087.0512674000056,1091.3591809000063,"[79, 0, 175]",175,l,3.7834734999923967,colour,0.06
119,24,1,1,15,47,747,1091.889912500017,1092.9271578000044,"[62, 0, 192]",192,a,0.5208959000010509,colour,0.06
119,24,1,1,15,48,748,1093.4393114999984,1094.3031502999947,"[41, 0, 213]",213,a,0.34332549999817275,colour,0.06
119,24,1,1,15,49,749,1094.8021117000026,1095.5911156999937,"[69, 0, 185]",185,l,0.2745461000013165,colour,0.06
119,24,1,1,15,50,750,1096.1026123000192,1096.7351097000064,"[57, 0, 197]",197,a,0.10926570001174696,colour,0.06
119,24,1,1,16,1,751,1104.0517723000085,1104.7111107000092,"[92, 0, 162]",162,l,0.14116240001749247,colour,0.06
119,24,1,1,16,2,752,1105.2193124000041,1105.8471068000072,"[95, 0, 159]",159,l,0.11705530001199804,colour,0.06
119,24,1,1,16,3,753,1106.3686967999965,1107.1591317999992,"[96, 0, 158]",158,l,0.2643380999797955,colour,0.06
119,24,1,1,16,4,754,1107.6729255999962,1108.4391631000035,"[76, 0, 178]",178,l,0.24892569999792613,colour,0.06
119,24,1,1,16,5,755,1108.9523818000162,1109.8551632000017,"[73, 0, 181]",181,a,0.383976499986602,colour,0.06
119,24,1,1,16,6,756,1110.352945599996,1111.4071814999916,"[74, 0, 180]",180,l,0.5358168999955524,colour,0.06
119,24,1,1,16,7,757,1111.9264486000175,1112.7991349000076,"[54, 0, 200]",200,a,0.35281089998898096,colour,0.06
119,24,1,1,16,8,758,1113.3225568000053,1113.9751158000145,"[11, 0, 243]",243,a,0.13332880000234582,colour,0.06
119,24,1,1,16,9,759,1114.4901477000094,1115.2071543000056,"[59, 0, 195]",195,a,0.1958011999959126,colour,0.06
119,24,1,1,16,10,760,1115.7156150999945,1116.279098900006,"[55, 0, 199]",199,a,0.03949510000529699,colour,0.06
119,24,1,1,16,11,761,1116.7935605999955,1117.6231273000012,"[71, 0, 183]",183,l,0.3068712999811396,colour,0.06
119,24,1,1,16,12,762,1118.143806100008,1118.9271160000062,"[52, 0, 202]",202,a,0.26366200001211837,colour,0.06
119,24,1,1,16,13,763,1119.4352541000117,1120.2150983000174,"[37, 0, 217]",217,a,0.254009500000393,colour,0.06
119,24,1,1,16,14,764,1120.7283685000148,1121.4871099000156,"[80, 0, 174]",174,l,0.23983010000665672,colour,0.06
119,24,1,1,16,15,765,1122.0001736000122,1122.8551342000137,"[64, 0, 190]",190,l,0.3356447000114713,colour,0.06
119,24,1,1,16,16,766,1123.364140199992,1124.127118000004,"[91, 0, 163]",163,l,0.2448875000118278,colour,0.06
119,24,1,1,16,17,767,1124.6494098000112,1125.375079999998,"[57, 0, 197]",197,a,0.20661279998603277,colour,0.06
119,24,1,1,16,18,768,1125.8914925999998,1126.6311337999941,"[66, 0, 188]",188,a,0.21728779998375103,colour,0.06
119,24,1,1,16,19,769,1127.1542425999942,1127.7111197000195,"[58, 0, 196]",196,a,0.03660580000723712,colour,0.06
119,24,1,1,16,20,770,1128.2272515000077,1129.4071796000062,"[93, 0, 161]",161,l,0.6613975999935064,colour,0.06
119,24,1,1,16,21,771,1129.9185909999942,1130.5991346999945,"[77, 0, 177]",177,l,0.15605809999397025,colour,0.06
119,24,1,1,16,22,772,1131.1055411999987,1131.9593358999991,"[41, 0, 213]",213,a,0.33622169998125173,colour,0.06
119,24,1,1,16,23,773,1132.4759156999935,1133.2551367999986,"[65, 0, 189]",189,l,0.24831699999049306,colour,0.06
119,24,1,1,16,24,774,1133.76051740002,1134.4631318000029,"[94, 0, 160]",160,l,0.18767909999587573,colour,0.06
119,24,1,1,16,25,775,1134.9712612000003,1135.519124000013,"[75, 0, 179]",179,l,0.03559240000322461,colour,0.06
119,24,1,1,16,26,776,1136.0362995000032,1136.7110832000035,"[87, 0, 167]",167,l,0.16414829998393543,colour,0.06
119,24,1,1,16,27,777,1137.2197273999918,1137.9190843999968,"[56, 0, 198]",198,a,0.18508080000174232,colour,0.06
119,24,1,1,16,28,778,1138.439729900012,1139.1431307000166,"[83, 0, 171]",171,l,0.1780618000193499,colour,0.06
119,24,1,1,16,29,779,1139.65392110002,1140.3591439000156,"[67, 0, 187]",187,l,0.18422530000680126,colour,0.06
119,24,1,1,16,30,780,1140.8649807000184,1141.703144900006,"[78, 0, 176]",176,l,0.3135148999863304,colour,0.06
119,24,1,1,16,31,781,1142.2130881000194,1143.463122200017,"[72, 0, 182]",182,l,0.727560800005449,colour,0.06
119,24,1,1,16,32,782,1143.9723951000196,1144.6471100999916,"[81, 0, 173]",173,l,0.1537866999860853,colour,0.06
119,24,1,1,16,33,783,1145.1689189000172,1146.1511169000005,"[90, 0, 164]",164,l,0.4624926999968011,colour,0.06
119,24,1,1,16,34,784,1146.6606290999916,1147.503116900014,"[68, 0, 186]",186,l,0.3223108999955002,colour,0.06
119,24,1,1,16,35,785,1148.0166144999966,1148.543107800011,"[70, 0, 184]",184,a,0.009535000019241124,colour,0.06
119,24,1,1,16,36,786,1149.057329800009,1149.631132600014,"[98, 0, 156]",156,l,0.057349000009708107,colour,0.06
119,24,1,1,16,37,787,1150.1315618999943,1151.4631158999982,"[84, 0, 170]",170,l,0.815805399994133,colour,0.06
119,24,1,1,16,38,788,1151.979229199991,1153.0711045000062,"[99, 0, 155]",155,l,0.5603456000098959,colour,0.06
119,24,1,1,16,39,789,1153.5800385000184,1154.3190951000142,"[60, 0, 194]",194,a,0.21949570000288077,colour,0.06
119,24,1,1,16,40,790,1154.8405964999984,1155.4071661000198,"[61, 0, 193]",193,a,0.04799630001070909,colour,0.06
119,24,1,1,16,41,791,1155.9255887000181,1157.0390849999967,"[86, 0, 168]",168,l,0.5926795999985188,colour,0.06
119,24,1,1,16,42,792,1157.557385299995,1158.4390951000096,"[53, 0, 201]",201,a,0.3573134000180289,colour,0.06
119,24,1,1,16,43,793,1158.955384300003,1159.6551070999994,"[85, 0, 169]",169,l,0.17875279998406768,colour,0.06
119,24,1,1,16,44,794,1160.1635913999926,1162.0151123999967,"[82, 0, 172]",172,l,1.3324554999999236,colour,0.06
119,24,1,1,16,45,795,1162.527876600012,1163.3111763999914,"[79, 0, 175]",175,l,0.2550516999908723,colour,0.06
119,24,1,1,16,46,796,1163.8217477000144,1164.3910635999928,"[88, 0, 166]",166,l,0.04915059998165816,colour,0.06
119,24,1,1,16,47,797,1164.9049686999933,1165.4391665000003,"[69, 0, 185]",185,a,0.025746200000867248,colour,0.06
119,24,1,1,16,48,798,1165.9366426000197,1166.5431244999927,"[62, 0, 192]",192,a,0.09554839998600073,colour,0.06
119,24,1,1,16,49,799,1167.0419210999971,1168.8231197000132,"[63, 0, 191]",191,a,1.2581240000145044,colour,0.06
119,24,1,1,16,50,800,1169.3353458000056,1170.2391192000068,"[51, 0, 203]",203,a,0.380241400009254,colour,0.06
