id,age,condition,counterbalance,block,trialinblock,trial,tstart,tend,trialstim,trialintensity,response,RT,trialtype,colourfreq
129,23,0,2,Practice,1,NA,5.120178684592247e-06,1.7255972372367978,"[75, 0, 179]",179,a,1.2013802707660943,colour,0.5
129,23,0,2,Practice,2,NA,2.2364581164438277,7.957592296879739,"[98, 0, 156]",156,l,5.197819120250642,colour,0.5
129,23,0,2,Practice,3,NA,8.471643717959523,9.71753088827245,"[37, 0, 217]",217,a,0.7226993220392615,colour,0.5
129,23,0,2,Practice,4,NA,10.23740570852533,11.501562975812703,"[88, 0, 166]",166,l,0.7411052957177162,colour,0.5
129,23,0,2,Practice,5,NA,12.020462240790948,13.301584400935099,"[94, 0, 160]",160,l,0.7577495984733105,colour,0.5
129,23,0,2,Practice,6,NA,13.81769760325551,15.00561938714236,"[33, 0, 221]",221,a,0.6649663045536727,colour,0.5
129,23,0,2,Practice,7,NA,15.515924944076687,16.797571312636137,"[26, 0, 228]",228,a,0.758716095238924,colour,0.5
129,23,0,2,Practice,8,NA,17.31804989790544,18.52556825010106,"[93, 0, 161]",161,l,0.6843533471692353,colour,0.5
129,23,0,2,Practice,9,NA,19.03273840365,20.101590072270483,"[41, 0, 213]",213,a,0.5454668977763504,colour,0.5
129,23,0,2,Practice,10,NA,20.610874782083556,21.597568713361397,"[23, 0, 231]",231,a,0.4632886804174632,colour,0.5
129,23,0,2,1,1,1,4.444269489496946,5.4080065630842,"[22, 0, 232]",232,a,0.43979619280435145,colour,0.5
129,23,0,2,1,2,2,5.931635518092662,7.0719413864426315,"[55, 0, 199]",199,a,0.6169782050419599,colour,0.5
129,23,0,2,1,3,3,7.587827733485028,8.71198199968785,"[43, 0, 211]",211,a,0.6008364490699023,colour,0.5
129,23,0,2,1,4,4,9.228463841136545,10.647978174732998,"[63, 0, 191]",191,a,0.8963241223245859,colour,0.5
129,23,0,2,1,5,5,11.166025158017874,12.38397962716408,"[69, 0, 185]",185,l,0.6946996671613306,colour,0.5
129,23,0,2,1,6,6,12.901751312660053,14.055923297768459,"[82, 0, 172]",172,l,0.6309423893690109,colour,0.5
129,23,0,2,1,7,7,14.573596521746367,15.7119823936373,"[89, 0, 165]",165,l,0.6154170017689466,colour,0.5
129,23,0,2,1,8,8,16.231219184119254,17.271948711946607,"[84, 0, 170]",170,l,0.5173427877016366,colour,0.5
129,23,0,2,1,9,9,17.77808620245196,18.76792420214042,"[64, 0, 190]",190,a,0.46674900664947927,colour,0.5
129,23,0,2,1,10,10,19.278098608599976,20.319922239053994,"[27, 0, 227]",227,a,0.5187795357778668,colour,0.5
129,23,0,2,1,11,11,20.840564663987607,21.887956087710336,"[88, 0, 166]",166,l,0.524053520290181,colour,0.5
129,23,0,2,1,12,12,22.404411147814244,23.663932854076847,"[48, 0, 206]",206,a,0.7361885290592909,colour,0.5
129,23,0,2,1,13,13,24.17005065246485,25.279934322228655,"[26, 0, 228]",228,a,0.5866076003294438,colour,0.5
129,23,0,2,1,14,14,25.795028252527118,26.879936606623232,"[67, 0, 187]",187,l,0.5616980567574501,colour,0.5
129,23,0,2,1,15,15,27.390168908517808,28.480112970573828,"[85, 0, 169]",169,l,0.5672851484268904,colour,0.5
129,23,0,2,1,16,16,28.999623089795932,30.007928502745926,"[96, 0, 158]",158,l,0.48507384792901576,colour,0.5
129,23,0,2,1,17,17,30.51528415759094,31.51189866196364,"[45, 0, 209]",209,a,0.4711482604034245,colour,0.5
129,23,0,2,1,18,18,32.0329546246212,32.99990587099455,"[52, 0, 202]",202,a,0.4435129123739898,colour,0.5
129,23,0,2,1,19,19,33.51629752176814,34.51193016953766,"[79, 0, 175]",175,l,0.4723691812250763,colour,0.5
129,23,0,2,1,20,20,35.031833346700296,36.423927371622995,"[68, 0, 186]",186,l,0.869594618678093,colour,0.5
129,23,0,2,1,21,21,36.94046001927927,38.03205783851445,"[42, 0, 212]",212,a,0.5683485311456025,colour,0.5
129,23,0,2,1,22,22,38.549786200979725,39.64789743628353,"[49, 0, 205]",205,a,0.5763357169926167,colour,0.5
129,23,0,2,1,23,23,40.158174242824316,41.215978546533734,"[2, 0, 252]",252,a,0.5344124436378479,colour,0.5
129,23,0,2,1,24,24,41.73631771048531,43.375864835456014,"[66, 0, 188]",188,l,1.114360511302948,colour,0.5
129,23,0,2,1,25,25,43.894369467161596,45.04788688127883,"[74, 0, 180]",180,l,0.6303921872749925,colour,0.5
129,23,0,2,1,26,26,45.5662253103219,46.839922696119174,"[34, 0, 220]",220,a,0.750409894855693,colour,0.5
129,23,0,2,1,27,27,47.34746818407439,48.5838538329117,"[17, 0, 237]",237,a,0.7130575915798545,colour,0.5
129,23,0,2,1,28,28,49.09873587428592,50.18390889256261,"[8, 0, 246]",246,a,0.5617799768224359,colour,0.5
129,23,0,2,1,29,29,50.69245317275636,51.687844393309206,"[32, 0, 222]",222,a,0.4722344861365855,colour,0.5
129,23,0,2,1,30,30,52.20948245958425,53.215894657419994,"[3, 0, 251]",251,a,0.48315070080570877,colour,0.5
129,23,0,2,1,31,31,53.72497811191715,54.82447371422313,"[19, 0, 235]",235,a,0.5739056905731559,colour,0.5
129,23,0,2,1,32,32,55.3369615690317,56.42386829480529,"[51, 0, 203]",203,a,0.5636070256587118,colour,0.5
129,23,0,2,1,33,33,56.93062136601657,57.93584336293861,"[37, 0, 217]",217,a,0.4818604630418122,colour,0.5
129,23,0,2,1,34,34,58.44627416296862,59.31184761971235,"[98, 0, 156]",156,l,0.3421347290277481,colour,0.5
129,23,0,2,1,35,35,59.823569444939494,60.735839975764975,"[81, 0, 173]",173,l,0.38896098430268466,colour,0.5
129,23,0,2,1,36,36,61.245408648159355,62.152002684539184,"[0, 0, 254]",254,a,0.3832584961783141,colour,0.5
129,23,0,2,1,37,37,62.66727857128717,63.54380802088417,"[38, 0, 216]",216,a,0.3531994232907891,colour,0.5
129,23,0,2,1,38,38,64.05794530035928,64.9918907219544,"[13, 0, 241]",241,a,0.41093441005796194,colour,0.5
129,23,0,2,1,39,39,65.51101999287494,66.39986617141403,"[83, 0, 171]",171,l,0.3656689643394202,colour,0.5
129,23,0,2,1,40,40,66.91960629634559,67.79183022747748,"[87, 0, 167]",167,l,0.3490325384773314,colour,0.5
129,23,0,2,1,41,41,68.31016196100973,69.15182781708427,"[44, 0, 210]",210,a,0.3184181433171034,colour,0.5
129,23,0,2,1,42,42,69.6695715393871,70.69584457599558,"[36, 0, 218]",218,a,0.5029953916091472,colour,0.5
129,23,0,2,1,43,43,71.21646100701764,72.4398399097845,"[58, 0, 196]",196,a,0.7001233131159097,colour,0.5
129,23,0,2,1,44,44,72.95217062020674,74.12012995313853,"[23, 0, 231]",231,a,0.6446635711472481,colour,0.5
129,23,0,2,1,45,45,74.6263406991493,75.63985668751411,"[59, 0, 195]",195,a,0.4936809465289116,colour,0.5
129,23,0,2,1,46,46,76.15676860837266,77.0318333467003,"[14, 0, 240]",240,a,0.35180087806656957,colour,0.5
129,23,0,2,1,47,47,77.54737586691044,78.41581691219471,"[6, 0, 248]",248,a,0.3451496160123497,colour,0.5
129,23,0,2,1,48,48,78.92082603578456,79.76782101462595,"[5, 0, 249]",249,a,0.3236968540586531,colour,0.5
129,23,0,2,1,49,49,80.2801517250482,80.91187117155641,"[70, 0, 184]",184,l,0.1085599553771317,colour,0.5
129,23,0,2,1,50,50,81.4246441705618,82.25583964493126,"[91, 0, 163]",163,l,0.307864660397172,colour,0.5
129,23,0,2,2,1,51,90.53141173510812,91.40781712345779,"[20, 0, 234]",234,a,0.35225852648727596,colour,0.5
129,23,0,2,2,2,52,91.92286576121114,92.82378487847745,"[53, 0, 201]",201,a,0.37759814923629165,colour,0.5
129,23,0,2,2,3,53,93.34473804756999,94.24011378991418,"[9, 0, 245]",245,a,0.37020251946523786,colour,0.5
129,23,0,2,2,4,54,94.75289309024811,95.60778073198162,"[2, 0, 252]",252,a,0.33154107397422194,colour,0.5
129,23,0,2,2,5,55,96.12685328908265,96.9757773228921,"[4, 0, 250]",250,a,0.3257224012631923,colour,0.5
129,23,0,2,2,6,56,97.49055735836737,98.35180993657559,"[58, 0, 196]",196,l,0.33826637896709144,colour,0.5
129,23,0,2,2,7,57,98.8656053582672,99.69578313617967,"[17, 0, 237]",237,a,0.3068233332596719,colour,0.5
129,23,0,2,2,8,58,100.20942732109688,101.05580199346878,"[29, 0, 225]",225,a,0.32317225192673504,colour,0.5
129,23,0,2,2,9,59,101.5687014167197,102.51191638503224,"[42, 0, 212]",212,a,0.4169413410127163,colour,0.5
129,23,0,2,2,10,60,103.02479926683009,103.8957522585988,"[45, 0, 209]",209,a,0.3476217838469893,colour,0.5
129,23,0,2,2,11,61,104.4154537867289,105.26379335392267,"[74, 0, 180]",180,l,0.32504301774315536,colour,0.5
129,23,0,2,2,12,62,105.77472512540407,106.53579523507506,"[3, 0, 251]",251,a,0.23780900635756552,colour,0.5
129,23,0,2,2,13,63,107.05599143309519,107.87177534098737,"[44, 0, 210]",210,a,0.2925330444704741,colour,0.5
129,23,0,2,2,14,64,108.38546639378183,109.40781121561304,"[50, 0, 204]",204,a,0.4997973663266748,colour,0.5
129,23,0,2,2,15,65,109.91687379661016,110.73577302205376,"[8, 0, 246]",246,a,0.29598628147505224,colour,0.5
129,23,0,2,2,16,66,111.24492421816103,112.0237473056186,"[32, 0, 222]",222,a,0.2558026236947626,colour,0.5
129,23,0,2,2,17,67,112.54329011403024,113.35979278990999,"[76, 0, 178]",178,l,0.2933128585573286,colour,0.5
129,23,0,2,2,18,68,113.87129327422008,114.42374502122402,"[96, 0, 158]",158,l,0.029109511524438858,colour,0.5
129,23,0,2,2,19,69,114.93380718189292,116.33579027256928,"[77, 0, 177]",177,l,0.8786219505127519,colour,0.5
129,23,0,2,2,20,70,116.85699471505359,117.71971003524959,"[91, 0, 163]",163,l,0.33971769944764674,colour,0.5
129,23,0,2,2,21,71,118.23192849964835,119.02375006256625,"[73, 0, 181]",181,l,0.2684686933644116,colour,0.5
129,23,0,2,2,22,72,119.54450355190784,120.37579433713108,"[81, 0, 173]",173,l,0.3082644138485193,colour,0.5
129,23,0,2,2,23,73,120.89104304858483,121.64773989818059,"[52, 0, 202]",202,a,0.23411355423741043,colour,0.5
129,23,0,2,2,24,74,122.15591238834895,123.11189110018313,"[78, 0, 176]",176,l,0.4330114172771573,colour,0.5
129,23,0,2,2,25,75,123.62460699141957,124.42397463321686,"[33, 0, 221]",221,a,0.27602068008854985,colour,0.5
129,23,0,2,2,26,76,124.93709854828194,125.87175328563899,"[64, 0, 190]",190,a,0.4113006864208728,colour,0.5
129,23,0,2,2,27,77,126.3915481553413,127.20774481329136,"[51, 0, 203]",203,a,0.293544833548367,colour,0.5
129,23,0,2,2,28,78,127.71977305039763,128.51974563882686,"[11, 0, 243]",243,a,0.2767272386699915,colour,0.5
129,23,0,2,2,29,79,129.03222601045854,129.8957077539526,"[55, 0, 199]",199,a,0.340078855631873,colour,0.5
129,23,0,2,2,30,80,130.4072271429468,131.33571229106747,"[34, 0, 220]",220,a,0.405170087935403,colour,0.5
129,23,0,2,2,31,81,131.84709225874394,132.67974693072028,"[18, 0, 236]",236,a,0.3094396486412734,colour,0.5
129,23,0,2,2,32,82,133.19080276344903,133.9997140681371,"[90, 0, 164]",164,l,0.2855619799811393,colour,0.5
129,23,0,2,2,33,83,134.51895479718223,135.29572910047136,"[72, 0, 182]",182,l,0.25450293347239494,colour,0.5
129,23,0,2,2,34,84,135.81705051497556,136.63976452755742,"[35, 0, 219]",219,a,0.29920714953914285,colour,0.5
129,23,0,2,2,35,85,137.1609299792908,137.9277104542125,"[14, 0, 240]",240,a,0.2438450816553086,colour,0.5
129,23,0,2,2,36,86,138.44210767187178,139.25570928212255,"[15, 0, 239]",239,a,0.29029797157272696,colour,0.5
129,23,0,2,2,37,87,139.770219927188,140.57570280740038,"[23, 0, 231]",231,a,0.28216269984841347,colour,0.5
129,23,0,2,2,38,88,141.08274732413702,141.9117093011737,"[94, 0, 160]",160,l,0.30558193242177367,colour,0.5
129,23,0,2,2,39,89,142.4286767540034,143.18369030836038,"[47, 0, 207]",207,a,0.23182137380354106,colour,0.5
129,23,0,2,2,40,90,143.69420617888682,144.9837030689232,"[71, 0, 183]",183,l,0.7663759957067668,colour,0.5
129,23,0,2,2,41,91,145.49107487127185,146.29568971600384,"[89, 0, 165]",165,l,0.28155302722007036,colour,0.5
129,23,0,2,2,42,92,146.80363062489778,147.60771456593648,"[83, 0, 171]",171,l,0.28076572995632887,colour,0.5
129,23,0,2,2,43,93,148.11739351507276,148.91980991442688,"[56, 0, 198]",198,a,0.2789650687482208,colour,0.5
129,23,0,2,2,44,94,149.42991539812647,150.1916932479944,"[60, 0, 194]",194,a,0.23839662363752723,colour,0.5
129,23,0,2,2,45,95,150.7111852504313,151.50368462107144,"[38, 0, 216]",216,a,0.2694115594495088,colour,0.5
129,23,0,2,2,46,96,152.02381347166374,153.13568921177648,"[75, 0, 179]",179,a,0.5886571721639484,colour,0.5
129,23,0,2,2,47,97,153.65010494017042,154.6956866439432,"[12, 0, 242]",242,a,0.5222969697788358,colour,0.5
129,23,0,2,2,48,98,155.21259186929092,156.06365645327605,"[27, 0, 227]",227,a,0.32778575737029314,colour,0.5
129,23,0,2,2,49,99,156.571989238495,157.4957013737876,"[16, 0, 238]",238,a,0.4004656041506678,colour,0.5
129,23,0,2,2,50,100,158.00945386639796,158.7756683852058,"[98, 0, 156]",156,l,0.24293372314423323,colour,0.5
129,23,0,2,3,1,101,163.65065632364713,164.8876272267662,"[18, 0, 236]",236,a,0.7129130503162742,colour,0.5
129,23,0,2,3,2,102,165.4028373414185,166.1436488283798,"[27, 0, 227]",227,a,0.2175102112814784,colour,0.5
129,23,0,2,3,3,103,166.6528902151622,167.51965702371672,"[34, 0, 220]",220,a,0.3435903820209205,colour,0.5
129,23,0,2,3,4,104,168.02784369210713,168.79962797346525,"[7, 0, 247]",247,a,0.24866653769277036,colour,0.5
129,23,0,2,3,5,105,169.31047861278057,170.16762456437573,"[60, 0, 194]",194,l,0.3341463615652174,colour,0.5
129,23,0,2,3,6,106,170.68538561603054,171.51969877118245,"[66, 0, 188]",188,l,0.3117519151419401,colour,0.5
129,23,0,2,3,7,107,172.02906973310746,172.87970660091378,"[36, 0, 218]",218,a,0.3272906937636435,colour,0.5
129,23,0,2,3,8,108,173.38852617912926,174.27167026302777,"[91, 0, 163]",163,a,0.3597951529081911,colour,0.5
129,23,0,2,3,9,109,174.77914525289088,175.62367948540486,"[37, 0, 217]",217,a,0.319710350362584,colour,0.5
129,23,0,2,3,10,110,176.14007271174341,176.93571378779598,"[81, 0, 173]",173,l,0.2723252282012254,colour,0.5
129,23,0,2,3,11,111,177.4527202313766,178.2476968902629,"[23, 0, 231]",231,a,0.2718179551884532,colour,0.5
129,23,0,2,3,12,112,178.76516019459814,179.54362133797258,"[87, 0, 167]",167,l,0.25519413221627474,colour,0.5
129,23,0,2,3,13,113,180.06199048715644,180.81561770522967,"[46, 0, 208]",208,a,0.2303877763915807,colour,0.5
129,23,0,2,3,14,114,181.32897595851682,182.09564655041322,"[71, 0, 183]",183,l,0.2433441102039069,colour,0.5
129,23,0,2,3,15,115,182.61029504146427,183.39964995021,"[89, 0, 165]",165,l,0.26665542903356254,colour,0.5
129,23,0,2,3,16,116,183.9071080046706,184.6716187482234,"[85, 0, 169]",169,l,0.2412665756419301,colour,0.5
129,23,0,2,3,17,117,185.18833729089238,185.96761093731038,"[3, 0, 251]",251,a,0.255916838767007,colour,0.5
129,23,0,2,3,18,118,186.4865578575991,187.19962883996777,"[99, 0, 155]",155,l,0.1887512223329395,colour,0.5
129,23,0,2,3,19,119,187.69529752456583,188.2796743842773,"[78, 0, 176]",176,l,0.06159624760039151,colour,0.5
129,23,0,2,3,20,120,188.783221159596,189.63959753722884,"[64, 0, 190]",190,a,0.3329975144006312,colour,0.5
129,23,0,2,3,21,121,190.1595936617814,190.93571457546204,"[40, 0, 214]",214,a,0.25285587180405855,colour,0.5
129,23,0,2,3,22,122,191.45656849537045,192.2636598404497,"[61, 0, 193]",193,a,0.2838869553525001,colour,0.5
129,23,0,2,3,23,123,192.78466893546283,193.48764408333227,"[59, 0, 195]",195,a,0.17977272742427886,colour,0.5
129,23,0,2,3,24,124,194.00338037544861,194.76760085485876,"[24, 0, 230]",230,a,0.24092826223932207,colour,0.5
129,23,0,2,3,25,125,195.28693256224506,195.99958212999627,"[90, 0, 164]",164,l,0.1894309998024255,colour,0.5
129,23,0,2,3,26,126,196.50561958388425,197.287624548655,"[41, 0, 213]",213,a,0.2586331907659769,colour,0.5
129,23,0,2,3,27,127,197.80251131625846,198.70361435902305,"[93, 0, 161]",161,l,0.377818702487275,colour,0.5
129,23,0,2,3,28,128,199.2102555781603,199.943645441439,"[48, 0, 206]",206,a,0.21106335520744324,colour,0.5
129,23,0,2,3,29,129,200.46019226755016,201.22359157912433,"[10, 0, 244]",244,a,0.24022839893586934,colour,0.5
129,23,0,2,3,30,130,201.74146290752105,202.48758658207953,"[22, 0, 232]",232,a,0.22313983854837716,colour,0.5
129,23,0,2,3,31,131,203.00710891047493,203.72758851968683,"[19, 0, 235]",235,a,0.19717833353206515,colour,0.5
129,23,0,2,3,32,132,204.24280769284815,205.04758755862713,"[12, 0, 242]",242,a,0.28202130924910307,colour,0.5
129,23,0,2,3,33,133,205.5553169727791,206.10364397638477,"[39, 0, 215]",215,a,0.025044632609933615,colour,0.5
129,23,0,2,3,34,134,206.61779188970104,207.71159681887366,"[47, 0, 207]",207,a,0.5708092777058482,colour,0.5
129,23,0,2,3,35,135,208.22866549016908,208.97558000637218,"[95, 0, 159]",159,l,0.22368846507743,colour,0.5
129,23,0,2,3,36,136,209.49416222563013,210.24760551797226,"[14, 0, 240]",240,l,0.23065598495304585,colour,0.5
129,23,0,2,3,37,137,210.7598357978277,211.5035802521743,"[21, 0, 233]",233,a,0.2205625136848539,colour,0.5
129,23,0,2,3,38,138,212.00986582855694,212.81557516986504,"[69, 0, 185]",185,l,0.2825368531048298,colour,0.5
129,23,0,2,3,39,139,213.32369055249728,214.2076069675386,"[88, 0, 166]",166,l,0.3605714226141572,colour,0.5
129,23,0,2,3,40,140,214.71439902926795,215.4716212686617,"[38, 0, 216]",216,a,0.23426164011470973,colour,0.5
129,23,0,2,3,41,141,215.97977170348167,216.74356052838266,"[82, 0, 172]",172,l,0.24033198016695678,colour,0.5
129,23,0,2,3,42,142,217.26257715933025,217.9915768271312,"[6, 0, 248]",248,a,0.20574486604891717,colour,0.5
129,23,0,2,3,43,143,218.51262333756313,219.25553756556474,"[20, 0, 234]",234,a,0.2196866013109684,colour,0.5
129,23,0,2,3,44,144,219.7625088270288,220.5676104647573,"[52, 0, 202]",202,a,0.28242893936112523,colour,0.5
129,23,0,2,3,45,145,221.07506339927204,221.78355277748778,"[94, 0, 160]",160,l,0.18561542499810457,colour,0.5
129,23,0,2,3,46,146,222.2953608550597,223.0315517471172,"[4, 0, 250]",250,a,0.2128561397548765,colour,0.5
129,23,0,2,3,47,147,223.54528454737738,224.3195213044528,"[83, 0, 171]",171,l,0.25085237994790077,colour,0.5
129,23,0,2,3,48,148,224.82651895354502,225.6076035015285,"[79, 0, 175]",175,l,0.25807629339396954,colour,0.5
129,23,0,2,3,49,149,226.12341423053294,226.83155820611864,"[98, 0, 156]",156,l,0.18489665677770972,colour,0.5
129,23,0,2,3,50,150,227.3422721810639,228.03152260254137,"[97, 0, 157]",157,l,0.1649263291619718,colour,0.5
129,23,0,2,4,1,151,232.75019327970222,233.8555363053456,"[42, 0, 212]",212,a,0.5811043977737427,colour,0.5
129,23,0,2,4,2,152,234.37601331504993,235.25552968867123,"[51, 0, 203]",203,a,0.35627771937288344,colour,0.5
129,23,0,2,4,3,153,235.76668201340362,236.50359561201185,"[26, 0, 228]",228,a,0.21369148581288755,colour,0.5
129,23,0,2,4,4,154,237.01675733644515,238.1115256114863,"[88, 0, 166]",166,l,0.5716422605328262,colour,0.5
129,23,0,2,4,5,155,238.62747654947452,239.46355531387962,"[15, 0, 239]",239,a,0.31304963608272374,colour,0.5
129,23,0,2,4,6,156,239.97168645006604,240.62350146728568,"[7, 0, 247]",247,a,0.12847750773653388,colour,0.5
129,23,0,2,4,7,157,241.14239876298234,241.7997898440808,"[92, 0, 162]",162,l,0.13423789129592478,colour,0.5
129,23,0,2,4,8,158,242.31428512907587,243.00775914941914,"[47, 0, 207]",207,a,0.18248395971022546,colour,0.5
129,23,0,2,4,9,159,243.52079169242643,244.23957225237973,"[56, 0, 198]",198,a,0.19683056813664734,colour,0.5
129,23,0,2,4,10,160,244.7538048424758,245.48752317298204,"[16, 0, 238]",238,a,0.21074276510626078,colour,0.5
129,23,0,2,4,11,161,246.00378249166533,246.5675257879775,"[29, 0, 225]",225,a,0.04042429756373167,colour,0.5
129,23,0,2,4,12,162,247.0828816255089,247.80757341184653,"[77, 0, 177]",177,l,0.2012952002696693,colour,0.5
129,23,0,2,4,13,163,248.31724881613627,249.15951095428318,"[70, 0, 184]",184,l,0.3188151395879686,colour,0.5
129,23,0,2,4,14,164,249.67669384065084,250.4635305015836,"[10, 0, 244]",244,a,0.2642151624895632,colour,0.5
129,23,0,2,4,15,165,250.97375177568756,251.68755806749687,"[13, 0, 241]",241,a,0.19068264053203166,colour,0.5
129,23,0,2,4,16,166,252.19368886295706,252.8715429722797,"[23, 0, 231]",231,a,0.15468555968254805,colour,0.5
129,23,0,2,4,17,167,253.3811675705947,253.99952384084463,"[9, 0, 245]",245,a,0.09501049015671015,colour,0.5
129,23,0,2,4,18,168,254.49653790146112,255.11151930992492,"[11, 0, 243]",243,a,0.09197551687248051,colour,0.5
129,23,0,2,4,19,169,255.62141920626163,256.5115071795881,"[61, 0, 193]",193,a,0.3667713375762105,colour,0.5
129,23,0,2,4,20,170,257.0277412922587,257.59953203285113,"[2, 0, 252]",252,a,0.04869150766171515,colour,0.5
129,23,0,2,4,21,171,258.1074276496656,258.7114881174639,"[5, 0, 249]",249,a,0.08075131522491574,colour,0.5
129,23,0,2,4,22,172,259.2323038345203,259.8555075544864,"[87, 0, 167]",167,l,0.09974845079705119,colour,0.5
129,23,0,2,4,23,173,260.3730283603072,261.0475036697462,"[81, 0, 173]",173,l,0.1511657629162073,colour,0.5
129,23,0,2,4,24,174,261.560566538712,262.6714793269057,"[52, 0, 202]",202,a,0.5878104043658823,colour,0.5
129,23,0,2,4,25,175,263.18549924041145,265.0075275681447,"[69, 0, 185]",185,l,1.2990255868062377,colour,0.5
129,23,0,2,4,26,176,265.5150486379862,266.30347013287246,"[46, 0, 208]",208,a,0.26504184398800135,colour,0.5
129,23,0,2,4,27,177,266.81187223503366,267.5835076428484,"[83, 0, 171]",171,l,0.2482171601150185,colour,0.5
129,23,0,2,4,28,178,268.0932125856634,268.8074627411552,"[24, 0, 230]",230,a,0.1909532123245299,colour,0.5
129,23,0,2,4,29,179,269.32747461949475,269.92751825763844,"[21, 0, 233]",233,a,0.0748353626113385,colour,0.5
129,23,0,2,4,30,180,270.43879621918313,271.94348672172055,"[60, 0, 194]",194,a,0.9825266525149345,colour,0.5
129,23,0,2,4,31,181,272.45328658120707,273.29545065178536,"[34, 0, 220]",220,a,0.31892620399594307,colour,0.5
129,23,0,2,4,32,182,273.81265795673244,274.62350658723153,"[28, 0, 226]",226,a,0.287709619384259,colour,0.5
129,23,0,2,4,33,183,275.1408529195469,276.07151957787573,"[20, 0, 234]",234,a,0.40736223198473454,colour,0.5
129,23,0,2,4,34,184,276.57974956952967,277.19952486478724,"[80, 0, 174]",174,l,0.0958355963230133,colour,0.5
129,23,0,2,4,35,185,277.7209695528727,278.24746255227365,"[74, 0, 180]",180,l,0.003134616184979677,colour,0.5
129,23,0,2,4,36,186,278.7677847808227,279.6554888074752,"[78, 0, 176]",176,l,0.365040386794135,colour,0.5
129,23,0,2,4,37,187,280.1747224472929,280.8955116190482,"[32, 0, 222]",222,a,0.19755642535164952,colour,0.5
129,23,0,2,4,38,188,281.40909515181556,282.1914687559474,"[93, 0, 161]",161,l,0.2591810298617929,colour,0.5
129,23,0,2,4,39,189,282.7058746381663,283.4554582450073,"[91, 0, 163]",163,l,0.22629178338684142,colour,0.5
129,23,0,2,4,40,190,283.97152064112015,284.73548000119627,"[72, 0, 182]",182,l,0.2406545397825539,colour,0.5
129,23,0,2,4,41,191,285.2541689525824,286.00746967294253,"[79, 0, 175]",175,l,0.2300423737615347,colour,0.5
129,23,0,2,4,42,192,286.51972397742793,287.2554773071315,"[35, 0, 219]",219,a,0.21254027565009892,colour,0.5
129,23,0,2,4,43,193,287.76971147279255,288.43948111636564,"[71, 0, 183]",183,l,0.14645694638602436,colour,0.5
129,23,0,2,4,44,194,288.9574343645945,289.6474673571065,"[94, 0, 160]",160,l,0.16697747632861137,colour,0.5
129,23,0,2,4,45,195,290.1603029773105,290.87947265664116,"[19, 0, 235]",235,a,0.19596962188370526,colour,0.5
129,23,0,2,4,46,196,291.39613251644187,292.15176086337306,"[54, 0, 200]",200,a,0.23227232694625854,colour,0.5
129,23,0,2,4,47,197,292.66170171950944,293.38350071106106,"[67, 0, 187]",187,a,0.19860366033390164,colour,0.5
129,23,0,2,4,48,198,293.89612798718736,294.5914412655402,"[59, 0, 195]",195,a,0.17202263651415706,colour,0.5
129,23,0,2,4,49,199,295.100729519967,295.77542380732484,"[27, 0, 227]",227,a,0.15133984270505607,colour,0.5
129,23,0,2,4,50,200,296.2882381598465,297.1274365740828,"[30, 0, 224]",224,a,0.315881778486073,colour,0.5
129,23,0,2,5,1,201,324.81166310305707,326.03140208590776,"[75, 0, 179]",179,l,0.6957725023385137,colour,0.5
129,23,0,2,5,2,202,326.5468189693056,327.1513626854867,"[71, 0, 183]",183,l,0.08131648343987763,colour,0.5
129,23,0,2,5,3,203,327.6717380832415,328.61539612780325,"[84, 0, 170]",170,l,0.41796297626569867,colour,0.5
129,23,0,2,5,4,204,329.127177817747,330.1193564408459,"[10, 0, 244]",244,a,0.4689529659226537,colour,0.5
129,23,0,2,5,5,205,330.6259901768062,331.3513995495159,"[35, 0, 219]",219,a,0.20201908820308745,colour,0.5
129,23,0,2,5,6,206,331.86032113363035,332.51145873661153,"[2, 0, 252]",252,a,0.12798401922918856,colour,0.5
129,23,0,2,5,7,207,333.0323189580813,333.71937566041015,"[29, 0, 225]",225,a,0.16376960510388017,colour,0.5
129,23,0,2,5,8,208,334.2379633935634,334.8954056745861,"[52, 0, 202]",202,a,0.13412840222008526,colour,0.5
129,23,0,2,5,9,209,335.40976941538975,336.00737633160315,"[19, 0, 235]",235,a,0.07434266223572195,colour,0.5
129,23,0,2,5,10,210,336.51922655059025,337.23934106505476,"[50, 0, 204]",204,a,0.19689240190200508,colour,0.5
129,23,0,2,5,11,211,337.75355947669595,338.4633737511467,"[17, 0, 237]",237,a,0.18660240177996457,colour,0.5
129,23,0,2,5,12,212,338.9722303508315,339.5996131650172,"[9, 0, 245]",245,a,0.10408508335240185,colour,0.5
129,23,0,2,5,13,213,340.1128804399632,340.823379217647,"[27, 0, 227]",227,a,0.1872014405671507,colour,0.5
129,23,0,2,5,14,214,341.3316741937306,342.02338378620334,"[26, 0, 228]",228,a,0.16845439677126706,colour,0.5
129,23,0,2,5,15,215,342.53474445524625,343.2713378574699,"[74, 0, 180]",180,l,0.21385256852954626,colour,0.5
129,23,0,2,5,16,216,343.7847811814863,344.4953295837622,"[40, 0, 214]",214,a,0.18610497494228184,colour,0.5
129,23,0,2,5,17,217,345.0047048777342,345.7193118573632,"[33, 0, 221]",221,a,0.1913671437650919,colour,0.5
129,23,0,2,5,18,218,346.2390586778056,346.93536838539876,"[11, 0, 243]",243,a,0.17300134268589318,colour,0.5
129,23,0,2,5,19,219,347.44215178256854,348.071308870567,"[14, 0, 240]",240,a,0.1058502986561507,colour,0.5
129,23,0,2,5,20,220,348.58280305331573,349.2233418810647,"[8, 0, 246]",246,a,0.11726157669909298,colour,0.5
129,23,0,2,5,21,221,349.7389875887893,350.35134519892745,"[7, 0, 247]",247,a,0.08907996537163854,colour,0.5
129,23,0,2,5,22,222,350.8640433670953,352.0553348925896,"[51, 0, 203]",203,a,0.6679957637097687,colour,0.5
129,23,0,2,5,23,223,352.56853285082616,353.26331758871675,"[58, 0, 196]",196,a,0.17153505608439445,colour,0.5
129,23,0,2,5,24,224,353.7716035062913,354.50332819111645,"[42, 0, 212]",212,a,0.20838205539621413,colour,0.5
129,23,0,2,5,25,225,355.0217130938545,355.71138296066783,"[93, 0, 161]",161,l,0.16642688028514385,colour,0.5
129,23,0,2,5,26,226,356.22482864768244,357.0073200117331,"[59, 0, 195]",195,a,0.2593169065658003,colour,0.5
129,23,0,2,5,27,227,357.52311459276825,358.0873076606076,"[5, 0, 249]",249,a,0.0409244813490659,colour,0.5
129,23,0,2,5,28,228,358.6011893344112,359.5993528331164,"[21, 0, 233]",233,a,0.4749709244351834,colour,0.5
129,23,0,2,5,29,229,360.1169055404607,360.9513376369141,"[63, 0, 191]",191,l,0.3110902546904981,colour,0.5
129,23,0,2,5,30,230,361.462076817872,362.21529443678446,"[80, 0, 174]",174,l,0.22993918624706566,colour,0.5
129,23,0,2,5,31,231,362.7277318795677,363.3993774091359,"[55, 0, 199]",199,a,0.14881174871698022,colour,0.5
129,23,0,2,5,32,232,363.91513772588223,364.5672989329323,"[1, 0, 253]",253,a,0.12883236235938966,colour,0.5
129,23,0,2,5,33,233,365.08702094107866,365.79131232062355,"[86, 0, 168]",168,l,0.18094047927297652,colour,0.5
129,23,0,2,5,34,234,366.3057918518316,366.9673218547832,"[77, 0, 177]",177,l,0.13499013613909483,colour,0.5
129,23,0,2,5,35,235,367.4809317754116,368.1993685082998,"[36, 0, 218]",218,a,0.19529417715966702,colour,0.5
129,23,0,2,5,36,236,368.7152816369198,369.39126694970764,"[73, 0, 181]",181,l,0.1526584371458739,colour,0.5
129,23,0,2,5,37,237,369.9028320244979,370.6313173302915,"[62, 0, 192]",192,l,0.20530415303073823,colour,0.5
129,23,0,2,5,38,238,371.1527568984311,371.93530418840237,"[92, 0, 162]",162,l,0.259810394840315,colour,0.5
129,23,0,2,5,39,239,372.4509845545981,373.2313408823684,"[32, 0, 222]",222,a,0.2569526524748653,colour,0.5
129,23,0,2,5,40,240,373.747933000559,374.54328381246887,"[57, 0, 197]",197,a,0.27211373299360275,colour,0.5
129,23,0,2,5,41,241,375.0604103789665,375.83926891256124,"[37, 0, 217]",217,a,0.2557998667471111,colour,0.5
129,23,0,2,5,42,242,376.35862661362626,377.3432902714703,"[13, 0, 241]",241,a,0.4613706530071795,colour,0.5
129,23,0,2,5,43,243,377.8586819488555,378.7993759124074,"[70, 0, 184]",184,l,0.41751281078904867,colour,0.5
129,23,0,2,5,44,244,379.31176648754627,382.04737133765593,"[53, 0, 201]",201,a,2.212845112197101,colour,0.5
129,23,0,2,5,45,245,382.5631706449203,383.3433276868891,"[94, 0, 160]",160,l,0.25723819015547633,colour,0.5
129,23,0,2,5,46,246,383.8599729742855,384.54329996020533,"[48, 0, 206]",206,a,0.16018364229239523,colour,0.5
129,23,0,2,5,47,247,385.0631401219871,386.711299859453,"[66, 0, 188]",188,l,1.1249273847788572,colour,0.5
129,23,0,2,5,48,248,387.2207145381253,388.0315706518013,"[45, 0, 209]",209,a,0.2875638965051621,colour,0.5
129,23,0,2,5,49,249,388.5484388556797,389.2713098945096,"[69, 0, 185]",185,l,0.1996749199461192,colour,0.5
129,23,0,2,5,50,250,389.7836087034084,390.54329365864396,"[82, 0, 172]",172,l,0.2366499190684408,colour,0.5
129,23,0,2,6,1,251,395.3006478364114,396.2232260904275,"[28, 0, 226]",226,a,0.3985716011375189,colour,0.5
129,23,0,2,6,2,252,396.73891669651493,397.4792370584328,"[27, 0, 227]",227,a,0.21700530173256993,colour,0.5
129,23,0,2,6,3,253,397.98887189663947,398.67929046368226,"[76, 0, 178]",178,l,0.16709484229795635,colour,0.5
129,23,0,2,6,4,254,399.1937849612441,399.8632710361853,"[11, 0, 243]",243,a,0.14642150048166513,colour,0.5
129,23,0,2,6,5,255,400.3812920257915,401.16725080506876,"[56, 0, 198]",198,a,0.2626854667905718,colour,0.5
129,23,0,2,6,6,256,401.678195967339,402.4154104636982,"[78, 0, 176]",176,l,0.21412353427149355,colour,0.5
129,23,0,2,6,7,257,402.92819606582634,403.55126390908845,"[54, 0, 200]",200,a,0.09999499819241464,colour,0.5
129,23,0,2,6,8,258,404.0687181551475,404.73526141699404,"[57, 0, 197]",197,a,0.1432262323796749,colour,0.5
129,23,0,2,6,9,259,405.24199952185154,405.93524944386445,"[94, 0, 160]",160,l,0.16988523723557591,colour,0.5
129,23,0,2,6,10,260,406.4451284664683,407.0872470084578,"[8, 0, 246]",246,a,0.11928003467619419,colour,0.5
129,23,0,2,6,11,261,407.60140161728486,408.2312853501644,"[75, 0, 179]",179,l,0.10667107254266739,colour,0.5
129,23,0,2,6,12,262,408.7419441866223,409.4312576232478,"[4, 0, 250]",250,a,0.1659715948626399,colour,0.5
129,23,0,2,6,13,263,409.94513575267047,410.7032484766096,"[73, 0, 181]",181,l,0.23479727003723383,colour,0.5
129,23,0,2,6,14,264,411.2122015685309,415.0152516653761,"[85, 0, 169]",169,l,3.2798232580535114,colour,0.5
129,23,0,2,6,15,265,415.52610112307593,416.2392189728562,"[69, 0, 185]",185,l,0.19042349001392722,colour,0.5
129,23,0,2,6,16,266,416.76045295386575,417.47121875872836,"[32, 0, 222]",222,a,0.18778551346622407,colour,0.5
129,23,0,2,6,17,267,417.9791966890916,418.6872390527278,"[24, 0, 230]",230,a,0.18455952522344887,colour,0.5
129,23,0,2,6,18,268,419.1979108862579,419.9272803750355,"[79, 0, 175]",175,l,0.20602410263381898,colour,0.5
129,23,0,2,6,19,269,420.4336813483387,421.16750444169156,"[20, 0, 234]",234,a,0.21079475269652903,colour,0.5
129,23,0,2,6,20,270,421.6835916501004,422.45526368543506,"[23, 0, 231]",231,a,0.24856847012415528,colour,0.5
129,23,0,2,6,21,271,422.9649142776616,423.6311924813781,"[53, 0, 201]",201,a,0.14364370866678655,colour,0.5
129,23,0,2,6,22,272,424.1383992624469,424.91123038507067,"[91, 0, 163]",163,l,0.24956765631213784,colour,0.5
129,23,0,2,6,23,273,425.4195399333257,426.1992984036915,"[47, 0, 207]",207,a,0.2564056010451168,colour,0.5
129,23,0,2,6,24,274,426.7164537210483,427.4231668561697,"[71, 0, 183]",183,l,0.18444924848154187,colour,0.5
129,23,0,2,6,25,275,427.93515570880845,428.67922705458477,"[29, 0, 225]",225,a,0.22113595250993967,colour,0.5
129,23,0,2,6,26,276,429.1867378845345,430.0711997754406,"[97, 0, 157]",157,l,0.3611232000403106,colour,0.5
129,23,0,2,6,27,277,430.5772986691445,431.5992075041868,"[2, 0, 252]",252,a,0.49878636514768004,colour,0.5
129,23,0,2,6,28,278,432.10855050291866,433.015232760692,"[65, 0, 189]",189,a,0.38336089602671564,colour,0.5
129,23,0,2,6,29,279,433.53042239532806,434.21517707104795,"[66, 0, 188]",188,a,0.1614581262692809,colour,0.5
129,23,0,2,6,30,280,434.7335021093022,435.63127440121025,"[43, 0, 211]",211,a,0.3730819234624505,colour,0.5
129,23,0,2,6,31,281,436.14109080214985,436.90319239301607,"[84, 0, 170]",170,l,0.23879952752031386,colour,0.5
129,23,0,2,6,32,282,437.42237916518934,438.03919313661754,"[62, 0, 192]",192,a,0.09347488661296666,colour,0.5
129,23,0,2,6,33,283,438.54739398369566,440.2311593196355,"[33, 0, 221]",221,l,1.160434128018096,colour,0.5
129,23,0,2,6,34,284,440.7504725160543,442.0231628390029,"[80, 0, 174]",174,l,0.7477900348603725,colour,0.5
129,23,0,2,6,35,285,442.53323996579275,443.255175227765,"[17, 0, 237]",237,a,0.19874898926354945,colour,0.5
129,23,0,2,6,36,286,443.7675019998569,444.47936033201404,"[22, 0, 232]",232,a,0.18761261529289186,colour,0.5
129,23,0,2,6,37,287,444.9872157764621,445.7191771622747,"[12, 0, 242]",242,a,0.20897203567437828,colour,0.5
129,23,0,2,6,38,288,446.2372060287744,446.97519443160854,"[95, 0, 159]",159,l,0.2146587702445686,colour,0.5
129,23,0,2,6,39,289,447.48721951805055,448.2072209988255,"[14, 0, 240]",240,a,0.19712043832987547,colour,0.5
129,23,0,2,6,40,290,448.72155756433494,449.43915501236916,"[0, 0, 254]",254,a,0.19302287022583187,colour,0.5
129,23,0,2,6,41,291,449.95726737426594,450.6476241075434,"[15, 0, 239]",239,a,0.167064122390002,colour,0.5
129,23,0,2,6,42,292,451.16041246638633,452.1431395863183,"[83, 0, 171]",171,l,0.4602131412830204,colour,0.5
129,23,0,2,6,43,293,452.66035555582494,453.29512769845314,"[21, 0, 233]",233,a,0.11012509721331298,colour,0.5
129,23,0,2,6,44,294,453.8024045841303,454.3674136996269,"[26, 0, 228]",228,a,0.042128073051571846,colour,0.5
129,23,0,2,6,45,295,454.86811651685275,455.5271105489228,"[74, 0, 180]",180,l,0.14318369701504707,colour,0.5
129,23,0,2,6,46,296,456.0368513315916,456.6392017225735,"[46, 0, 208]",208,a,0.07906093075871468,colour,0.5
129,23,0,2,6,47,297,457.14855693047866,458.239161077654,"[67, 0, 187]",187,l,0.5680625992827117,colour,0.5
129,23,0,2,6,48,298,458.75816746847704,459.487106484361,"[49, 0, 205]",205,a,0.2059729027096182,colour,0.5
129,23,0,2,6,49,299,460.0081384223886,460.91917621716857,"[60, 0, 194]",194,a,0.38778299279510975,colour,0.5
129,23,0,2,6,50,300,461.4299760502763,462.19112059660256,"[30, 0, 224]",224,a,0.23783263680525124,colour,0.5
129,23,0,2,7,1,301,466.89790029171854,467.7271336282138,"[58, 0, 196]",196,a,0.30515185301192105,colour,0.5
129,23,0,2,7,2,302,468.243855321547,468.8951441613026,"[89, 0, 165]",165,l,0.1276008076965809,colour,0.5
129,23,0,2,7,3,303,469.4163423019927,470.25513466168195,"[52, 0, 202]",202,a,0.3157498403452337,colour,0.5
129,23,0,2,7,4,304,470.77567114215344,471.5191584152635,"[61, 0, 193]",193,a,0.22020253888331354,colour,0.5
129,23,0,2,7,5,305,472.0257248035632,472.6871264129877,"[65, 0, 189]",189,a,0.13815389666706324,colour,0.5
129,23,0,2,7,6,306,473.19763755751774,473.9991737122182,"[73, 0, 181]",181,l,0.2782652052119374,colour,0.5
129,23,0,2,7,7,307,474.51160839782096,475.2473109217826,"[74, 0, 180]",180,l,0.2126308602746576,colour,0.5
129,23,0,2,7,8,308,475.76144938287325,476.5751167652197,"[63, 0, 191]",191,a,0.29054806334897876,colour,0.5
129,23,0,2,7,9,309,477.08952579833567,477.87916112481616,"[90, 0, 164]",164,l,0.2662123527843505,colour,0.5
129,23,0,2,7,10,310,478.3884296868928,479.07912040129304,"[32, 0, 222]",222,a,0.16747529711574316,colour,0.5
129,23,0,2,7,11,311,479.5915121578146,480.30311685358174,"[19, 0, 235]",235,a,0.1883207494392991,colour,0.5
129,23,0,2,7,12,312,480.81029252079315,481.5351111255586,"[67, 0, 187]",187,l,0.2015598644502461,colour,0.5
129,23,0,2,7,13,313,482.04462741618045,482.7831211227458,"[13, 0, 241]",241,a,0.21533579053357244,colour,0.5
129,23,0,2,7,14,314,483.29501308943145,484.0310842525214,"[41, 0, 213]",213,a,0.2127994259353727,colour,0.5
129,23,0,2,7,15,315,484.5448780988809,485.2631324813701,"[97, 0, 157]",157,l,0.19503620825707912,colour,0.5
129,23,0,2,7,16,316,485.77932169567794,486.4550718825776,"[91, 0, 163]",163,l,0.15242488658986986,colour,0.5
129,23,0,2,7,17,317,486.9686538402457,487.7111096319277,"[46, 0, 208]",208,a,0.21919311303645372,colour,0.5
129,23,0,2,7,18,318,488.21863306476735,488.9830996976234,"[48, 0, 206]",206,a,0.24112203414551914,colour,0.5
129,23,0,2,7,19,319,489.4999734153971,490.15908520738594,"[14, 0, 240]",240,a,0.13624414009973407,colour,0.5
129,23,0,2,7,20,320,490.6718093692325,491.319109342061,"[11, 0, 243]",243,a,0.12395064788870513,colour,0.5
129,23,0,2,7,21,321,491.8280238371808,492.4870753705036,"[95, 0, 159]",159,l,0.13599404809065163,colour,0.5
129,23,0,2,7,22,322,492.99994919402525,493.77507998025976,"[62, 0, 192]",192,a,0.2518744091503322,colour,0.5
129,23,0,2,7,23,323,494.2811646955088,494.9671048459131,"[8, 0, 246]",246,a,0.16258058557286859,colour,0.5
129,23,0,2,7,24,324,495.49204924493097,496.1830790601671,"[7, 0, 247]",247,a,0.17397374706342816,colour,0.5
129,23,0,2,7,25,325,496.7045922772959,497.4870753705036,"[57, 0, 197]",197,a,0.25927594653330743,colour,0.5
129,23,0,2,7,26,326,498.0012291916646,498.6710744537413,"[33, 0, 221]",221,a,0.14652429427951574,colour,0.5
129,23,0,2,7,27,327,499.18872325937264,500.02303444524296,"[85, 0, 169]",169,l,0.3109622548799962,colour,0.5
129,23,0,2,7,28,328,500.5325424654875,501.21505734184757,"[56, 0, 198]",198,a,0.159254954662174,colour,0.5
129,23,0,2,7,29,329,501.73558121942915,502.3030865273904,"[81, 0, 173]",173,l,0.04302919143810868,colour,0.5
129,23,0,2,7,30,330,502.8149107526988,503.8075151226949,"[3, 0, 251]",251,a,0.4699001640547067,colour,0.5
129,23,0,2,7,31,331,504.31481603276916,505.12709274701774,"[55, 0, 199]",199,a,0.2894618376158178,colour,0.5
129,23,0,2,7,32,332,505.63379501202144,506.38303518574685,"[40, 0, 214]",214,a,0.2260330270510167,colour,0.5
129,23,0,2,7,33,333,506.8993850890547,507.607045422541,"[12, 0, 242]",242,a,0.184321642620489,colour,0.5
129,23,0,2,7,34,334,508.11806817236356,508.82307004905306,"[77, 0, 177]",177,l,0.1816962689626962,colour,0.5
129,23,0,2,7,35,335,509.33683278155513,510.0471440886613,"[60, 0, 194]",194,a,0.18692299164831638,colour,0.5
129,23,0,2,7,36,336,510.55555800604634,511.32704611564986,"[16, 0, 238]",238,a,0.24810215714387596,colour,0.5
129,23,0,2,7,37,337,511.83681840612553,512.3750369723421,"[98, 0, 156]",156,l,0.014992515090852976,colour,0.5
129,23,0,2,7,38,338,512.8859293591231,513.4630960901268,"[4, 0, 250]",250,a,0.05387293850071728,colour,0.5
129,23,0,2,7,39,339,513.979675211478,514.8870447294321,"[86, 0, 168]",168,l,0.3840158609673381,colour,0.5
129,23,0,2,7,40,340,515.4015518298838,516.1670452177059,"[1, 0, 253]",253,a,0.24218502291478217,colour,0.5
129,23,0,2,7,41,341,516.6827693006489,517.7830518060364,"[28, 0, 226]",226,a,0.5754420817829669,colour,0.5
129,23,0,2,7,42,342,518.2934637013823,518.9190407341812,"[36, 0, 218]",218,a,0.10233837855048478,colour,0.5
129,23,0,2,7,43,343,519.4340350215789,520.1509995600209,"[2, 0, 252]",252,a,0.1934580693487078,colour,0.5
129,23,0,2,7,44,344,520.6684660152532,521.6870559146628,"[54, 0, 200]",200,a,0.4952645990997553,colour,0.5
129,23,0,2,7,45,345,522.2031490306836,522.8790154021699,"[15, 0, 239]",239,a,0.15264701563864946,colour,0.5
129,23,0,2,7,46,346,523.3906202553771,524.0549796440173,"[59, 0, 195]",195,a,0.14108883286826313,colour,0.5
129,23,0,2,7,47,347,524.5623884678353,525.1110159754753,"[22, 0, 232]",232,a,0.025382158113643527,colour,0.5
129,23,0,2,7,48,348,525.6249642092735,526.2070280145854,"[34, 0, 220]",220,a,0.05868888064287603,colour,0.5
129,23,0,2,7,49,349,526.7187151815742,527.351033273153,"[43, 0, 211]",211,a,0.10902390512637794,colour,0.5
129,23,0,2,7,50,350,527.8593629077077,528.4710635836236,"[42, 0, 212]",212,a,0.08844232955016196,colour,0.5
129,23,0,2,8,1,351,533.2045404866803,534.030999182025,"[97, 0, 157]",157,l,0.3026273036375642,colour,0.5
129,23,0,2,8,2,352,534.5479426104575,535.6471865451895,"[16, 0, 238]",238,a,0.5760647512506694,colour,0.5
129,23,0,2,8,3,353,536.1572140476201,536.9109838376753,"[41, 0, 213]",213,a,0.23045669915154576,colour,0.5
129,23,0,2,8,4,354,537.422875804361,538.0949746500701,"[56, 0, 198]",198,a,0.14890508982352912,colour,0.5
129,23,0,2,8,5,355,538.6103399398271,539.2550003603101,"[17, 0, 237]",237,a,0.12202710681594908,colour,0.5
129,23,0,2,8,6,356,539.766617028974,540.7830163598992,"[99, 0, 155]",155,l,0.49320360575802624,colour,0.5
129,23,0,2,8,7,357,541.2992020298261,542.0309960311279,"[46, 0, 208]",208,a,0.2085900055244565,colour,0.5
129,23,0,2,8,8,358,542.5493423370644,543.159021404339,"[49, 0, 205]",205,l,0.08820523438043892,colour,0.5
129,23,0,2,8,9,359,543.6735324431211,544.391008980805,"[94, 0, 160]",160,l,0.19418116961605847,colour,0.5
129,23,0,2,8,10,360,544.9086211589165,545.662994714221,"[24, 0, 230]",230,a,0.2310663720127195,colour,0.5
129,23,0,2,8,11,361,546.1757464455441,547.0790250906721,"[78, 0, 176]",176,l,0.3799809142947197,colour,0.5
129,23,0,2,8,12,362,547.5976533899084,548.3509537165519,"[6, 0, 248]",248,a,0.22997935861349106,colour,0.5
129,23,0,2,8,13,363,548.8633757990319,549.6149936176371,"[88, 0, 166]",166,l,0.22844139207154512,colour,0.5
129,23,0,2,8,14,364,550.1288808053359,551.2149742406327,"[40, 0, 214]",214,a,0.5628898332361132,colour,0.5
129,23,0,2,8,15,365,551.7224921595771,552.4309913837351,"[75, 0, 179]",179,l,0.18364501604810357,colour,0.5
129,23,0,2,8,16,366,552.9428939842619,553.6789832643699,"[87, 0, 167]",167,l,0.2133011850528419,colour,0.5
129,23,0,2,8,17,367,554.1919630321208,555.1992361762095,"[74, 0, 180]",180,l,0.4845189198385924,colour,0.5
129,23,0,2,8,18,368,555.7077233488671,556.5110314143822,"[43, 0, 211]",211,l,0.2778500923886895,colour,0.5
129,23,0,2,8,19,369,557.0223952340893,558.8070046990179,"[37, 0, 217]",217,l,1.2611439556349069,colour,0.5
129,23,0,2,8,20,370,559.3193897600286,560.4390238618944,"[53, 0, 201]",201,a,0.5965443211607635,colour,0.5
129,23,0,2,8,21,371,560.9599270124454,561.5749730116222,"[63, 0, 191]",191,a,0.09180380031466484,colour,0.5
129,23,0,2,8,22,372,562.0850146925077,562.8949759891257,"[84, 0, 170]",170,l,0.286818346939981,colour,0.5
129,23,0,2,8,23,373,563.4131379753817,563.9989437065087,"[52, 0, 202]",202,a,0.06242923089303076,colour,0.5
129,23,0,2,8,24,374,564.5081807607785,565.2309785445686,"[38, 0, 216]",216,a,0.19952289573848248,colour,0.5
129,23,0,2,8,25,375,565.7425440133084,566.3669635341503,"[81, 0, 173]",173,l,0.1022714248392731,colour,0.5
129,23,0,2,8,26,376,566.88305743807,567.6069603520446,"[30, 0, 224]",224,a,0.20044291857630014,colour,0.5
129,23,0,2,8,27,377,568.1188499554992,568.8229109353852,"[90, 0, 164]",164,l,0.18074631341733038,colour,0.5
129,23,0,2,8,28,378,569.3375133464579,570.023028537631,"[47, 0, 207]",207,a,0.16334031359292567,colour,0.5
129,23,0,2,8,29,379,570.5406021187082,571.2629587955307,"[11, 0, 243]",243,a,0.1977060865610838,colour,0.5
129,23,0,2,8,30,380,571.7792358375154,572.5109372851439,"[60, 0, 194]",194,a,0.2083462153095752,colour,0.5
129,23,0,2,8,31,381,573.0292674435768,573.7589827287011,"[19, 0, 235]",235,a,0.20646639098413289,colour,0.5
129,23,0,2,8,32,382,574.2793187419884,575.0069454645272,"[48, 0, 206]",206,a,0.20441288081929088,colour,0.5
129,23,0,2,8,33,383,575.5136662404984,576.2549605818931,"[68, 0, 186]",186,a,0.21575562981888652,colour,0.5
129,23,0,2,8,34,384,576.7660053870641,577.4949640950654,"[64, 0, 190]",190,l,0.20567003544420004,colour,0.5
129,23,0,2,8,35,385,578.015927110333,578.6629687203094,"[1, 0, 253]",253,l,0.12390378024429083,colour,0.5
129,23,0,2,8,36,386,579.1720328766387,580.2069224640727,"[61, 0, 193]",193,a,0.5114792166277766,colour,0.5
129,23,0,2,8,37,387,580.7190562516917,582.230935221538,"[71, 0, 183]",183,l,0.9886966354679316,colour,0.5
129,23,0,2,8,38,388,582.7501397167798,583.4149461199995,"[9, 0, 245]",245,a,0.1414385677780956,colour,0.5
129,23,0,2,8,39,389,583.9221729871351,584.5669365951326,"[5, 0, 249]",249,a,0.12055097403936088,colour,0.5
129,23,0,2,8,40,390,585.0790562045295,585.72691307473,"[82, 0, 172]",172,l,0.12452251161448658,colour,0.5
129,23,0,2,8,41,391,586.2353289613966,586.9109546930995,"[91, 0, 163]",163,l,0.1523496622685343,colour,0.5
129,23,0,2,8,42,392,587.4228415398393,588.0869673781563,"[31, 0, 223]",223,a,0.14083874109201133,colour,0.5
129,23,0,2,8,43,393,588.594643229153,589.2789564039558,"[57, 0, 197]",197,a,0.17535417526960373,colour,0.5
129,23,0,2,8,44,394,589.7992065588478,590.5669629827607,"[72, 0, 182]",182,l,0.24458511709235609,colour,0.5
129,23,0,2,8,45,395,591.0809466626961,591.7988985718694,"[4, 0, 250]",250,a,0.19481092877686024,colour,0.5
129,23,0,2,8,46,396,592.3101056411397,593.0470216027461,"[0, 0, 254]",254,a,0.2137627718038857,colour,0.5
129,23,0,2,8,47,397,593.5601628471632,594.238874358125,"[32, 0, 222]",222,a,0.16454941919073462,colour,0.5
129,23,0,2,8,48,398,594.7541010142304,595.4392440214287,"[70, 0, 184]",184,l,0.16190632223151624,colour,0.5
129,23,0,2,8,49,399,595.957187817432,596.6389197292738,"[25, 0, 229]",229,a,0.15878549101762474,colour,0.5
129,23,0,2,8,50,400,597.1550927958451,597.8549297831487,"[3, 0, 251]",251,a,0.17652429011650383,colour,0.5
129,23,0,2,9,1,401,628.1901426783297,630.3188419211656,"[6, 0, 248]",248,a,1.6046721099410206,colour,0.5
129,23,0,2,9,2,402,630.8315211846493,631.5268273740076,"[28, 0, 226]",226,a,0.17204075353220105,colour,0.5
129,23,0,2,9,3,403,632.0346044432372,632.630879374221,"[45, 0, 209]",209,a,0.07397402287460864,colour,0.5
129,23,0,2,9,4,404,633.1453329117503,633.7588228273671,"[99, 0, 155]",155,l,0.09022329840809107,colour,0.5
129,23,0,2,9,5,405,634.2700338352006,634.8628295355011,"[55, 0, 199]",199,a,0.06941959401592612,colour,0.5
129,23,0,2,9,6,406,635.3794318935834,636.0308514898643,"[22, 0, 232]",232,a,0.12818921264261007,colour,0.5
129,23,0,2,9,7,407,636.5513052628376,637.2148155209143,"[20, 0, 234]",234,a,0.13876317581161857,colour,0.5
129,23,0,2,9,8,408,637.7246717002708,639.0148070137948,"[66, 0, 188]",188,a,0.7668572748079896,colour,0.5
129,23,0,2,9,9,409,639.5212595807388,640.1507608897518,"[15, 0, 239]",239,a,0.10626265476457775,colour,0.5
129,23,0,2,9,10,410,640.6619447222911,641.3028600662947,"[23, 0, 231]",231,a,0.11777633288875222,colour,0.5
129,23,0,2,9,11,411,641.8179752640426,642.3988169669174,"[3, 0, 251]",251,a,0.05751876556314528,colour,0.5
129,23,0,2,9,12,412,642.9118644762784,643.590880429605,"[47, 0, 207]",207,a,0.15579974837601185,colour,0.5
129,23,0,2,9,13,413,644.0993010425009,644.7188364861067,"[93, 0, 161]",161,l,0.09634877694770694,colour,0.5
129,23,0,2,9,14,414,645.2256230339408,645.8788031192962,"[32, 0, 222]",222,a,0.12989495741203427,colour,0.5
129,23,0,2,9,15,415,646.3974778924603,646.9908226132393,"[19, 0, 235]",235,a,0.06995758693665266,colour,0.5
129,23,0,2,9,16,416,647.5069381785579,648.182847085176,"[35, 0, 219]",219,a,0.15259739104658365,colour,0.5
129,23,0,2,9,17,417,648.694303852506,649.2788295857608,"[26, 0, 228]",228,a,0.060360360657796264,colour,0.5
129,23,0,2,9,18,418,649.7893111917656,650.3907939412165,"[44, 0, 210]",210,a,0.07893805089406669,colour,0.5
129,23,0,2,9,19,419,650.8988616685383,651.5111928908154,"[83, 0, 171]",171,l,0.08964592101983726,colour,0.5
129,23,0,2,9,20,420,652.0238445855211,652.6868125181645,"[4, 0, 250]",250,a,0.13996834284625947,colour,0.5
129,23,0,2,9,21,421,653.1956675425172,653.8067971423734,"[91, 0, 163]",163,l,0.08829345577396452,colour,0.5
129,23,0,2,9,22,422,654.3221175337676,654.9029549043626,"[54, 0, 200]",200,a,0.057584931841120124,colour,0.5
129,23,0,2,9,23,423,655.4158988320269,656.6627788869664,"[62, 0, 192]",192,a,0.7259666642639786,colour,0.5
129,23,0,2,9,24,424,657.1804170587566,657.7107996756677,"[63, 0, 191]",191,a,0.007063618395477533,colour,0.5
129,23,0,2,9,25,425,658.2295654269401,658.8228148370981,"[27, 0, 227]",227,a,0.07101269881241024,colour,0.5
129,23,0,2,9,26,426,659.339022168424,659.8948034849018,"[74, 0, 180]",180,l,0.03356035891920328,colour,0.5
129,23,0,2,9,27,427,660.4014825129416,660.9268018528819,"[52, 0, 202]",202,a,0.002075171796604991,colour,0.5
129,23,0,2,9,28,428,661.4484017160721,662.3747585234232,"[59, 0, 195]",195,a,0.4029677042271942,colour,0.5
129,23,0,2,9,29,429,662.8875094670802,663.7507584479172,"[10, 0, 244]",244,a,0.33981143473647535,colour,0.5
129,23,0,2,9,30,430,664.2625425008591,664.9828303074464,"[78, 0, 176]",176,l,0.19696841412223876,colour,0.5
129,23,0,2,9,31,431,665.4969081161544,666.4147440772504,"[64, 0, 190]",190,a,0.39473554654978216,colour,0.5
129,23,0,2,9,32,432,666.934398737736,667.5668082016055,"[96, 0, 158]",158,l,0.10907156066969037,colour,0.5
129,23,0,2,9,33,433,668.0750515838154,668.67876192322,"[81, 0, 173]",173,l,0.08075446612201631,colour,0.5
129,23,0,2,9,34,434,669.1857702061534,669.7987347319722,"[94, 0, 160]",160,l,0.08965694857761264,colour,0.5
129,23,0,2,9,35,435,670.310794870602,671.0387610881589,"[71, 0, 183]",183,a,0.20500798127613962,colour,0.5
129,23,0,2,9,36,436,671.5451077108737,672.1987781338394,"[13, 0, 241]",241,a,0.1303234612569213,colour,0.5
129,23,0,2,9,37,437,672.7169921076857,673.6467820659745,"[0, 0, 254]",254,a,0.40651152562350035,colour,0.5
129,23,0,2,9,38,438,674.1567469467409,674.8147650298197,"[43, 0, 211]",211,a,0.1347676133736968,colour,0.5
129,23,0,2,9,39,439,675.3285529685672,676.0147396661341,"[61, 0, 193]",193,a,0.16290629585273564,colour,0.5
129,23,0,2,9,40,440,676.5316086579114,677.2147355701309,"[24, 0, 230]",230,a,0.15982642443850636,colour,0.5
129,23,0,2,9,41,441,677.7347671408206,678.3987389856484,"[85, 0, 169]",169,l,0.14034328353591263,colour,0.5
129,23,0,2,9,42,442,678.9070477462374,679.519054440083,"[70, 0, 184]",184,l,0.08873771340586245,colour,0.5
129,23,0,2,9,43,443,680.0319924601354,680.6707983680535,"[84, 0, 170]",170,l,0.11543373996391892,colour,0.5
129,23,0,2,9,44,444,681.1883428045548,681.8787790948991,"[7, 0, 247]",247,a,0.1672571066301316,colour,0.5
129,23,0,2,9,45,445,682.3927927068435,683.0307309732307,"[25, 0, 229]",229,a,0.11463502142578363,colour,0.5
129,23,0,2,9,46,446,683.5490560114849,684.182726174593,"[38, 0, 216]",216,a,0.11064576078206301,colour,0.5
129,23,0,2,9,47,447,684.6893091045786,685.3507347384002,"[90, 0, 164]",164,l,0.13831576728262007,colour,0.5
129,23,0,2,9,48,448,685.8609910649247,687.2551370246802,"[69, 0, 185]",185,a,0.8711676374077797,colour,0.5
129,23,0,2,9,49,449,687.76860082848,688.542735185707,"[1, 0, 253]",253,a,0.25087797991000116,colour,0.5
129,23,0,2,9,50,450,689.0499273946043,689.6547479841392,"[77, 0, 177]",177,l,0.08162801526486874,colour,0.5
129,23,0,2,10,1,451,694.3159542460926,695.0467305509374,"[46, 0, 208]",208,a,0.20659123989753425,colour,0.5
129,23,0,2,10,2,452,695.5667644846253,696.5667144663166,"[84, 0, 170]",170,l,0.47652503848075867,colour,0.5
129,23,0,2,10,3,453,697.0825602475088,697.7107138172723,"[56, 0, 198]",198,a,0.10493460786528885,colour,0.5
129,23,0,2,10,4,454,698.2230366508011,698.7987189781852,"[4, 0, 250]",250,a,0.05231961188837886,colour,0.5
129,23,0,2,10,5,455,699.3187174659688,699.9986912515014,"[26, 0, 228]",228,a,0.15659059002064168,colour,0.5
129,23,0,2,10,6,456,700.5062359520234,701.1827462606598,"[1, 0, 253]",253,a,0.15322203002870083,colour,0.5
129,23,0,2,10,7,457,701.6937107213307,702.294752363814,"[85, 0, 169]",169,l,0.07779511134140193,colour,0.5
129,23,0,2,10,8,458,702.8031209888868,703.4627128783613,"[76, 0, 178]",178,l,0.13629534002393484,colour,0.5
129,23,0,2,10,9,459,703.9750172011554,704.5107423316222,"[36, 0, 218]",218,a,0.01248056860640645,colour,0.5
129,23,0,2,10,10,460,705.0218493642751,705.6147108366713,"[51, 0, 203]",203,a,0.06955074449069798,colour,0.5
129,23,0,2,10,11,461,706.1325695619453,706.6627375332173,"[24, 0, 230]",230,a,0.00688678165897727,colour,0.5
129,23,0,2,10,12,462,707.1794383528177,707.8227459141053,"[92, 0, 162]",162,l,0.12003700574859977,colour,0.5
129,23,0,2,10,13,463,708.3356992942281,708.9746993680019,"[19, 0, 235]",235,a,0.11566532123833895,colour,0.5
129,23,0,2,10,14,464,709.4918838297017,710.1508053941652,"[93, 0, 161]",161,l,0.1360424910672009,colour,0.5
129,23,0,2,10,15,465,710.6645937266294,711.3107113754377,"[34, 0, 220]",220,a,0.12225632485933602,colour,0.5
129,23,0,2,10,16,466,711.8214521317277,712.4229856871534,"[45, 0, 209]",209,a,0.07826024270616472,colour,0.5
129,23,0,2,10,17,467,712.9307812673505,713.6307238051668,"[71, 0, 183]",183,a,0.1765715517103672,colour,0.5
129,23,0,2,10,18,468,714.1495403626468,714.6866939705797,"[83, 0, 171]",171,l,0.013838547747582197,colour,0.5
129,23,0,2,10,19,469,715.1976848188788,715.8306759924162,"[28, 0, 226]",226,a,0.11024679546244442,colour,0.5
129,23,0,2,10,20,470,716.3383774433751,716.9827464183327,"[11, 0, 243]",243,a,0.12143003707751632,colour,0.5
129,23,0,2,10,21,471,717.4946206617169,718.022709522862,"[8, 0, 246]",246,a,0.005226723151281476,colour,0.5
129,23,0,2,10,22,472,718.5414961481001,719.5907429775689,"[3, 0, 251]",251,a,0.5265268697403371,colour,0.5
129,23,0,2,10,23,473,720.1053690193221,720.8706926598679,"[96, 0, 158]",158,l,0.242791545111686,colour,0.5
129,23,0,2,10,24,474,721.3865695549175,722.1109478403814,"[15, 0, 239]",239,a,0.2011317543219775,colour,0.5
129,23,0,2,10,25,475,722.6098440883216,723.1748366623651,"[55, 0, 199]",199,a,0.0418271750677377,colour,0.5
129,23,0,2,10,26,476,723.687856208533,724.318664296763,"[9, 0, 245]",245,a,0.10746230790391564,colour,0.5
129,23,0,2,10,27,477,724.8284814856015,725.4707166056614,"[87, 0, 167]",167,l,0.11955218180082738,colour,0.5
129,23,0,2,10,28,478,725.9846297872718,726.6467119615991,"[49, 0, 205]",205,a,0.13866077596321702,colour,0.5
129,23,0,2,10,29,479,727.1566752670333,728.55071488861,"[72, 0, 182]",182,l,0.8706201924942434,colour,0.5
129,23,0,2,10,30,480,729.0646205870435,729.8387884211261,"[54, 0, 200]",200,a,0.25082362932153046,colour,0.5
129,23,0,2,10,31,481,730.3460066237021,731.0707937206607,"[60, 0, 194]",194,a,0.20212227571755648,colour,0.5
129,23,0,2,10,32,482,731.5803139498457,732.2706742279697,"[97, 0, 157]",157,l,0.16826928942464292,colour,0.5
129,23,0,2,10,33,483,732.782439770177,733.4866866450757,"[58, 0, 196]",196,a,0.18103775917552412,colour,0.5
129,23,0,2,10,34,484,734.0010783488397,734.6549850790761,"[88, 0, 166]",166,l,0.12813486205413938,colour,0.5
129,23,0,2,10,35,485,735.1753277876414,735.8546879622154,"[94, 0, 160]",160,l,0.15609237574972212,colour,0.5
129,23,0,2,10,36,486,736.3616458328906,736.9986762853805,"[79, 0, 175]",175,l,0.11373272142373025,colour,0.5
129,23,0,2,10,37,487,737.5178291867487,738.1586366172414,"[40, 0, 214]",214,a,0.11749394563958049,colour,0.5
129,23,0,2,10,38,488,738.6739908792078,739.3586447304115,"[16, 0, 238]",238,a,0.15896508423611522,colour,0.5
129,23,0,2,10,39,489,739.8796321640257,740.6627158715855,"[81, 0, 173]",173,l,0.2598060625605285,colour,0.5
129,23,0,2,10,40,490,741.1765223210678,741.8787113535218,"[13, 0, 241]",241,a,0.17904568882659078,colour,0.5
129,23,0,2,10,41,491,742.3951632627286,743.1266477017198,"[20, 0, 234]",234,a,0.2081126649864018,colour,0.5
129,23,0,2,10,42,492,743.6451984134037,744.3026505406015,"[98, 0, 156]",156,l,0.14634115621447563,colour,0.5
129,23,0,2,10,43,493,744.819233600283,745.3510120054707,"[32, 0, 222]",222,a,0.008442077320069075,colour,0.5
129,23,0,2,10,44,494,745.8817419942934,746.5906949285418,"[2, 0, 252]",252,a,0.1855618618428707,colour,0.5
129,23,0,2,10,45,495,747.1005920679308,747.8532201000489,"[57, 0, 197]",197,a,0.22927516279742122,colour,0.5
129,23,0,2,10,46,496,748.3676295268815,749.0226173629053,"[78, 0, 176]",176,l,0.13175430172123015,colour,0.5
129,23,0,2,10,47,497,749.5395391299389,750.5827002595179,"[47, 0, 207]",207,a,0.5198145618196577,colour,0.5
129,23,0,2,10,48,498,751.1020331482869,752.07058970863,"[53, 0, 201]",201,a,0.44525961694307625,colour,0.5
129,23,0,2,10,49,499,752.586433126824,755.3666539716069,"[22, 0, 232]",232,a,2.2558463402092457,colour,0.5
129,23,0,2,10,50,500,755.8846462105867,756.5666282142047,"[44, 0, 210]",210,a,0.15872798953205347,colour,0.5
129,23,0,2,11,1,501,761.3527201132383,761.9106191368774,"[74, 0, 180]",180,l,0.03412946569733322,colour,0.5
129,23,0,2,11,2,502,762.4316219303291,763.0305954904761,"[71, 0, 183]",183,l,0.07561163231730461,colour,0.5
129,23,0,2,11,3,503,763.5409845428076,764.1745940535329,"[47, 0, 207]",207,a,0.11023340444080532,colour,0.5
129,23,0,2,11,4,504,764.6829587402754,765.5585811638739,"[28, 0, 226]",226,a,0.3522727049421519,colour,0.5
129,23,0,2,11,5,505,766.0736487063114,766.7426342037506,"[10, 0, 244]",244,a,0.1459992981981486,colour,0.5
129,23,0,2,11,6,506,767.2611601033714,767.8226092497353,"[17, 0, 237]",237,a,0.03837196878157556,colour,0.5
129,23,0,2,11,7,507,768.339251780184,768.9106297707185,"[68, 0, 186]",186,l,0.048051508609205484,colour,0.5
129,23,0,2,11,8,508,769.417425771011,770.1986335925758,"[43, 0, 211]",211,a,0.25789591227658093,colour,0.5
129,23,0,2,11,9,509,770.7143789432012,771.4225756940432,"[12, 0, 242]",242,a,0.1835241054650396,colour,0.5
129,23,0,2,11,10,510,771.9345413099509,772.6545349138323,"[69, 0, 185]",185,l,0.1967876390554011,colour,0.5
129,23,0,2,11,11,511,773.1689388267696,775.4945722187404,"[54, 0, 200]",200,l,1.8024136424064636,colour,0.5
129,23,0,2,11,12,512,776.0139712737873,776.7746120917145,"[88, 0, 166]",166,l,0.23742461297661066,colour,0.5
129,23,0,2,11,13,513,777.2952931134496,778.4945875788108,"[93, 0, 161]",161,l,0.6760380880441517,colour,0.5
129,23,0,2,11,14,514,779.013941735262,779.8545662639663,"[99, 0, 155]",155,l,0.31733979447744787,colour,0.5
129,23,0,2,11,15,515,780.3733509199228,781.1185959251598,"[77, 0, 177]",177,l,0.22084450698457658,colour,0.5
129,23,0,2,11,16,516,781.6400918131694,782.3585395738482,"[26, 0, 228]",228,a,0.19511891575530171,colour,0.5
129,23,0,2,11,17,517,782.8744148933329,783.73460684577,"[64, 0, 190]",190,l,0.3368800429161638,colour,0.5
129,23,0,2,11,18,518,784.2494042103644,785.59059292241,"[61, 0, 193]",193,l,0.8179264271166176,colour,0.5
129,23,0,2,11,19,519,786.1104819211178,786.9025575141422,"[51, 0, 203]",203,a,0.2689673015847802,colour,0.5
129,23,0,2,11,20,520,787.422836025944,788.0945244848263,"[83, 0, 171]",171,l,0.14828084502369165,colour,0.5
129,23,0,2,11,21,521,788.6104510042351,789.2785464108456,"[82, 0, 172]",172,l,0.14525256701745093,colour,0.5
129,23,0,2,11,22,522,789.7885250763502,790.5665545652155,"[24, 0, 230]",230,a,0.2547644469887018,colour,0.5
129,23,0,2,11,23,523,791.0853912087623,791.7025856347755,"[97, 0, 157]",157,l,0.09387070126831532,colour,0.5
129,23,0,2,11,24,524,792.2213407522067,792.9105695122853,"[79, 0, 175]",175,l,0.16592118283733726,colour,0.5
129,23,0,2,11,25,525,793.4245059306268,794.150523794815,"[37, 0, 217]",217,a,0.2027583362068981,colour,0.5
129,23,0,2,11,26,526,794.6588361000177,795.3266467563808,"[19, 0, 235]",235,a,0.13889708300121129,colour,0.5
129,23,0,2,11,27,527,795.8363922652788,796.4545673667453,"[2, 0, 252]",252,a,0.09483562270179391,colour,0.5
129,23,0,2,11,28,528,796.9613038962707,797.5905275442638,"[7, 0, 247]",247,a,0.10611456888727844,colour,0.5
129,23,0,2,11,29,529,798.1019437455107,798.7105354052037,"[3, 0, 251]",251,a,0.08527069189585745,colour,0.5
129,23,0,2,11,30,530,799.2219449111726,799.9265812993981,"[95, 0, 159]",159,l,0.18135244166478515,colour,0.5
129,23,0,2,11,31,531,800.4407473297324,801.0225504091941,"[23, 0, 231]",231,a,0.06849445076659322,colour,0.5
129,23,0,2,11,32,532,801.5400849997532,802.1666147448123,"[85, 0, 169]",169,l,0.10320838331244886,colour,0.5
129,23,0,2,11,33,533,802.6807126398198,803.3905485754367,"[63, 0, 191]",191,a,0.1865031523630023,colour,0.5
129,23,0,2,11,34,534,803.8994516490493,804.6305540578905,"[59, 0, 195]",195,a,0.2125564233865589,colour,0.5
129,23,0,2,11,35,535,805.1511098367628,805.8465231519658,"[13, 0, 241]",241,a,0.17204154119826853,colour,0.5
129,23,0,2,11,36,536,806.3542793474626,807.0385338393971,"[27, 0, 227]",227,a,0.16087641636841,colour,0.5
129,23,0,2,11,37,537,807.5574496458285,808.1345699031372,"[56, 0, 198]",198,a,0.05379456328228116,colour,0.5
129,23,0,2,11,38,538,808.6512293689884,809.2785054510459,"[62, 0, 192]",192,a,0.10398977273143828,colour,0.5
129,23,0,2,11,39,539,809.7866464334074,810.3825432728045,"[20, 0, 234]",234,a,0.08141770190559328,colour,0.5
129,23,0,2,11,40,540,810.9029592366423,811.5265000883956,"[44, 0, 210]",210,a,0.10066099092364311,colour,0.5
129,23,0,2,11,41,541,812.0435392213985,812.7105259529781,"[11, 0, 243]",243,a,0.14364134543575346,colour,0.5
129,23,0,2,11,42,542,813.2311049688142,814.2225215008948,"[30, 0, 224]",224,a,0.4681526718195528,colour,0.5
129,23,0,2,11,43,543,814.7326462829951,815.4865208361298,"[35, 0, 219]",219,a,0.23065952956676483,colour,0.5
129,23,0,2,11,44,544,815.9982221815735,816.7585274432786,"[18, 0, 236]",236,a,0.23697326611727476,colour,0.5
129,23,0,2,11,45,545,817.2794105077628,818.014785352163,"[14, 0, 240]",240,a,0.21210862090811133,colour,0.5
129,23,0,2,11,46,546,818.5294137571473,819.2145288013853,"[29, 0, 225]",225,a,0.15931836375966668,colour,0.5
129,23,0,2,11,47,547,819.7348837191239,820.3665169135202,"[89, 0, 165]",165,l,0.10833506961353123,colour,0.5
129,23,0,2,11,48,548,820.8755787066184,821.9184944706503,"[86, 0, 168]",168,l,0.5196270914748311,colour,0.5
129,23,0,2,11,49,549,822.4379592975602,823.4145270683803,"[76, 0, 178]",178,l,0.45308965840376914,colour,0.5
129,23,0,2,11,50,550,823.9224073251244,824.6065460266545,"[9, 0, 245]",245,a,0.16081970278173685,colour,0.5
129,23,0,2,12,1,551,830.4855019580573,831.4224949558266,"[34, 0, 220]",220,a,0.41154644591733813,colour,0.5
129,23,0,2,12,2,552,831.9385341149755,832.5584685241338,"[19, 0, 235]",235,a,0.09667685022577643,colour,0.5
129,23,0,2,12,3,553,833.079222407192,833.8144877625164,"[22, 0, 232]",232,a,0.2120337903033942,colour,0.5
129,23,0,2,12,4,554,834.3312492344994,834.9264666903764,"[40, 0, 214]",214,a,0.06996034365147352,colour,0.5
129,23,0,2,12,5,555,835.4430379348341,836.0707708776463,"[88, 0, 166]",166,l,0.10452461475506425,colour,0.5
129,23,0,2,12,6,556,836.5835486026481,837.1984563621227,"[75, 0, 179]",179,l,0.09479387500323355,colour,0.5
129,23,0,2,12,7,557,837.7053106515668,838.3184760385193,"[0, 0, 254]",254,a,0.0874522018712014,colour,0.5
129,23,0,2,12,8,558,838.8328512008302,839.8064852168318,"[53, 0, 201]",201,a,0.4504788569174707,colour,0.5
129,23,0,2,12,9,559,840.3185725307558,840.9667700773571,"[85, 0, 169]",169,l,0.12490414781495929,colour,0.5
129,23,0,2,12,10,560,841.4747570662294,842.1584566298407,"[30, 0, 224]",224,a,0.1603565402328968,colour,0.5
129,23,0,2,12,11,561,842.6779639923479,843.3904792587273,"[72, 0, 182]",182,l,0.18953891331329942,colour,0.5
129,23,0,2,12,12,562,843.8977313321084,844.5825376014691,"[3, 0, 251]",251,a,0.16178226098418236,colour,0.5
129,23,0,2,12,13,563,845.100523144938,846.6785008036532,"[60, 0, 194]",194,a,1.0545913125388324,colour,0.5
129,23,0,2,12,14,564,847.1943087757099,848.182510741055,"[64, 0, 190]",190,l,0.4655032732989639,colour,0.5
129,23,0,2,12,15,565,848.6942302035168,849.4464608456474,"[13, 0, 241]",241,a,0.22905185259878635,colour,0.5
129,23,0,2,12,16,566,849.9599234678317,850.8144629504532,"[44, 0, 210]",210,l,0.33138668653555214,colour,0.5
129,23,0,2,12,17,567,851.3349391724914,852.2464424923528,"[80, 0, 174]",174,l,0.38832453009672463,colour,0.5
129,23,0,2,12,18,568,852.7568169725128,853.6464614758734,"[66, 0, 188]",188,l,0.36646531987935305,colour,0.5
129,23,0,2,12,19,569,854.1630075140856,855.0144549158867,"[90, 0, 164]",164,l,0.3280913815833628,colour,0.5
129,23,0,2,12,20,570,855.5238337547053,856.3024717345834,"[43, 0, 211]",211,a,0.25548754702322185,colour,0.5
129,23,0,2,12,21,571,856.8093358702026,857.5344620682299,"[20, 0, 234]",234,a,0.20189345139078796,colour,0.5
129,23,0,2,12,22,572,858.043720390182,858.710423159413,"[27, 0, 227]",227,a,0.14357517939060926,colour,0.5
129,23,0,2,12,23,573,859.2319158967584,859.910412367899,"[1, 0, 253]",253,a,0.15591317578218877,colour,0.5
129,23,0,2,12,24,574,860.4199578033295,861.1344119710848,"[76, 0, 178]",178,l,0.19110169215127826,colour,0.5
129,23,0,2,12,25,575,861.6543683172204,862.3104624650441,"[31, 0, 223]",223,a,0.13280074927024543,colour,0.5
129,23,0,2,12,26,576,862.8262456248049,863.4624127680436,"[69, 0, 185]",185,l,0.11298638419248164,colour,0.5
129,23,0,2,12,27,577,863.9824411880691,864.742425859673,"[98, 0, 156]",156,l,0.236739716026932,colour,0.5
129,23,0,2,12,28,578,865.2637236432638,866.0146778323688,"[35, 0, 219]",219,a,0.22768245171755552,colour,0.5
129,23,0,2,12,29,579,866.5292392836418,867.2384178913198,"[48, 0, 206]",206,a,0.18354104086756706,colour,0.5
129,23,0,2,12,30,580,867.7502543258015,868.598517880775,"[54, 0, 200]",200,a,0.32496188557706773,colour,0.5
129,23,0,2,12,31,581,869.1096107349731,870.0703888474964,"[95, 0, 159]",159,l,0.4375319753307849,colour,0.5
129,23,0,2,12,32,582,870.5784242793452,871.3824463868514,"[82, 0, 172]",172,l,0.2812804861459881,colour,0.5
129,23,0,2,12,33,583,871.8909174117725,872.5424268047791,"[91, 0, 163]",163,l,0.12825301568955183,colour,0.5
129,23,0,2,12,34,584,873.0628805777524,873.7904356205836,"[23, 0, 231]",231,a,0.20430772402323782,colour,0.5
129,23,0,2,12,35,585,874.2985655753873,875.3983731032349,"[79, 0, 175]",175,l,0.5765342151280493,colour,0.5
129,23,0,2,12,36,586,875.9086833863985,876.5663820607588,"[37, 0, 217]",217,a,0.13448562007397413,colour,0.5
129,23,0,2,12,37,587,877.0796800556127,878.334422447253,"[59, 0, 195]",195,a,0.7314816820435226,colour,0.5
129,23,0,2,12,38,588,878.8475751131773,879.4624052850995,"[92, 0, 162]",162,l,0.09137884108349681,colour,0.5
129,23,0,2,12,39,589,879.9729892909527,881.6864233987872,"[67, 0, 187]",187,l,1.190177730517462,colour,0.5
129,23,0,2,12,40,590,882.2075104753021,882.934444423765,"[58, 0, 196]",196,a,0.20380163262598217,colour,0.5
129,23,0,2,12,41,591,883.4417725093663,884.1903833178803,"[94, 0, 160]",160,l,0.22533316374756396,colour,0.5
129,23,0,2,12,42,592,884.707409454044,885.4063874643762,"[17, 0, 237]",237,a,0.17436877405270934,colour,0.5
129,23,0,2,12,43,593,885.9276041160338,886.5984414748382,"[6, 0, 248]",248,a,0.14790669176727533,colour,0.5
129,23,0,2,12,44,594,887.1149725469295,887.8703740390483,"[25, 0, 229]",229,a,0.23214472085237503,colour,0.5
129,23,0,2,12,45,595,888.3805992517155,889.1343528942671,"[7, 0, 247]",247,a,0.22845360124483705,colour,0.5
129,23,0,2,12,46,596,889.6459577474743,890.614387095673,"[14, 0, 240]",240,a,0.4451973894611001,colour,0.5
129,23,0,2,12,47,597,891.1316861666273,891.9183672585059,"[73, 0, 181]",181,l,0.263304591877386,colour,0.5
129,23,0,2,12,48,598,892.4285507234745,893.3183909680229,"[46, 0, 208]",208,a,0.36660513491369784,colour,0.5
129,23,0,2,12,49,599,893.8347412652802,894.6064136945643,"[71, 0, 183]",183,l,0.24838139372877777,colour,0.5
129,23,0,2,12,50,600,895.1173474350944,895.8304038452916,"[41, 0, 213]",213,a,0.18974804528988898,colour,0.5
129,23,0,2,13,1,601,900.4616876987275,901.2383942606393,"[60, 0, 194]",194,a,0.25258175539784133,colour,0.5
129,23,0,2,13,2,602,901.7594246233348,902.3824290574994,"[80, 0, 174]",174,l,0.09977877698838711,colour,0.5
129,23,0,2,13,3,603,902.8998592789285,903.7663563033566,"[78, 0, 176]",176,l,0.3430795643944293,colour,0.5
129,23,0,2,13,4,604,904.276340088807,904.9183176339138,"[27, 0, 227]",227,a,0.1188196293078363,colour,0.5
129,23,0,2,13,5,605,905.4326364763547,906.0783362549264,"[75, 0, 179]",179,l,0.12242882908321917,colour,0.5
129,23,0,2,13,6,606,906.5889856391586,907.4063567444682,"[4, 0, 250]",250,a,0.29431637679226696,colour,0.5
129,23,0,2,13,7,607,907.9168911257293,908.6623373860493,"[26, 0, 228]",228,a,0.22212096001021564,colour,0.5
129,23,0,2,13,8,608,909.1751982124988,909.8463526170235,"[34, 0, 220]",220,a,0.14801657479256392,colour,0.5
129,23,0,2,13,9,609,910.3630290180445,911.1183292916976,"[18, 0, 236]",236,a,0.2319702471140772,colour,0.5
129,23,0,2,13,10,610,911.6286750212312,912.3263620061334,"[22, 0, 232]",232,a,0.18175022560171783,colour,0.5
129,23,0,2,13,11,611,912.8401570341084,913.5423184973188,"[44, 0, 210]",210,a,0.17884837230667472,colour,0.5
129,23,0,2,13,12,612,914.0588038833812,914.6944192491937,"[87, 0, 167]",167,l,0.10440567345358431,colour,0.5
129,23,0,2,13,13,613,915.2074431276415,915.8943556826562,"[90, 0, 164]",164,l,0.163696349831298,colour,0.5
129,23,0,2,13,14,614,916.4043804279063,917.1343623464927,"[46, 0, 208]",208,a,0.2067405073903501,colour,0.5
129,23,0,2,13,15,615,917.6543041204568,918.414347474929,"[35, 0, 219]",219,a,0.23704573372378945,colour,0.5
129,23,0,2,13,16,616,918.9357000032905,919.6543517757673,"[41, 0, 213]",213,a,0.2045416682958603,colour,0.5
129,23,0,2,13,17,617,920.1609693639912,921.134340684861,"[93, 0, 161]",161,l,0.4502929619047791,colour,0.5
129,23,0,2,13,18,618,921.6557873424608,922.2863799971528,"[52, 0, 202]",202,a,0.10729492385871708,colour,0.5
129,23,0,2,13,19,619,922.7963795361575,923.4703503295314,"[79, 0, 175]",175,l,0.1485415706411004,colour,0.5
129,23,0,2,13,20,620,923.9903728417121,924.6384947698098,"[29, 0, 225]",225,a,0.12485097860917449,colour,0.5
129,23,0,2,13,21,621,925.1568698266055,925.7983408865985,"[88, 0, 166]",166,l,0.11821586429141462,colour,0.5
129,23,0,2,13,22,622,926.3148739282042,926.9344192177523,"[76, 0, 178]",178,l,0.10861469991505146,colour,0.5
129,23,0,2,13,23,623,927.4431773561519,928.1422967570834,"[3, 0, 251]",251,a,0.17596227279864252,colour,0.5
129,23,0,2,13,24,624,928.661982137477,929.3903075421695,"[25, 0, 229]",229,a,0.20508832577615976,colour,0.5
129,23,0,2,13,25,625,929.8975844276138,930.5743219852448,"[0, 0, 254]",254,a,0.15347054647281766,colour,0.5
129,23,0,2,13,26,626,931.084984760033,931.7342980708927,"[28, 0, 226]",226,a,0.12600494595244527,colour,0.5
129,23,0,2,13,27,627,932.2413689752575,932.8622730318457,"[43, 0, 211]",211,a,0.09781388216651976,colour,0.5
129,23,0,2,13,28,628,933.3688996785786,933.9743031593971,"[67, 0, 187]",187,l,0.08244130620732903,colour,0.5
129,23,0,2,13,29,629,934.4939582138322,935.1342985434458,"[95, 0, 159]",159,l,0.11757035157643259,colour,0.5
129,23,0,2,13,30,630,935.6523730962072,936.2863079232629,"[38, 0, 216]",216,a,0.11048979801125824,colour,0.5
129,23,0,2,13,31,631,936.7932039604057,937.518678317545,"[13, 0, 241]",241,a,0.20231053372845054,colour,0.5
129,23,0,2,13,32,632,938.0292958004866,938.6863005191553,"[68, 0, 186]",186,l,0.13375149224884808,colour,0.5
129,23,0,2,13,33,633,939.2010935512371,939.9023227824364,"[98, 0, 156]",156,l,0.17799530318006873,colour,0.5
129,23,0,2,13,34,634,940.4216946619563,941.1502941828221,"[89, 0, 165]",165,l,0.20539276814088225,colour,0.5
129,23,0,2,13,35,635,941.6717656524852,942.3583075988572,"[48, 0, 206]",206,a,0.16366287297569215,colour,0.5
129,23,0,2,13,36,636,942.8747563573997,943.4542790718842,"[14, 0, 240]",240,l,0.05620371596887708,colour,0.5
129,23,0,2,13,37,637,943.9685581356753,944.8943332333583,"[51, 0, 203]",203,a,0.4025069051422179,colour,0.5
129,23,0,2,13,38,638,945.3977468889207,946.0382868982852,"[12, 0, 242]",242,a,0.12265725946053863,colour,0.5
129,23,0,2,13,39,639,946.5485412555281,947.142281397013,"[97, 0, 157]",157,l,0.070402238285169,colour,0.5
129,23,0,2,13,40,640,947.6578837817069,948.3583044479601,"[56, 0, 198]",198,a,0.17868728935718536,colour,0.5
129,23,0,2,13,41,641,948.8754400729667,949.5823792754672,"[6, 0, 248]",248,a,0.18367140367627144,colour,0.5
129,23,0,2,13,42,642,950.0941885346547,950.7102762549184,"[53, 0, 201]",201,a,0.09311727480962873,colour,0.5
129,23,0,2,13,43,643,951.2117699137889,951.8622560964432,"[57, 0, 197]",197,a,0.1271927838679403,colour,0.5
129,23,0,2,13,44,644,952.3772783468012,953.1824221259449,"[45, 0, 209]",209,a,0.28210834925994277,colour,0.5
129,23,0,2,13,45,645,953.6897982605733,954.2702555702999,"[92, 0, 162]",162,l,0.05826982902362943,colour,0.5
129,23,0,2,13,46,646,954.7824830932077,955.8462852693629,"[40, 0, 214]",214,a,0.5405257127713412,colour,0.5
129,23,0,2,13,47,647,956.360567484051,957.0382483014837,"[62, 0, 192]",192,a,0.15464775054715574,colour,0.5
129,23,0,2,13,48,648,957.5480603701435,958.1742159619462,"[82, 0, 172]",172,l,0.10136164189316332,colour,0.5
129,23,0,2,13,49,649,958.6901814721059,959.3422268887516,"[59, 0, 195]",195,a,0.12879100861027837,colour,0.5
129,23,0,2,13,50,650,959.8620796536561,960.5583157120273,"[2, 0, 252]",252,a,0.1730265486985445,colour,0.5
129,23,0,2,14,1,651,965.0967339577619,965.9022388933226,"[5, 0, 249]",249,a,0.28139942744746804,colour,0.5
129,23,0,2,14,2,652,966.4100025717635,967.0623788186349,"[25, 0, 229]",229,a,0.1416618782095611,colour,0.5
129,23,0,2,14,3,653,967.576197083341,968.206249382114,"[43, 0, 211]",211,a,0.1068853244651109,colour,0.5
129,23,0,2,14,4,654,968.7043083147146,969.5742365207989,"[31, 0, 223]",223,a,0.34242066089063883,colour,0.5
129,23,0,2,14,5,655,970.083686251659,970.7582308778074,"[15, 0, 239]",239,a,0.1511161383241415,colour,0.5
129,23,0,2,14,6,656,971.2713532175403,971.8622273458168,"[99, 0, 155]",155,l,0.06758663733489811,colour,0.5
129,23,0,2,14,7,657,972.3807292205747,973.2622455414385,"[95, 0, 159]",159,l,0.35823906981386244,colour,0.5
129,23,0,2,14,8,658,973.7713813774753,974.3902488590684,"[8, 0, 246]",246,a,0.10816256515681744,colour,0.5
129,23,0,2,14,9,659,974.9130972125567,975.8782371634152,"[94, 0, 160]",160,l,0.44228884065523744,colour,0.5
129,23,0,2,14,10,660,976.3974912832491,977.0862273424864,"[73, 0, 181]",181,l,0.1653682237956673,colour,0.5
129,23,0,2,14,11,661,977.600986503996,978.270209884271,"[32, 0, 222]",222,a,0.14591540908440948,colour,0.5
129,23,0,2,14,12,662,978.7884845102672,979.4621977284551,"[27, 0, 227]",227,a,0.15050370851531625,colour,0.5
129,23,0,2,14,13,663,979.9759569163434,980.6062407963909,"[34, 0, 220]",220,a,0.10713541624136269,colour,0.5
129,23,0,2,14,14,664,981.1197699785698,981.7821904660668,"[85, 0, 169]",169,l,0.13925942103378475,colour,0.5
129,23,0,2,14,15,665,982.2915830893908,982.934278614819,"[21, 0, 233]",233,a,0.11957896337844431,colour,0.5
129,23,0,2,14,16,666,983.4478180371225,984.0542234608438,"[78, 0, 176]",176,l,0.08291116380132735,colour,0.5
129,23,0,2,14,17,667,984.5727745664772,985.1662413792219,"[33, 0, 221]",221,a,0.07013875572010875,colour,0.5
129,23,0,2,14,18,668,985.6822183108889,986.3342239491176,"[44, 0, 210]",210,a,0.1287323257420212,colour,0.5
129,23,0,2,14,19,669,986.854058597004,987.4701809759717,"[22, 0, 232]",232,a,0.09287545387633145,colour,0.5
129,23,0,2,14,20,670,987.9808362678159,988.5742093455046,"[80, 0, 174]",174,l,0.07006274373270571,colour,0.5
129,23,0,2,14,21,671,989.0901776123792,989.6702205967158,"[20, 0, 234]",234,a,0.05669365939684212,colour,0.5
129,23,0,2,14,22,672,990.1771280553658,990.7263439681847,"[97, 0, 157]",157,l,0.023816622560843825,colour,0.5
129,23,0,2,14,23,673,991.2324424679391,991.822174444329,"[56, 0, 198]",198,a,0.0665043496992439,colour,0.5
129,23,0,2,14,24,674,992.3419086616486,993.1981531011406,"[51, 0, 203]",203,a,0.33307431428693235,colour,0.5
129,23,0,2,14,25,675,993.7167152343318,994.3501825670246,"[45, 0, 209]",209,a,0.11010422324761748,colour,0.5
129,23,0,2,14,26,676,994.8574078588281,995.4462308399379,"[62, 0, 192]",192,a,0.06551107158884406,colour,0.5
129,23,0,2,14,27,677,995.9689748242963,996.5584964870941,"[63, 0, 191]",191,a,0.06623929180204868,colour,0.5
129,23,0,2,14,28,678,997.0783425564878,997.6062494609505,"[3, 0, 251]",251,l,0.005181824788451195,colour,0.5
129,23,0,2,14,29,679,998.1251243073493,998.878283637343,"[81, 0, 173]",173,l,0.2299427310936153,colour,0.5
129,23,0,2,14,30,680,999.390785276657,1000.3021917105652,"[87, 0, 167]",167,l,0.388055533869192,colour,0.5
129,23,0,2,14,31,681,1000.8133964168373,1001.4782236940227,"[37, 0, 217]",217,a,0.14155672141350806,colour,0.5
129,23,0,2,14,32,682,1001.9851772324182,1002.7182291762438,"[17, 0, 237]",237,a,0.20979320351034403,colour,0.5
129,23,0,2,14,33,683,1003.2352147460915,1003.8221464813687,"[93, 0, 161]",161,l,0.06366708711721003,colour,0.5
129,23,0,2,14,34,684,1004.3288991586305,1004.9502675589174,"[48, 0, 206]",206,a,0.0969430897384882,colour,0.5
129,23,0,2,14,35,685,1005.4706319288816,1006.7261494083796,"[74, 0, 180]",180,l,0.7327541967388242,colour,0.5
129,23,0,2,14,36,686,1007.2360402462073,1007.9501824881881,"[69, 0, 185]",185,l,0.19085160014219582,colour,0.5
129,23,0,2,14,37,687,1008.4713380939793,1009.0541726546362,"[52, 0, 202]",202,a,0.05958487885072827,colour,0.5
129,23,0,2,14,38,688,1009.5650288078468,1010.1501736661885,"[55, 0, 199]",199,a,0.06178450584411621,colour,0.5
129,23,0,2,14,39,689,1010.6587738725357,1011.3901763914619,"[23, 0, 231]",231,a,0.20804807427339256,colour,0.5
129,23,0,2,14,40,690,1011.9113768956158,1012.5421767130028,"[90, 0, 164]",164,l,0.10760921239852905,colour,0.5
129,23,0,2,14,41,691,1013.051988387946,1013.7182106655091,"[19, 0, 235]",235,a,0.14324434916488826,colour,0.5
129,23,0,2,14,42,692,1014.2394970278256,1015.0541651716921,"[58, 0, 196]",196,a,0.2917512613348663,colour,0.5
129,23,0,2,14,43,693,1015.5676352770533,1016.1901580384001,"[83, 0, 171]",171,l,0.09927347325719893,colour,0.5
129,23,0,2,14,44,694,1016.7081928125117,1017.4221739717759,"[35, 0, 219]",219,a,0.19060780992731452,colour,0.5
129,23,0,2,14,45,695,1017.9426265631337,1018.6381663028151,"[10, 0, 244]",244,a,0.1722920269239694,colour,0.5
129,23,0,2,14,46,696,1019.1456956432667,1019.8701255223714,"[42, 0, 212]",212,a,0.19975565816275775,colour,0.5
129,23,0,2,14,47,697,1020.3815078530461,1020.9901022699196,"[92, 0, 162]",162,l,0.08524587983265519,colour,0.5
129,23,0,2,14,48,698,1021.5064951023087,1022.1341839344241,"[72, 0, 182]",182,l,0.10449665156193078,colour,0.5
129,23,0,2,14,49,699,1022.6470632716082,1023.4301580069587,"[36, 0, 218]",218,a,0.2601274405606091,colour,0.5
129,23,0,2,14,50,700,1023.9439140439499,1024.582161478931,"[53, 0, 201]",201,a,0.11513914354145527,colour,0.5
129,23,0,2,15,1,701,1029.1970680567902,1030.0541352394503,"[87, 0, 167]",167,l,0.3329581299331039,colour,0.5
129,23,0,2,15,2,702,1030.5604003360495,1032.0141674086917,"[15, 0, 239]",239,a,0.9306052182801068,colour,0.5
129,23,0,2,15,3,703,1032.5291924159974,1033.2141310174484,"[4, 0, 250]",250,a,0.16172948572784662,colour,0.5
129,23,0,2,15,4,704,1033.732342234347,1034.566498639062,"[89, 0, 165]",165,l,0.3108996336814016,colour,0.5
129,23,0,2,15,5,705,1035.0787281312514,1035.8221011890564,"[66, 0, 188]",188,a,0.22004381916485727,colour,0.5
129,23,0,2,15,6,706,1036.3287955771666,1037.14214788354,"[20, 0, 234]",234,a,0.29013295052573085,colour,0.5
129,23,0,2,15,7,707,1037.6569105896633,1038.2941103957128,"[5, 0, 249]",249,a,0.11256733280606568,colour,0.5
129,23,0,2,15,8,708,1038.80206351378,1039.4540766351856,"[86, 0, 168]",168,l,0.13196619064547122,colour,0.5
129,23,0,2,15,9,709,1039.970601011999,1040.6141448807903,"[61, 0, 193]",193,l,0.12052182946354151,colour,0.5
129,23,0,2,15,10,710,1041.1266217078082,1041.8381070685573,"[91, 0, 163]",163,l,0.1883246877696365,colour,0.5
129,23,0,2,15,11,711,1042.3467958900146,1042.9821064192802,"[51, 0, 203]",203,a,0.11195253999903798,colour,0.5
129,23,0,2,15,12,712,1043.5030855822843,1044.3101454195566,"[60, 0, 194]",194,a,0.2842595330439508,colour,0.5
129,23,0,2,15,13,713,1044.8311206439976,1045.5340946102515,"[44, 0, 210]",210,a,0.17961440165527165,colour,0.5
129,23,0,2,15,14,714,1046.0498923424166,1047.6540871115867,"[69, 0, 185]",185,l,1.0807938508223742,colour,0.5
129,23,0,2,15,15,715,1048.161126902094,1048.8061366635375,"[6, 0, 248]",248,a,0.12189635005779564,colour,0.5
129,23,0,2,15,16,716,1049.3173748466652,1049.9741389257833,"[75, 0, 179]",179,l,0.1333611912559718,colour,0.5
129,23,0,2,15,17,717,1050.4892769667786,1051.0702450938988,"[26, 0, 228]",228,a,0.05818948452360928,colour,0.5
129,23,0,2,15,18,718,1051.5829755575396,1052.4460670002736,"[77, 0, 177]",177,l,0.3398126163519919,colour,0.5
129,23,0,2,15,19,719,1052.9600754922722,1053.6620869003236,"[42, 0, 212]",212,a,0.17889957199804485,colour,0.5
129,23,0,2,15,20,720,1054.178910993738,1054.8543260181323,"[40, 0, 214]",214,a,0.15212123189121485,colour,0.5
129,23,0,2,15,21,721,1055.3664097874425,1055.990137715824,"[34, 0, 220]",220,a,0.10056922468356788,colour,0.5
129,23,0,2,15,22,722,1056.5069369969424,1057.4940830627456,"[63, 0, 191]",191,a,0.4641133928671479,colour,0.5
129,23,0,2,15,23,723,1058.0055969378445,1058.686088630231,"[39, 0, 215]",215,a,0.15717466291971505,colour,0.5
129,23,0,2,15,24,724,1059.183124746196,1059.8301198827103,"[78, 0, 176]",176,l,0.12363793491385877,colour,0.5
129,23,0,2,15,25,725,1060.3394030169584,1060.982104843948,"[56, 0, 198]",198,a,0.11939661297947168,colour,0.5
129,23,0,2,15,26,726,1061.4955674663652,1062.1264283298515,"[49, 0, 205]",205,a,0.10784079367294908,colour,0.5
129,23,0,2,15,27,727,1062.6362167678308,1063.23805555352,"[30, 0, 224]",224,a,0.07845322717912495,colour,0.5
129,23,0,2,15,28,728,1063.7455691401847,1064.702068909537,"[21, 0, 233]",233,a,0.4330830969847739,colour,0.5
129,23,0,2,15,29,729,1065.215973426355,1066.3020325968973,"[58, 0, 196]",196,a,0.5627689224202186,colour,0.5
129,23,0,2,15,30,730,1066.8096647311468,1067.5823930602055,"[36, 0, 218]",218,a,0.2494617118500173,colour,0.5
129,23,0,2,15,31,731,1068.0909223742783,1068.9980481020175,"[88, 0, 166]",166,l,0.38386186747811735,colour,0.5
129,23,0,2,15,32,732,1069.5128100204747,1070.1420817174949,"[48, 0, 206]",206,a,0.10598460002802312,colour,0.5
129,23,0,2,15,33,733,1070.6541268900037,1071.2220890587196,"[25, 0, 229]",229,a,0.04475423460826278,colour,0.5
129,23,0,2,15,34,734,1071.732191391522,1072.3421067660674,"[46, 0, 208]",208,a,0.0865483267698437,colour,0.5
129,23,0,2,15,35,735,1072.8572507144418,1073.3981139529496,"[38, 0, 216]",216,a,0.017954232869669795,colour,0.5
129,23,0,2,15,36,736,1073.9039852039423,1074.4860379816964,"[68, 0, 186]",186,l,0.059259956469759345,colour,0.5
129,23,0,2,15,37,737,1074.998714882182,1075.590044295881,"[22, 0, 232]",232,a,0.06792495050467551,colour,0.5
129,23,0,2,15,38,738,1076.1081680790521,1076.6460050088353,"[72, 0, 182]",182,l,0.014853093540295959,colour,0.5
129,23,0,2,15,39,739,1077.155010876013,1077.6860354610253,"[35, 0, 219]",219,a,0.007753635523840785,colour,0.5
129,23,0,2,15,40,740,1078.2033207472414,1079.302053470863,"[97, 0, 157]",157,l,0.57561458600685,colour,0.5
129,23,0,2,15,41,741,1079.8126398397144,1080.5260227476247,"[53, 0, 201]",201,a,0.19002255541272461,colour,0.5
129,23,0,2,15,42,742,1081.0470976149663,1081.646088897949,"[54, 0, 200]",200,a,0.07576759485527873,colour,0.5
129,23,0,2,15,43,743,1082.1563723997679,1082.774057163624,"[64, 0, 190]",190,l,0.09432953130453825,colour,0.5
129,23,0,2,15,44,744,1083.2836293803994,1084.7180531274062,"[32, 0, 222]",222,a,0.9110106192529202,colour,0.5
129,23,0,2,15,45,745,1085.2356148932595,1085.9183562309481,"[14, 0, 240]",240,a,0.15948062832467258,colour,0.5
129,23,0,2,15,46,746,1086.4387733761687,1087.037991908146,"[9, 0, 245]",245,a,0.07354079280048609,colour,0.5
129,23,0,2,15,47,747,1087.5505671964493,1088.2860318375751,"[71, 0, 183]",183,a,0.21225473750382662,colour,0.5
129,23,0,2,15,48,748,1088.8005019165576,1089.4700391916558,"[11, 0, 243]",243,a,0.1460331690032035,colour,0.5
129,23,0,2,15,49,749,1089.9881011410616,1090.6060671105515,"[83, 0, 171]",171,l,0.09467926621437073,colour,0.5
129,23,0,2,15,50,750,1091.1131616455968,1091.6860516087618,"[94, 0, 160]",160,l,0.049679665826261044,colour,0.5
129,23,0,2,16,1,751,1096.1524942035321,1096.8861365218181,"[85, 0, 169]",169,l,0.20950648421421647,colour,0.5
129,23,0,2,16,2,752,1097.3908514427021,1098.0140732796863,"[84, 0, 170]",170,l,0.10030377306975424,colour,0.5
129,23,0,2,16,3,753,1098.5314546641894,1099.710076969117,"[99, 0, 155]",155,l,0.6552910970058292,colour,0.5
129,23,0,2,16,4,754,1100.2190225778613,1100.8221067029517,"[3, 0, 251]",251,a,0.07987028313800693,colour,0.5
129,23,0,2,16,5,755,1101.3298022462986,1101.9900372852571,"[61, 0, 193]",193,l,0.13706570165231824,colour,0.5
129,23,0,2,16,6,756,1102.5015889694914,1103.1020335422363,"[48, 0, 206]",206,a,0.07736818282864988,colour,0.5
129,23,0,2,16,7,757,1103.6109771816991,1104.2060449763667,"[51, 0, 203]",203,a,0.07200715853832662,colour,0.5
129,23,0,2,16,8,758,1104.7136357566342,1105.582040568348,"[89, 0, 165]",165,l,0.3451669451314956,colour,0.5
129,23,0,2,16,9,759,1106.088605775265,1106.7580560103524,"[38, 0, 216]",216,a,0.14617771026678383,colour,0.5
129,23,0,2,16,10,760,1107.2761857013684,1107.9180072837044,"[45, 0, 209]",209,a,0.11867154343053699,colour,0.5
129,23,0,2,16,11,761,1108.4323466061614,1109.2059575426392,"[70, 0, 184]",184,l,0.25031005474738777,colour,0.5
129,23,0,2,16,12,762,1109.7209313500207,1110.3900007365737,"[77, 0, 177]",177,l,0.151995595311746,colour,0.5
129,23,0,2,16,13,763,1110.9022266841494,1111.5020324394573,"[65, 0, 189]",189,l,0.07646942744031549,colour,0.5
129,23,0,2,16,14,764,1112.0116011118516,1112.5820295407902,"[41, 0, 213]",213,a,0.04722915939055383,colour,0.5
129,23,0,2,16,15,765,1113.0897164193448,1113.70200510649,"[74, 0, 180]",180,l,0.08889525150880218,colour,0.5
129,23,0,2,16,16,766,1114.2166713206097,1114.758023321163,"[87, 0, 167]",167,l,0.012978783110156655,colour,0.5
129,23,0,2,16,17,767,1115.2686274130829,1115.8059799131006,"[39, 0, 215]",215,a,0.014442706713452935,colour,0.5
129,23,0,2,16,18,768,1116.3250052086078,1117.198015255155,"[90, 0, 164]",164,l,0.349728069268167,colour,0.5
129,23,0,2,16,19,769,1117.7156943869777,1118.3339722820092,"[13, 0, 241]",241,a,0.09499513008631766,colour,0.5
129,23,0,2,16,20,770,1118.8406083809678,1119.4060357604176,"[49, 0, 205]",205,a,0.0546074602752924,colour,0.5
129,23,0,2,16,21,771,1119.9253773137461,1120.517970577348,"[30, 0, 224]",224,a,0.0692632372956723,colour,0.5
129,23,0,2,16,22,772,1121.0347088123672,1121.605978889158,"[80, 0, 174]",174,l,0.04796525649726391,colour,0.5
129,23,0,2,16,23,773,1122.1238112268038,1122.7339314008132,"[62, 0, 192]",192,a,0.08678936003707349,colour,0.5
129,23,0,2,16,24,774,1123.248900875682,1123.8540026710834,"[43, 0, 211]",211,a,0.08187416871078312,colour,0.5
129,23,0,2,16,25,775,1124.3635512571782,1124.9739821753465,"[15, 0, 239]",239,a,0.08708198717795312,colour,0.5
129,23,0,2,16,26,776,1125.48862357717,1126.0939774333965,"[79, 0, 175]",175,l,0.0863447084557265,colour,0.5
129,23,0,2,16,27,777,1126.6091320158448,1127.2219854772557,"[24, 0, 230]",230,a,0.0866038587410003,colour,0.5
129,23,0,2,16,28,778,1127.7372188288718,1128.5659602524247,"[88, 0, 166]",166,l,0.30285022035241127,colour,0.5
129,23,0,2,16,29,779,1129.0835330458358,1129.7020110143349,"[8, 0, 246]",246,a,0.09508847142569721,colour,0.5
129,23,0,2,16,30,780,1130.2087057961617,1130.8219066294841,"[21, 0, 233]",233,a,0.09000116982497275,colour,0.5
129,23,0,2,16,31,781,1131.3336520856246,1131.933906431077,"[12, 0, 242]",242,a,0.07693534693680704,colour,0.5
129,23,0,2,16,32,782,1132.4430017010309,1133.0139370090328,"[92, 0, 162]",162,l,0.04775769985280931,colour,0.5
129,23,0,2,16,33,783,1133.521102830302,1134.1339649565052,"[52, 0, 202]",202,a,0.0896108690649271,colour,0.5
129,23,0,2,16,34,784,1134.6461810579058,1135.2139348823112,"[55, 0, 199]",199,a,0.04317215736955404,colour,0.5
129,23,0,2,16,35,785,1135.7256011755671,1136.4379545715638,"[5, 0, 249]",249,a,0.18945384281687438,colour,0.5
129,23,0,2,16,36,786,1136.9320541757625,1137.5419490702916,"[36, 0, 218]",218,a,0.08666923712007701,colour,0.5
129,23,0,2,16,37,787,1138.0570213389583,1138.6939190656412,"[2, 0, 252]",252,a,0.11369688156992197,colour,0.5
129,23,0,2,16,38,788,1139.213286218932,1139.7819596726913,"[68, 0, 186]",186,l,0.045469457982108,colour,0.5
129,23,0,2,16,39,789,1140.2893350194208,1140.8859738635365,"[31, 0, 223]",223,a,0.07332811621017754,colour,0.5
129,23,0,2,16,40,790,1141.4018365801312,1142.0379048681352,"[44, 0, 210]",210,a,0.11283435998484492,colour,0.5
129,23,0,2,16,41,791,1142.5581282416824,1143.2939347405918,"[58, 0, 196]",196,a,0.21246150648221374,colour,0.5
129,23,0,2,16,42,792,1143.8081011646427,1144.3499364135787,"[83, 0, 171]",171,l,0.01860722852870822,colour,0.5
129,23,0,2,16,43,793,1144.8706280693877,1145.5179115005303,"[16, 0, 238]",238,a,0.12397939874790609,colour,0.5
129,23,0,2,16,44,794,1146.0268504139967,1146.6859480272979,"[50, 0, 204]",204,a,0.13592906366102397,colour,0.5
129,23,0,2,16,45,795,1147.2011435695458,1147.7579398259986,"[47, 0, 207]",207,a,0.033583595883101225,colour,0.5
129,23,0,2,16,46,796,1148.2802773616277,1149.2459092256613,"[6, 0, 248]",248,a,0.4423443728592247,colour,0.5
129,23,0,2,16,47,797,1149.764687974006,1150.3579228117596,"[0, 0, 254]",254,a,0.07000406039878726,colour,0.5
129,23,0,2,16,48,798,1150.8740446786396,1151.4863948056009,"[76, 0, 178]",178,l,0.08912092517130077,colour,0.5
129,23,0,2,16,49,799,1151.9990401985124,1152.6699011879973,"[82, 0, 172]",172,l,0.14751087687909603,colour,0.5
129,23,0,2,16,50,800,1153.2324672802351,1153.7979281365406,"[9, 0, 245]",245,a,0.04128169920295477,colour,0.5
