id,age,condition,counterbalance,block,trialinblock,trial,tstart,tend,trialstim,trialintensity,response,RT,trialtype,colourfreq
154,22,0,1,Practice,1,NA,5.908310413360596e-06,0.7431335896253586,"[71, 0, 183]",183,a,0.2041564155369997,colour,0.5
154,22,0,1,Practice,2,NA,1.2509110644459724,2.319106301292777,"[42, 0, 212]",212,a,0.545974638313055,colour,0.5
154,22,0,1,Practice,3,NA,2.8291361816227436,3.6871515195816755,"[67, 0, 187]",187,a,0.33600347861647606,colour,0.5
154,22,0,1,Practice,4,NA,4.204262753948569,4.999151261523366,"[88, 0, 166]",166,a,0.27268642000854015,colour,0.5
154,22,0,1,Practice,5,NA,5.51716361567378,8.81514598056674,"[96, 0, 158]",158,l,2.7760536056011915,colour,0.5
154,22,0,1,Practice,6,NA,9.32969642803073,9.927148716524243,"[99, 0, 155]",155,l,0.07523484155535698,colour,0.5
154,22,0,1,Practice,7,NA,10.439049366861582,11.151100229471922,"[6, 0, 248]",248,a,0.1898046638816595,colour,0.5
154,22,0,1,Practice,8,NA,11.65797422081232,12.199213646352291,"[12, 0, 242]",242,a,0.019239380955696106,colour,0.5
154,22,0,1,Practice,9,NA,12.70486356690526,13.511096023023129,"[5, 0, 249]",249,a,0.28396302089095116,colour,0.5
154,22,0,1,Practice,10,NA,14.01757774502039,14.75911665149033,"[1, 0, 253]",253,a,0.21931830793619156,colour,0.5
154,22,0,1,1,1,1,4.571208354085684,5.231996605172753,"[58, 0, 196]",196,a,0.13850660622119904,colour,0.5
154,22,0,1,1,2,2,5.743915766477585,7.928029354661703,"[59, 0, 195]",195,a,1.661884717643261,colour,0.5
154,22,0,1,1,3,3,8.447194496169686,9.351964483037591,"[0, 0, 254]",254,a,0.3825092166662216,colour,0.5
154,22,0,1,1,4,4,9.869268307462335,10.744009502232075,"[55, 0, 199]",199,a,0.35252256505191326,colour,0.5
154,22,0,1,1,5,5,11.259971491992474,12.008014373481274,"[42, 0, 212]",212,a,0.22569428198039532,colour,0.5
154,22,0,1,1,6,6,12.525697864592075,13.399973532184958,"[75, 0, 179]",179,l,0.35208224318921566,colour,0.5
154,22,0,1,1,7,7,13.91638962738216,14.671976236626506,"[11, 0, 243]",243,a,0.23325100727379322,colour,0.5
154,22,0,1,1,8,8,15.182150265201926,16.28796095214784,"[73, 0, 181]",181,l,0.5835873316973448,colour,0.5
154,22,0,1,1,9,9,16.807311987504363,17.432029847055674,"[69, 0, 185]",185,l,0.10256736539304256,colour,0.5
154,22,0,1,1,10,10,17.948042249307036,18.74398508295417,"[71, 0, 183]",183,l,0.2736706417053938,colour,0.5
154,22,0,1,1,11,11,19.26059889048338,20.008004132658243,"[43, 0, 211]",211,a,0.22505428083240986,colour,0.5
154,22,0,1,1,12,12,20.526403242722154,21.367997957393527,"[14, 0, 240]",240,a,0.31943358667194843,colour,0.5
154,22,0,1,1,13,13,21.885844502598047,22.648031970486045,"[20, 0, 234]",234,a,0.23997907899320126,colour,0.5
154,22,0,1,1,14,14,23.16717702522874,23.943987604230642,"[54, 0, 200]",200,l,0.25464748218655586,colour,0.5
154,22,0,1,1,15,15,24.464156659319997,25.663983130827546,"[45, 0, 209]",209,a,0.6776448637247086,colour,0.5
154,22,0,1,1,16,16,26.183013182133436,27.11206023581326,"[95, 0, 159]",159,l,0.406776437535882,colour,0.5
154,22,0,1,1,17,17,27.620600197464228,28.44796879775822,"[1, 0, 253]",253,a,0.3050708081573248,colour,0.5
154,22,0,1,1,18,18,28.964553851634264,29.84802621975541,"[15, 0, 239]",239,a,0.3613344766199589,colour,0.5
154,22,0,1,1,19,19,30.355231437832117,31.256012551486492,"[60, 0, 194]",194,a,0.37908314913511276,colour,0.5
154,22,0,1,1,20,20,31.76156952418387,32.616036308929324,"[70, 0, 184]",184,l,0.33214851282536983,colour,0.5
154,22,0,1,1,21,21,33.12107694707811,33.89598722010851,"[26, 0, 228]",228,a,0.2526231128722429,colour,0.5
154,22,0,1,1,22,22,34.402393322438,35.18399070762098,"[33, 0, 221]",221,a,0.2593310996890068,colour,0.5
154,22,0,1,1,23,23,35.69940013252199,36.48801821656525,"[39, 0, 215]",215,a,0.26635967567563057,colour,0.5
154,22,0,1,1,24,24,36.99640300311148,37.824003579095006,"[77, 0, 177]",177,l,0.3053016010671854,colour,0.5
154,22,0,1,1,25,25,38.34013728611171,39.19198105670512,"[85, 0, 169]",169,l,0.32950738072395325,colour,0.5
154,22,0,1,1,26,26,39.699773497879505,40.62417080625892,"[35, 0, 219]",219,a,0.4021522905677557,colour,0.5
154,22,0,1,1,27,27,41.13737547956407,41.943983271718025,"[12, 0, 242]",242,a,0.2844443004578352,colour,0.5
154,22,0,1,1,28,28,42.44994551129639,43.28797985613346,"[7, 0, 247]",247,a,0.3164135739207268,colour,0.5
154,22,0,1,1,29,29,43.7937660459429,44.583985509350896,"[92, 0, 162]",162,l,0.26787795312702656,colour,0.5
154,22,0,1,1,30,30,45.090744499117136,45.87201577797532,"[53, 0, 201]",201,l,0.25907549262046814,colour,0.5
154,22,0,1,1,31,31,46.38779108598828,47.19201020151377,"[87, 0, 167]",167,l,0.2819744925945997,colour,0.5
154,22,0,1,1,32,32,47.70034221187234,48.46398848667741,"[65, 0, 189]",189,l,0.24136266112327576,colour,0.5
154,22,0,1,1,33,33,48.98171293921769,49.903975600376725,"[6, 0, 248]",248,a,0.4007651638239622,colour,0.5
154,22,0,1,1,34,34,50.41927986778319,51.25598458945751,"[89, 0, 165]",165,l,0.31441323086619377,colour,0.5
154,22,0,1,1,35,35,51.76314648240805,52.56799338944256,"[52, 0, 202]",202,a,0.2825502958148718,colour,0.5
154,22,0,1,1,36,36,53.075810642912984,53.99198641255498,"[38, 0, 216]",216,a,0.39398786053061485,colour,0.5
154,22,0,1,1,37,37,54.49776787683368,55.30398064106703,"[4, 0, 250]",250,a,0.2839874401688576,colour,0.5
154,22,0,1,1,38,38,55.81043282523751,56.54398610815406,"[8, 0, 246]",246,a,0.21127203293144703,colour,0.5
154,22,0,1,1,39,39,57.060441982001066,57.83998900279403,"[83, 0, 171]",171,l,0.2572882194072008,colour,0.5
154,22,0,1,1,40,40,58.357419645413756,59.152012376114726,"[13, 0, 241]",241,a,0.2724426295608282,colour,0.5
154,22,0,1,1,41,41,59.67007199116051,60.47997076064348,"[18, 0, 236]",236,a,0.28764430060982704,colour,0.5
154,22,0,1,1,42,42,60.998318277299404,61.735999854281545,"[34, 0, 220]",220,a,0.215450344607234,colour,0.5
154,22,0,1,1,43,43,62.2483483068645,62.99199035204947,"[44, 0, 210]",210,a,0.22125209122896194,colour,0.5
154,22,0,1,1,44,44,63.49846458993852,64.23198833502829,"[79, 0, 175]",175,l,0.2111936565488577,colour,0.5
154,22,0,1,1,45,45,64.74849895387888,65.4879752881825,"[74, 0, 180]",180,l,0.21701115742325783,colour,0.5
154,22,0,1,1,46,46,65.99871409125626,66.66400636732578,"[36, 0, 218]",218,a,0.14308703690767288,colour,0.5
154,22,0,1,1,47,47,67.17061963304877,68.01597872935236,"[37, 0, 217]",217,a,0.32304279319942,colour,0.5
154,22,0,1,1,48,48,68.53012666478753,69.38400780037045,"[50, 0, 204]",204,a,0.3315868880599737,colour,0.5
154,22,0,1,1,49,49,69.88969828560948,70.74401856027544,"[88, 0, 166]",166,l,0.33220050111413,colour,0.5
154,22,0,1,1,50,50,71.2491147313267,72.05600294284523,"[82, 0, 172]",172,l,0.28467470221221447,colour,0.5
154,22,0,1,2,1,51,79.06145967915654,80.03198069520295,"[49, 0, 205]",205,a,0.44744498282670975,colour,0.5
154,22,0,1,2,2,52,80.54743777401745,81.51199399121106,"[98, 0, 156]",156,l,0.4430406019091606,colour,0.5
154,22,0,1,2,3,53,82.03124065697193,83.15199898555875,"[31, 0, 223]",223,a,0.5985920801758766,colour,0.5
154,22,0,1,2,4,54,83.67192542925477,84.56797724217176,"[87, 0, 167]",167,l,0.3737169988453388,colour,0.5
154,22,0,1,2,5,55,85.07831432297826,86.03998246602714,"[93, 0, 161]",161,l,0.4393943753093481,colour,0.5
154,22,0,1,2,6,56,86.54715656861663,87.55999358743429,"[73, 0, 181]",181,l,0.49061405658721924,colour,0.5
154,22,0,1,2,7,57,88.07855141721666,89.04798738658428,"[20, 0, 234]",234,a,0.44708224944770336,colour,0.5
154,22,0,1,2,8,58,89.56306558661163,90.80797837488353,"[96, 0, 158]",158,l,0.7225803360342979,colour,0.5
154,22,0,1,2,9,59,91.31316040456295,92.21598006784916,"[11, 0, 243]",243,a,0.3805285654962063,colour,0.5
154,22,0,1,2,10,60,92.73519955947995,93.80003646947443,"[42, 0, 212]",212,a,0.5425859857350588,colour,0.5
154,22,0,1,2,11,61,94.31334630027413,95.3040125425905,"[64, 0, 190]",190,a,0.4683459997177124,colour,0.5
154,22,0,1,2,12,62,95.81343747675419,96.69599612057209,"[59, 0, 195]",195,a,0.36017026752233505,colour,0.5
154,22,0,1,2,13,63,97.2042777184397,98.07199742458761,"[99, 0, 155]",155,l,0.3454868979752064,colour,0.5
154,22,0,1,2,14,64,98.57935860566795,99.50408319942653,"[46, 0, 208]",208,a,0.4024437367916107,colour,0.5
154,22,0,1,2,15,65,100.0170129686594,101.19199405424297,"[83, 0, 171]",171,l,0.6526966840028763,colour,0.5
154,22,0,1,2,16,66,101.70463277213275,102.74398744665086,"[19, 0, 235]",235,a,0.5170407351106405,colour,0.5
154,22,0,1,2,17,67,103.25163889117539,104.42398278415203,"[8, 0, 246]",246,a,0.6501134485006332,colour,0.5
154,22,0,1,2,18,68,104.93927484191954,105.73598016239703,"[55, 0, 199]",199,a,0.2744449432939291,colour,0.5
154,22,0,1,2,19,69,106.25181572884321,107.02397577278316,"[30, 0, 224]",224,a,0.24983743950724602,colour,0.5
154,22,0,1,2,20,70,107.53324789367616,109.01597439683974,"[63, 0, 191]",191,l,0.960513386875391,colour,0.5
154,22,0,1,2,21,71,109.5333699863404,110.41597943753004,"[39, 0, 215]",215,a,0.36031402088701725,colour,0.5
154,22,0,1,2,22,72,110.92411255650222,112.39997510798275,"[74, 0, 180]",180,l,0.9536939412355423,colour,0.5
154,22,0,1,2,23,73,112.90863125398755,113.87199647910893,"[32, 0, 222]",222,a,0.4413738436996937,colour,0.5
154,22,0,1,2,24,74,114.37748334743083,115.3599898852408,"[1, 0, 253]",253,a,0.4602398592978716,colour,0.5
154,22,0,1,2,25,75,115.87765447236598,116.7039998602122,"[94, 0, 160]",160,l,0.3040932808071375,colour,0.5
154,22,0,1,2,26,76,117.22152266278863,118.07202420756221,"[78, 0, 176]",176,l,0.32828606478869915,colour,0.5
154,22,0,1,2,27,77,118.58104190416634,119.68000360764563,"[77, 0, 177]",177,l,0.5768565032631159,colour,0.5
154,22,0,1,2,28,78,120.19048956222832,121.01600472256541,"[4, 0, 250]",250,a,0.3033623043447733,colour,0.5
154,22,0,1,2,29,79,121.53434475511312,122.47995776310563,"[84, 0, 170]",170,l,0.42337311059236526,colour,0.5
154,22,0,1,2,30,80,122.98762181028724,123.77596656605601,"[25, 0, 229]",229,a,0.26689412631094456,colour,0.5
154,22,0,1,2,31,81,124.28451755642891,125.59999653324485,"[3, 0, 251]",251,a,0.793248139321804,colour,0.5
154,22,0,1,2,32,82,126.1127616763115,126.93596732243896,"[7, 0, 247]",247,a,0.300833024084568,colour,0.5
154,22,0,1,2,33,83,127.44107137061656,128.2959717810154,"[0, 0, 254]",254,a,0.3327132873237133,colour,0.5
154,22,0,1,2,34,84,128.81612901948392,129.57595144212246,"[17, 0, 237]",237,a,0.23745767585933208,colour,0.5
154,22,0,1,2,35,85,130.0818770546466,130.7439716923982,"[23, 0, 231]",231,a,0.13981535658240318,colour,0.5
154,22,0,1,2,36,86,131.25387711822987,131.88797284662724,"[81, 0, 173]",173,l,0.11184322834014893,colour,0.5
154,22,0,1,2,37,87,132.39453963935375,133.36796684376895,"[54, 0, 200]",200,l,0.4511077515780926,colour,0.5
154,22,0,1,2,38,88,133.87907704524696,134.60795852541924,"[80, 0, 174]",174,l,0.20676525123417377,colour,0.5
154,22,0,1,2,39,89,135.11351195164025,136.1039749700576,"[92, 0, 162]",162,l,0.468156561255455,colour,0.5
154,22,0,1,2,40,90,136.61356807500124,137.536008361727,"[35, 0, 219]",219,a,0.4001539144665003,colour,0.5
154,22,0,1,2,41,91,138.05127875879407,138.96797913126647,"[97, 0, 157]",157,l,0.39446717128157616,colour,0.5
154,22,0,1,2,42,92,139.47323205322027,140.311973746866,"[5, 0, 249]",249,a,0.31638403609395027,colour,0.5
154,22,0,1,2,43,93,140.81707228161395,141.67200577445328,"[43, 0, 211]",211,a,0.33266287483274937,colour,0.5
154,22,0,1,2,44,94,142.1922008227557,142.96796928532422,"[45, 0, 209]",209,a,0.25373415276408195,colour,0.5
154,22,0,1,2,45,95,143.47359399870038,144.17597987875342,"[51, 0, 203]",203,a,0.18025941029191017,colour,0.5
154,22,0,1,2,46,96,144.6924160607159,145.40799184516072,"[36, 0, 218]",218,a,0.19349106401205063,colour,0.5
154,22,0,1,2,47,97,145.926913196221,146.7599988654256,"[62, 0, 192]",192,l,0.3108516801148653,colour,0.5
154,22,0,1,2,48,98,147.2709156870842,147.99197341687977,"[88, 0, 166]",166,l,0.19890053942799568,colour,0.5
154,22,0,1,2,49,99,148.505227714777,149.18399110250175,"[86, 0, 168]",168,l,0.1565262470394373,colour,0.5
154,22,0,1,2,50,100,149.69276579469442,150.46399478800595,"[2, 0, 252]",252,a,0.24900681897997856,colour,0.5
154,22,0,1,3,1,101,155.7082092873752,156.495998326689,"[32, 0, 222]",222,a,0.26505840942263603,colour,0.5
154,22,0,1,3,2,102,157.00586239807308,157.79998330026865,"[26, 0, 228]",228,a,0.27184634655714035,colour,0.5
154,22,0,1,3,3,103,158.31852852739394,158.91996693238616,"[86, 0, 168]",168,l,0.07923749834299088,colour,0.5
154,22,0,1,3,4,104,159.42794369347394,161.9919509664178,"[3, 0, 251]",251,a,2.0416890010237694,colour,0.5
154,22,0,1,3,5,105,162.50633363425732,163.4319573789835,"[77, 0, 177]",177,l,0.4034468624740839,colour,0.5
154,22,0,1,3,6,106,163.94392262026668,164.8559712767601,"[63, 0, 191]",191,l,0.3897508643567562,colour,0.5
154,22,0,1,3,7,107,165.36594562605023,166.15199071355164,"[33, 0, 221]",221,a,0.2638370916247368,colour,0.5
154,22,0,1,3,8,108,166.66300914809108,167.27199324965477,"[48, 0, 206]",206,a,0.08687417209148407,colour,0.5
154,22,0,1,3,9,109,167.7879702076316,168.41597431711853,"[80, 0, 174]",174,l,0.10572837293148041,colour,0.5
154,22,0,1,3,10,110,168.92866896092892,169.48795559629798,"[1, 0, 253]",253,a,0.03696954436600208,colour,0.5
154,22,0,1,3,11,111,170.00688364170492,170.5439731106162,"[41, 0, 213]",213,a,0.01480231061577797,colour,0.5
154,22,0,1,3,12,112,171.0538635700941,171.6239998769015,"[39, 0, 215]",215,a,0.0480708833783865,colour,0.5
154,22,0,1,3,13,113,172.132079038769,172.76000437885523,"[54, 0, 200]",200,a,0.10570749826729298,colour,0.5
154,22,0,1,3,14,114,173.2728199325502,174.01596297509968,"[72, 0, 182]",182,l,0.22092047333717346,colour,0.5
154,22,0,1,3,15,115,174.52296929992735,175.12794522941113,"[73, 0, 181]",181,l,0.08283685706555843,colour,0.5
154,22,0,1,3,16,116,175.6479106657207,177.15195526741445,"[55, 0, 199]",199,l,0.9817775301635265,colour,0.5
154,22,0,1,3,17,117,177.6637137401849,178.67996816150844,"[62, 0, 192]",192,l,0.4938711654394865,colour,0.5
154,22,0,1,3,18,118,179.1952141392976,179.9839677065611,"[82, 0, 172]",172,l,0.2665333617478609,colour,0.5
154,22,0,1,3,19,119,180.49215990304947,181.03196376003325,"[43, 0, 211]",211,a,0.017812082543969154,colour,0.5
154,22,0,1,3,20,120,181.53911895863712,182.27195150218904,"[89, 0, 165]",165,l,0.2106280941516161,colour,0.5
154,22,0,1,3,21,121,182.78915726020932,183.34395286627114,"[22, 0, 232]",232,a,0.03254113718867302,colour,0.5
154,22,0,1,3,22,122,183.8517516106367,184.83195139281452,"[9, 0, 245]",245,a,0.45792325772345066,colour,0.5
154,22,0,1,3,23,123,185.35190934501588,188.63198668137193,"[34, 0, 220]",220,a,2.757857918739319,colour,0.5
154,22,0,1,3,24,124,189.14904710836709,190.0319491866976,"[46, 0, 208]",208,a,0.3605538737028837,colour,0.5
154,22,0,1,3,25,125,190.53977864980698,191.72002506442368,"[5, 0, 249]",249,a,0.6579273547977209,colour,0.5
154,22,0,1,3,26,126,192.22744768299162,195.18395998701453,"[64, 0, 190]",190,l,2.434255864471197,colour,0.5
154,22,0,1,3,27,127,195.69648882187903,196.91994290798903,"[40, 0, 214]",214,a,0.7011551111936569,colour,0.5
154,22,0,1,3,28,128,197.43097473308444,199.23194501176476,"[8, 0, 246]",246,a,1.2787890639156103,colour,0.5
154,22,0,1,3,29,129,199.74365385994315,200.55994317494333,"[85, 0, 169]",169,l,0.29402303136885166,colour,0.5
154,22,0,1,3,30,130,201.07192928902805,201.5999933835119,"[76, 0, 178]",178,l,0.0058442819863557816,colour,0.5
154,22,0,1,3,31,131,202.1189135517925,202.6799787953496,"[20, 0, 234]",234,a,0.038897814229130745,colour,0.5
154,22,0,1,3,32,132,203.19696557335556,204.23993654362857,"[70, 0, 184]",184,l,0.5206672698259354,colour,0.5
154,22,0,1,3,33,133,204.75961959175766,205.88795433565974,"[69, 0, 185]",185,l,0.6061259601265192,colour,0.5
154,22,0,1,3,34,134,206.40045559965074,207.2559235431254,"[65, 0, 189]",189,l,0.3332485258579254,colour,0.5
154,22,0,1,3,35,135,207.77559871412814,208.63193469308317,"[23, 0, 231]",231,a,0.3343583829700947,colour,0.5
154,22,0,1,3,36,136,209.15067605674267,210.07196040451527,"[56, 0, 198]",198,a,0.3990869875997305,colour,0.5
154,22,0,1,3,37,137,210.5882638581097,211.33594322018325,"[10, 0, 244]",244,a,0.2253859005868435,colour,0.5
154,22,0,1,3,38,138,211.85398786887527,212.7839683368802,"[29, 0, 225]",225,a,0.4077724739909172,colour,0.5
154,22,0,1,3,39,139,213.2916394751519,214.03196966648102,"[36, 0, 218]",218,a,0.21830809116363525,colour,0.5
154,22,0,1,3,40,140,214.54250209592283,215.2159678582102,"[14, 0, 240]",240,a,0.15231445617973804,colour,0.5
154,22,0,1,3,41,141,215.72929659485817,216.8719783630222,"[61, 0, 193]",193,l,0.6204375401139259,colour,0.5
154,22,0,1,3,42,142,217.3856820408255,218.72798351198435,"[18, 0, 236]",236,a,0.8200942631810904,colour,0.5
154,22,0,1,3,43,143,219.24521329253912,220.16798007674515,"[96, 0, 158]",158,l,0.40048868395388126,colour,0.5
154,22,0,1,3,44,144,220.6828578095883,221.6319587174803,"[50, 0, 204]",204,a,0.4269712883979082,colour,0.5
154,22,0,1,3,45,145,222.15175834484398,222.7119524013251,"[83, 0, 171]",171,l,0.038027020171284676,colour,0.5
154,22,0,1,3,46,146,223.229884410277,224.88795512355864,"[99, 0, 155]",155,l,1.1357579547911882,colour,0.5
154,22,0,1,3,47,147,225.40219758078456,226.34397413395345,"[66, 0, 188]",188,l,0.4198442492634058,colour,0.5
154,22,0,1,3,48,148,226.85520170256495,227.77595593221486,"[51, 0, 203]",203,a,0.3985316623002291,colour,0.5
154,22,0,1,3,49,149,228.2927595730871,228.8959273546934,"[0, 0, 254]",254,a,0.08094954676926136,colour,0.5
154,22,0,1,3,50,150,229.40218064561486,231.3759453780949,"[19, 0, 235]",235,a,1.4514488223940134,colour,0.5
154,22,0,1,4,1,151,235.8863584715873,237.53599733300507,"[45, 0, 209]",209,a,1.1266731061041355,colour,0.5
154,22,0,1,4,2,152,238.04357000999153,239.0719990003854,"[10, 0, 244]",244,a,0.5062095746397972,colour,0.5
154,22,0,1,4,3,153,239.59057416021824,240.44797037355602,"[30, 0, 224]",224,a,0.33523587323725224,colour,0.5
154,22,0,1,4,4,154,240.9656857661903,241.79194332659245,"[52, 0, 202]",202,a,0.30398379266262054,colour,0.5
154,22,0,1,4,5,155,242.30949054844677,243.15194266475737,"[54, 0, 200]",200,a,0.32020355574786663,colour,0.5
154,22,0,1,4,6,156,243.6689960025251,244.58398354053497,"[19, 0, 235]",235,a,0.392735430970788,colour,0.5
154,22,0,1,4,7,157,245.09098356217146,245.89595649950206,"[21, 0, 233]",233,a,0.2828456796705723,colour,0.5
154,22,0,1,4,8,158,246.40359888598323,247.19996037892997,"[56, 0, 198]",198,a,0.27407433465123177,colour,0.5
154,22,0,1,4,9,159,247.71625438146293,248.47995855100453,"[49, 0, 205]",205,a,0.24153555929660797,colour,0.5
154,22,0,1,4,10,160,248.99751916341484,249.80795789510012,"[24, 0, 230]",230,a,0.28894123435020447,colour,0.5
154,22,0,1,4,11,161,250.32582492008805,251.15192297287285,"[86, 0, 168]",168,l,0.30418465472757816,colour,0.5
154,22,0,1,4,12,162,251.66958401538432,252.51197232864797,"[28, 0, 226]",226,a,0.32010391168296337,colour,0.5
154,22,0,1,4,13,163,253.02922810427845,253.759958691895,"[94, 0, 160]",160,l,0.2085726112127304,colour,0.5
154,22,0,1,4,14,164,254.2799891140312,255.16796314157546,"[31, 0, 223]",223,a,0.3670042846351862,colour,0.5
154,22,0,1,4,15,165,255.685598583892,256.4159495048225,"[63, 0, 191]",191,l,0.20812756568193436,colour,0.5
154,22,0,1,4,16,166,256.9356802087277,257.78397463820875,"[13, 0, 241]",241,a,0.3260655589401722,colour,0.5
154,22,0,1,4,17,167,258.29512186162174,259.11993164382875,"[6, 0, 248]",248,a,0.30274278298020363,colour,0.5
154,22,0,1,4,18,168,259.63899320364,260.4719548113644,"[75, 0, 179]",179,l,0.3107284065335989,colour,0.5
154,22,0,1,4,19,169,260.9828976280987,261.8399681299925,"[9, 0, 245]",245,a,0.33484754152595997,colour,0.5
154,22,0,1,4,20,170,262.35801947303116,263.21595564857125,"[12, 0, 242]",242,a,0.3358597233891487,colour,0.5
154,22,0,1,4,21,171,263.73307082057,264.63225489109755,"[66, 0, 188]",188,l,0.37688627652823925,colour,0.5
154,22,0,1,4,22,172,265.1394215095788,265.99995470792055,"[18, 0, 236]",236,a,0.33809519559144974,colour,0.5
154,22,0,1,4,23,173,266.51455320231616,267.247948160395,"[38, 0, 216]",216,a,0.2112495843321085,colour,0.5
154,22,0,1,4,24,174,267.76462773792446,268.3999534472823,"[65, 0, 189]",189,l,0.11311968229711056,colour,0.5
154,22,0,1,4,25,175,268.90535484813154,269.5519603099674,"[77, 0, 177]",177,l,0.12436595745384693,colour,0.5
154,22,0,1,4,26,176,270.0617121346295,270.7279724832624,"[72, 0, 182]",182,l,0.14398815669119358,colour,0.5
154,22,0,1,4,27,177,271.2337318919599,271.8639549314976,"[89, 0, 165]",165,l,0.10803001001477242,colour,0.5
154,22,0,1,4,28,178,272.374408589676,273.1439251396805,"[26, 0, 228]",228,a,0.24741174094378948,colour,0.5
154,22,0,1,4,29,179,273.6557576544583,274.63992268033326,"[59, 0, 195]",195,a,0.4619294609874487,colour,0.5
154,22,0,1,4,30,180,275.1558732483536,275.85594646446407,"[16, 0, 238]",238,a,0.1783193238079548,colour,0.5
154,22,0,1,4,31,181,276.3747177589685,277.01595273427665,"[82, 0, 172]",172,l,0.11912465281784534,colour,0.5
154,22,0,1,4,32,182,277.53114042431116,278.1279231738299,"[61, 0, 193]",193,l,0.07465746253728867,colour,0.5
154,22,0,1,4,33,183,278.64055125787854,279.27993633784354,"[93, 0, 161]",161,l,0.11720229126513004,colour,0.5
154,22,0,1,4,34,184,279.7968112640083,280.3759623132646,"[91, 0, 163]",163,l,0.05683159455657005,colour,0.5
154,22,0,1,4,35,185,280.8907108642161,281.6239254400134,"[7, 0, 247]",247,a,0.21107865497469902,colour,0.5
154,22,0,1,4,36,186,282.1408078484237,282.83996182866395,"[53, 0, 201]",201,a,0.1770349945873022,colour,0.5
154,22,0,1,4,37,187,283.3596023414284,284.087948191911,"[47, 0, 207]",207,a,0.20613549277186394,colour,0.5
154,22,0,1,4,38,188,284.5941207446158,285.1759653054178,"[88, 0, 166]",166,l,0.05963302217423916,colour,0.5
154,22,0,1,4,39,189,285.68796008452773,286.44794871099293,"[3, 0, 251]",251,a,0.2377400640398264,colour,0.5
154,22,0,1,4,40,190,286.95372820459306,287.57593844644725,"[40, 0, 214]",214,a,0.09994592517614365,colour,0.5
154,22,0,1,4,41,191,288.0944478325546,288.8001396562904,"[73, 0, 181]",181,l,0.18351691029965878,colour,0.5
154,22,0,1,4,42,192,289.31322460249066,289.9039117973298,"[34, 0, 220]",220,a,0.06838073767721653,colour,0.5
154,22,0,1,4,43,193,290.4227815531194,291.1439731903374,"[33, 0, 221]",221,a,0.19902735948562622,colour,0.5
154,22,0,1,4,44,194,291.65715541504323,292.35194124653935,"[67, 0, 187]",187,l,0.17257114127278328,colour,0.5
154,22,0,1,4,45,195,292.8603898361325,293.64792366325855,"[2, 0, 252]",252,a,0.2652576956897974,colour,0.5
154,22,0,1,4,46,196,294.15733953751624,294.9519633818418,"[85, 0, 169]",169,l,0.2724375110119581,colour,0.5
154,22,0,1,4,47,197,295.4700572602451,296.15996294654906,"[62, 0, 192]",192,l,0.16773274168372154,colour,0.5
154,22,0,1,4,48,198,296.6731684077531,297.4559603277594,"[27, 0, 227]",227,a,0.2605035789310932,colour,0.5
154,22,0,1,4,49,199,297.9701720662415,299.3759631011635,"[55, 0, 199]",199,a,0.8835924919694662,colour,0.5
154,22,0,1,4,50,200,299.89218148589134,300.9199369996786,"[90, 0, 164]",164,l,0.5059555433690548,colour,0.5
154,22,0,1,5,1,201,313.0018112976104,313.76791162602603,"[84, 0, 170]",170,l,0.24369934760034084,colour,0.5
154,22,0,1,5,2,202,314.28403903357685,314.83197226561606,"[42, 0, 212]",212,a,0.02577880024909973,colour,0.5
154,22,0,1,5,3,203,315.34637541510165,315.991959631443,"[83, 0, 171]",171,l,0.12313951924443245,colour,0.5
154,22,0,1,5,4,204,316.50290599279106,317.0719615854323,"[95, 0, 159]",159,l,0.04683893173933029,colour,0.5
154,22,0,1,5,5,205,317.58109310269356,319.0479318536818,"[94, 0, 160]",160,l,0.9446181524544954,colour,0.5
154,22,0,1,5,6,206,319.5656216479838,320.4399240966886,"[34, 0, 220]",220,a,0.35207633674144745,colour,0.5
154,22,0,1,5,7,207,320.95635200850666,322.0239671077579,"[18, 0, 236]",236,a,0.5453090369701385,colour,0.5
154,22,0,1,5,8,208,322.53461217693985,323.3199562188238,"[49, 0, 205]",205,a,0.2633085511624813,colour,0.5
154,22,0,1,5,9,209,323.83158235810697,324.78394588828087,"[0, 0, 254]",254,a,0.43023745343089104,colour,0.5
154,22,0,1,5,10,210,325.3004580810666,326.16794857010245,"[35, 0, 219]",219,a,0.34523838199675083,colour,0.5
154,22,0,1,5,11,211,326.67553384788334,327.48795283958316,"[22, 0, 232]",232,a,0.2903984673321247,colour,0.5
154,22,0,1,5,12,212,328.0037718638778,328.86393287591636,"[76, 0, 178]",178,l,0.33860049955546856,colour,0.5
154,22,0,1,5,13,213,329.37896066345274,330.0559308677912,"[4, 0, 250]",250,a,0.15477835573256016,colour,0.5
154,22,0,1,5,14,214,330.56663816422224,331.3759422264993,"[73, 0, 181]",181,l,0.28705983236432076,colour,0.5
154,22,0,1,5,15,215,331.8946977686137,332.6960039976984,"[41, 0, 213]",213,a,0.2790171019732952,colour,0.5
154,22,0,1,5,16,216,333.2073701992631,333.9199208524078,"[58, 0, 196]",196,a,0.19037574157118797,colour,0.5
154,22,0,1,5,17,217,334.4262040760368,335.1759334038943,"[5, 0, 249]",249,a,0.22753236070275307,colour,0.5
154,22,0,1,5,18,218,335.6919068172574,336.3439508974552,"[33, 0, 221]",221,a,0.1299845650792122,colour,0.5
154,22,0,1,5,19,219,336.8638418968767,337.62392662093043,"[71, 0, 183]",183,l,0.2376833502203226,colour,0.5
154,22,0,1,5,20,220,338.1296210438013,338.83992086723447,"[67, 0, 187]",187,l,0.18829150684177876,colour,0.5
154,22,0,1,5,21,221,339.348439168185,340.39193946681917,"[85, 0, 169]",169,l,0.5212615840137005,colour,0.5
154,22,0,1,5,22,222,340.9110880661756,341.8159450944513,"[68, 0, 186]",186,l,0.3825927134603262,colour,0.5
154,22,0,1,5,23,223,342.33309531770647,343.9919619951397,"[79, 0, 175]",175,l,1.1366338692605495,colour,0.5
154,22,0,1,5,24,224,344.5050516668707,345.3279276639223,"[52, 0, 202]",202,a,0.30062231607735157,colour,0.5
154,22,0,1,5,25,225,345.8333471827209,346.45593315176666,"[77, 0, 177]",177,l,0.10029290243983269,colour,0.5
154,22,0,1,5,26,226,346.9741621222347,347.64794138632715,"[88, 0, 166]",166,l,0.1516567338258028,colour,0.5
154,22,0,1,5,27,227,348.1616265513003,348.99992792494595,"[37, 0, 217]",217,a,0.3160130325704813,colour,0.5
154,22,0,1,5,28,228,349.5054719001055,350.1999402921647,"[74, 0, 180]",180,l,0.17216114699840546,colour,0.5
154,22,0,1,5,29,229,350.70871813595295,351.2719140872359,"[31, 0, 223]",223,a,0.04117069952189922,colour,0.5
154,22,0,1,5,30,230,351.7868686206639,353.0639641471207,"[65, 0, 189]",189,l,0.754792220890522,colour,0.5
154,22,0,1,5,31,231,353.58396739140153,354.2559262998402,"[40, 0, 214]",214,a,0.14989899843931198,colour,0.5
154,22,0,1,5,32,232,354.77159408666193,355.48791306093335,"[50, 0, 204]",204,a,0.19412397406995296,colour,0.5
154,22,0,1,5,33,233,356.0060360841453,356.5599557776004,"[10, 0, 244]",244,a,0.032424164935946465,colour,0.5
154,22,0,1,5,34,234,357.0687076281756,357.8959364145994,"[14, 0, 240]",240,a,0.30508459359407425,colour,0.5
154,22,0,1,5,35,235,358.4125096537173,359.0159413125366,"[98, 0, 156]",156,l,0.08122208714485168,colour,0.5
154,22,0,1,5,36,236,359.52193821035326,360.33591643720865,"[26, 0, 228]",228,a,0.2917855903506279,colour,0.5
154,22,0,1,5,37,237,360.8501707110554,361.46389947645366,"[16, 0, 238]",238,a,0.09155897237360477,colour,0.5
154,22,0,1,5,38,238,361.97532081604004,362.6319559607655,"[15, 0, 239]",239,a,0.13471820019185543,colour,0.5
154,22,0,1,5,39,239,363.1471621617675,363.78394313156605,"[32, 0, 222]",222,a,0.11444261111319065,colour,0.5
154,22,0,1,5,40,240,364.30353520065546,364.93594920635223,"[72, 0, 182]",182,l,0.110209159553051,colour,0.5
154,22,0,1,5,41,241,365.44425522349775,366.0319487936795,"[86, 0, 168]",168,l,0.06533512659370899,colour,0.5
154,22,0,1,5,42,242,366.53846517391503,367.11194995976985,"[2, 0, 252]",252,a,0.051629677414894104,colour,0.5
154,22,0,1,5,43,243,367.6319256350398,368.37593238055706,"[69, 0, 185]",185,l,0.22174400463700294,colour,0.5
154,22,0,1,5,44,244,368.88201553002,369.46391680650413,"[36, 0, 218]",218,a,0.059595607221126556,colour,0.5
154,22,0,1,5,45,245,369.9759092219174,370.511906163767,"[90, 0, 164]",164,l,0.013974053785204887,colour,0.5
154,22,0,1,5,46,246,371.0228206217289,371.61593075841665,"[9, 0, 245]",245,a,0.07090332172811031,colour,0.5
154,22,0,1,5,47,247,372.13227399252355,372.9119344409555,"[66, 0, 188]",188,l,0.2574095241725445,colour,0.5
154,22,0,1,5,48,248,373.4292867090553,373.9999444670975,"[21, 0, 233]",233,a,0.04839619994163513,colour,0.5
154,22,0,1,5,49,249,374.5074482187629,375.1119168754667,"[63, 0, 191]",191,l,0.08223190903663635,colour,0.5
154,22,0,1,5,50,250,375.6166672501713,376.8799344468862,"[8, 0, 246]",246,a,0.7406578715890646,colour,0.5
154,22,0,1,6,1,251,381.88229240477085,382.46395264565945,"[38, 0, 216]",216,a,0.058669280260801315,colour,0.5
154,22,0,1,6,2,252,382.9769962374121,383.50395756214857,"[95, 0, 159]",159,l,0.004705673083662987,colour,0.5
154,22,0,1,6,3,253,384.0239143334329,384.78392974101007,"[46, 0, 208]",208,a,0.23789051361382008,colour,0.5
154,22,0,1,6,4,254,385.289648976177,385.99190764315426,"[76, 0, 178]",178,l,0.18011250533163548,colour,0.5
154,22,0,1,6,5,255,386.5083942376077,387.5199469253421,"[21, 0, 233]",233,a,0.489792101085186,colour,0.5
154,22,0,1,6,6,256,388.03983359225094,388.6399045623839,"[0, 0, 254]",254,a,0.07785312831401825,colour,0.5
154,22,0,1,6,7,257,389.14933540299535,390.4319219328463,"[97, 0, 157]",157,l,0.7603340279310942,colour,0.5
154,22,0,1,6,8,258,390.946340046823,392.59991028159857,"[77, 0, 177]",177,l,1.1313063129782677,colour,0.5
154,22,0,1,6,9,259,393.11830190755427,393.80791378580034,"[14, 0, 240]",240,a,0.16753936558961868,colour,0.5
154,22,0,1,6,10,260,394.32152412086725,395.4639140497893,"[36, 0, 218]",218,a,0.6201153732836246,colour,0.5
154,22,0,1,6,11,261,395.97792807780206,396.8559145629406,"[64, 0, 190]",190,a,0.35568081587553024,colour,0.5
154,22,0,1,6,12,262,397.3686178717762,397.9999078400433,"[88, 0, 166]",166,l,0.10905519127845764,colour,0.5
154,22,0,1,6,13,263,398.50941114872694,399.18394029513,"[20, 0, 234]",234,a,0.1525003518909216,colour,0.5
154,22,0,1,6,14,264,399.69696261920035,400.25593023747206,"[73, 0, 181]",181,l,0.03677104413509369,colour,0.5
154,22,0,1,6,15,265,400.77518005669117,402.7359234485775,"[56, 0, 198]",198,a,1.438742559403181,colour,0.5
154,22,0,1,6,16,266,403.24409673921764,404.6159378476441,"[61, 0, 193]",193,a,0.849518109112978,colour,0.5
154,22,0,1,6,17,267,405.13487101346254,406.15194069594145,"[93, 0, 161]",161,l,0.49475968070328236,colour,0.5
154,22,0,1,6,18,268,406.66628516092896,407.65595615282655,"[1, 0, 253]",253,a,0.4674326702952385,colour,0.5
154,22,0,1,6,19,269,408.1663637328893,409.0879292860627,"[42, 0, 212]",212,a,0.3992776069790125,colour,0.5
154,22,0,1,6,20,270,409.6040086429566,410.2719455957413,"[45, 0, 209]",209,a,0.14565058052539825,colour,0.5
154,22,0,1,6,21,271,410.79164163954556,411.9439206495881,"[65, 0, 189]",189,l,0.6301871985197067,colour,0.5
154,22,0,1,6,22,272,412.4636710472405,413.39990736730397,"[75, 0, 179]",179,l,0.4139794874936342,colour,0.5
154,22,0,1,6,23,273,413.91684176400304,415.47194181382656,"[25, 0, 229]",229,a,1.0328420363366604,colour,0.5
154,22,0,1,6,24,274,415.97955387458205,416.7279086802155,"[89, 0, 165]",165,l,0.2261991910636425,colour,0.5
154,22,0,1,6,25,275,417.2452105358243,417.9999389536679,"[58, 0, 196]",196,l,0.23236406594514847,colour,0.5
154,22,0,1,6,26,276,418.51082741841674,419.17594285681844,"[49, 0, 205]",205,a,0.14276329427957535,colour,0.5
154,22,0,1,6,27,277,419.68292161263525,420.23192374408245,"[15, 0, 239]",239,a,0.026827218011021614,colour,0.5
154,22,0,1,6,28,278,420.7454832736403,421.53591580688953,"[27, 0, 227]",227,a,0.26809102296829224,colour,0.5
154,22,0,1,6,29,279,422.04254404082894,424.319888478145,"[16, 0, 238]",238,a,1.755397168919444,colour,0.5
154,22,0,1,6,30,280,424.8395778276026,426.7999269794673,"[11, 0, 243]",243,a,1.4381112232804298,colour,0.5
154,22,0,1,6,31,281,427.3084799386561,427.92792813666165,"[70, 0, 184]",184,l,0.0973847433924675,colour,0.5
154,22,0,1,6,32,282,428.43360404856503,428.99991847388446,"[24, 0, 230]",230,a,0.04407610185444355,colour,0.5
154,22,0,1,6,33,283,429.51189080253243,430.18389894254506,"[98, 0, 156]",156,l,0.14979069121181965,colour,0.5
154,22,0,1,6,34,284,430.69939383119345,431.3038983270526,"[67, 0, 187]",187,l,0.0822177305817604,colour,0.5
154,22,0,1,6,35,285,431.8088763449341,432.5119294002652,"[94, 0, 160]",160,l,0.18098369427025318,colour,0.5
154,22,0,1,6,36,286,433.02778977900743,433.9679306894541,"[54, 0, 200]",200,l,0.4178935308009386,colour,0.5
154,22,0,1,6,37,287,434.481035720557,435.20790543593466,"[74, 0, 180]",180,l,0.20463178865611553,colour,0.5
154,22,0,1,6,38,288,435.71565849147737,436.23991133645177,"[26, 0, 228]",228,a,0.0022055376321077347,colour,0.5
154,22,0,1,6,39,289,436.76242456398904,438.19194324687123,"[7, 0, 247]",247,a,0.9072555489838123,colour,0.5
154,22,0,1,6,40,290,438.70004367642105,440.1199320368469,"[3, 0, 251]",251,a,0.8976264074444771,colour,0.5
154,22,0,1,6,41,291,440.6377206854522,441.4319022409618,"[51, 0, 203]",203,a,0.2719077877700329,colour,0.5
154,22,0,1,6,42,292,441.9503994192928,442.6399085018784,"[47, 0, 207]",207,a,0.16736725345253944,colour,0.5
154,22,0,1,6,43,293,443.15353183448315,446.20789677090943,"[5, 0, 249]",249,a,2.5320797469466925,colour,0.5
154,22,0,1,6,44,294,446.7163047939539,447.51989926956594,"[62, 0, 192]",192,l,0.2812332734465599,colour,0.5
154,22,0,1,6,45,295,448.02895044349134,448.8399311080575,"[9, 0, 245]",245,a,0.2886950820684433,colour,0.5
154,22,0,1,6,46,296,449.3571309559047,450.4079138636589,"[60, 0, 194]",194,l,0.5285091381520033,colour,0.5
154,22,0,1,6,47,297,450.91987122781575,451.71190041303635,"[96, 0, 158]",158,l,0.26988341845571995,colour,0.5
154,22,0,1,6,48,298,452.23237469792366,452.8079370222986,"[39, 0, 215]",215,a,0.053286587819457054,colour,0.5
154,22,0,1,6,49,299,453.32628178037703,454.2479221653193,"[79, 0, 175]",175,a,0.3994946163147688,colour,0.5
154,22,0,1,6,50,300,454.76376797258854,455.58395833335817,"[37, 0, 217]",217,a,0.2978378236293793,colour,0.5
154,22,0,1,7,1,301,460.0760575849563,460.5999547857791,"[2, 0, 252]",252,a,0.0009180549532175064,colour,0.5
154,22,0,1,7,2,302,461.12376455403864,461.8478986136615,"[84, 0, 170]",170,l,0.20205800235271454,colour,0.5
154,22,0,1,7,3,303,462.3582278173417,463.0959188491106,"[35, 0, 219]",219,a,0.2155188750475645,colour,0.5
154,22,0,1,7,4,304,463.6082964465022,464.39991603046656,"[38, 0, 216]",216,a,0.26946908980607986,colour,0.5
154,22,0,1,7,5,305,464.90526268817484,466.54390064254403,"[65, 0, 189]",189,l,1.116284629330039,colour,0.5
154,22,0,1,7,6,306,467.0617105588317,467.9199224282056,"[46, 0, 208]",208,a,0.3368293736129999,colour,0.5
154,22,0,1,7,7,307,468.4366898331791,469.2719148751348,"[99, 0, 155]",155,l,0.31283508986234665,colour,0.5
154,22,0,1,7,8,308,469.78064585104585,470.5999122504145,"[0, 0, 254]",254,a,0.2970304396003485,colour,0.5
154,22,0,1,7,9,309,471.10886338725686,471.9679031204432,"[53, 0, 201]",201,a,0.33741659857332706,colour,0.5
154,22,0,1,7,10,310,472.4839816894382,473.33593337237835,"[4, 0, 250]",250,a,0.3296865802258253,colour,0.5
154,22,0,1,7,11,311,473.84350841119885,474.5919215083122,"[91, 0, 163]",163,l,0.22617634944617748,colour,0.5
154,22,0,1,7,12,312,475.1092300582677,476.8719090465456,"[55, 0, 199]",199,l,1.2410097736865282,colour,0.5
154,22,0,1,7,13,313,477.39065946638584,478.0319137405604,"[85, 0, 169]",169,l,0.11908684484660625,colour,0.5
154,22,0,1,7,14,314,478.54697342962027,479.08038555830717,"[89, 0, 165]",165,l,0.011146238073706627,colour,0.5
154,22,0,1,7,15,315,479.59392854757607,480.82392205297947,"[29, 0, 225]",225,a,0.7077606972306967,colour,0.5
154,22,0,1,7,16,316,481.3441048916429,482.46390696056187,"[43, 0, 211]",211,a,0.5976216420531273,colour,0.5
154,22,0,1,7,17,317,482.9692244734615,483.73592620529234,"[44, 0, 210]",210,a,0.24452130496501923,colour,0.5
154,22,0,1,7,18,318,484.2505459692329,485.0158889312297,"[83, 0, 171]",171,l,0.24305659160017967,colour,0.5
154,22,0,1,7,19,319,485.5318666771054,486.2559117283672,"[61, 0, 193]",193,l,0.20183075591921806,colour,0.5
154,22,0,1,7,20,320,486.76639728806913,487.7039041556418,"[75, 0, 179]",179,l,0.41526578925549984,colour,0.5
154,22,0,1,7,21,321,488.2196282632649,488.82391575165093,"[80, 0, 174]",174,l,0.08206649497151375,colour,0.5
154,22,0,1,7,22,322,489.32905760779977,490.79991240799427,"[74, 0, 180]",180,l,0.9486152958124876,colour,0.5
154,22,0,1,7,23,323,491.3136089965701,491.9759131614119,"[30, 0, 224]",224,a,0.14006781205534935,colour,0.5
154,22,0,1,7,24,324,492.48557243309915,493.72788386791945,"[26, 0, 228]",228,a,0.7200876846909523,colour,0.5
154,22,0,1,7,25,325,494.23570112138987,495.1038828101009,"[37, 0, 217]",217,a,0.34590201266109943,colour,0.5
154,22,0,1,7,26,326,495.6108320262283,496.44789120927453,"[81, 0, 173]",173,l,0.31536436825990677,colour,0.5
154,22,0,1,7,27,327,496.9547147899866,497.8718960490078,"[13, 0, 241]",241,a,0.3950287960469723,colour,0.5
154,22,0,1,7,28,328,498.39225257374346,499.40789220295846,"[28, 0, 226]",226,a,0.4935556948184967,colour,0.5
154,22,0,1,7,29,329,499.9237021673471,500.72788859531283,"[47, 0, 207]",207,a,0.2819272316992283,colour,0.5
154,22,0,1,7,30,330,501.23630213178694,502.0719076283276,"[45, 0, 209]",209,a,0.3133876547217369,colour,0.5
154,22,0,1,7,31,331,502.5801549628377,503.53589965961874,"[48, 0, 206]",206,a,0.4334260318428278,colour,0.5
154,22,0,1,7,32,332,504.0491015780717,505.0319121647626,"[52, 0, 202]",202,a,0.4607077483087778,colour,0.5
154,22,0,1,7,33,333,505.5491301305592,506.2478776611388,"[73, 0, 181]",181,l,0.17659664154052734,colour,0.5
154,22,0,1,7,34,334,506.7681365124881,507.61589255556464,"[31, 0, 223]",223,a,0.325757572427392,colour,0.5
154,22,0,1,7,35,335,508.1274229902774,509.10390919819474,"[10, 0, 244]",244,a,0.45441290736198425,colour,0.5
154,22,0,1,7,36,336,509.612008837983,510.39191544242203,"[59, 0, 195]",195,a,0.25775217078626156,colour,0.5
154,22,0,1,7,37,337,510.90885692834854,511.59191914461553,"[6, 0, 248]",248,a,0.16105587035417557,colour,0.5
154,22,0,1,7,38,338,512.112128764391,512.7118988372386,"[39, 0, 215]",215,a,0.07810834050178528,colour,0.5
154,22,0,1,7,39,339,513.2215557470918,513.8558881748468,"[66, 0, 188]",188,l,0.11198934353888035,colour,0.5
154,22,0,1,7,40,340,514.362317122519,516.1598995365202,"[41, 0, 213]",213,a,1.275297224521637,colour,0.5
154,22,0,1,7,41,341,516.6749749798328,517.6959197148681,"[54, 0, 200]",200,a,0.49889545887708664,colour,0.5
154,22,0,1,7,42,342,518.2063056323677,518.9119379855692,"[63, 0, 191]",191,a,0.18323334120213985,colour,0.5
154,22,0,1,7,43,343,519.42515723221,520.2478945963085,"[62, 0, 192]",192,a,0.30068021081387997,colour,0.5
154,22,0,1,7,44,344,520.7533641345799,521.687915187329,"[60, 0, 194]",194,a,0.4122520796954632,colour,0.5
154,22,0,1,7,45,345,522.2067057806998,523.0399135425687,"[98, 0, 156]",156,l,0.31106711365282536,colour,0.5
154,22,0,1,7,46,346,523.5505460072309,524.3758890572935,"[58, 0, 196]",196,a,0.3030933067202568,colour,0.5
154,22,0,1,7,47,347,524.8943645749241,525.7599063105881,"[42, 0, 212]",212,a,0.34322503954172134,colour,0.5
154,22,0,1,7,48,348,526.2694324627519,527.0958794634789,"[33, 0, 221]",221,a,0.3041834719479084,colour,0.5
154,22,0,1,7,49,349,527.6134251095355,528.4318955447525,"[14, 0, 240]",240,a,0.2963337264955044,colour,0.5
154,22,0,1,7,50,350,528.941574903205,530.7439145855606,"[57, 0, 197]",197,l,1.28024235740304,colour,0.5
154,22,0,1,8,1,351,535.1756974905729,536.0479149185121,"[51, 0, 203]",203,a,0.34930641762912273,colour,0.5
154,22,0,1,8,2,352,536.5671497713774,537.2959115225822,"[86, 0, 168]",168,l,0.20645253732800484,colour,0.5
154,22,0,1,8,3,353,537.8016681745648,538.8879121933132,"[32, 0, 222]",222,a,0.5639340169727802,colour,0.5
154,22,0,1,8,4,354,539.3955699391663,540.2319135051221,"[68, 0, 186]",186,l,0.3140248991549015,colour,0.5
154,22,0,1,8,5,355,540.7393920514733,541.5439258497208,"[36, 0, 218]",218,a,0.2822356130927801,colour,0.5
154,22,0,1,8,6,356,542.052012886852,542.8478710446507,"[89, 0, 165]",165,l,0.27361944131553173,colour,0.5
154,22,0,1,8,7,357,543.3645864631981,545.1678898856044,"[11, 0, 243]",243,a,1.281030047684908,colour,0.5
154,22,0,1,8,8,358,545.6772699207067,547.9038964360952,"[37, 0, 217]",217,a,1.704343294724822,colour,0.5
154,22,0,1,8,9,359,548.4117735549808,549.2958878912032,"[33, 0, 221]",221,a,0.36177125200629234,colour,0.5
154,22,0,1,8,10,360,549.8026208877563,550.8878834433854,"[87, 0, 167]",167,l,0.5630029663443565,colour,0.5
154,22,0,1,8,11,361,551.3965395893902,552.0799196381122,"[12, 0, 242]",242,a,0.16112872958183289,colour,0.5
154,22,0,1,8,12,362,552.599752349779,553.4399004671723,"[99, 0, 155]",155,l,0.31794681772589684,colour,0.5
154,22,0,1,8,13,363,553.9591928198934,554.7518647629768,"[22, 0, 232]",232,a,0.2709176577627659,colour,0.5
154,22,0,1,8,14,364,555.2718305923045,556.0798739530146,"[16, 0, 238]",238,a,0.28699287958443165,colour,0.5
154,22,0,1,8,15,365,556.5998547486961,557.3118721339852,"[14, 0, 240]",240,a,0.1895785965025425,colour,0.5
154,22,0,1,8,16,366,557.8189142998308,558.4558795895427,"[79, 0, 175]",175,l,0.11469191499054432,colour,0.5
154,22,0,1,8,17,367,558.975181395188,559.6958740279078,"[4, 0, 250]",250,a,0.19857325218617916,colour,0.5
154,22,0,1,8,18,368,560.2096950728446,560.855872027576,"[8, 0, 246]",246,a,0.12399416603147984,colour,0.5
154,22,0,1,8,19,369,561.3660031277686,563.263871749863,"[15, 0, 239]",239,a,1.3755771312862635,colour,0.5
154,22,0,1,8,20,370,563.7724956013262,564.6239211075008,"[13, 0, 241]",241,a,0.32928919047117233,colour,0.5
154,22,0,1,8,21,371,565.1319612786174,565.9518653135747,"[59, 0, 195]",195,l,0.29767516627907753,colour,0.5
154,22,0,1,8,22,372,566.4601839333773,567.2159107513726,"[23, 0, 231]",231,a,0.23351173289120197,colour,0.5
154,22,0,1,8,23,373,567.7258803732693,568.4798841141164,"[97, 0, 157]",157,l,0.23203756660223007,colour,0.5
154,22,0,1,8,24,374,568.9916705489159,569.6798700932413,"[27, 0, 227]",227,a,0.16604983806610107,colour,0.5
154,22,0,1,8,25,375,570.1948348656297,570.8799001835287,"[2, 0, 252]",252,a,0.16275964863598347,colour,0.5
154,22,0,1,8,26,376,571.3980755880475,572.1599042639136,"[17, 0, 237]",237,a,0.23974552936851978,colour,0.5
154,22,0,1,8,27,377,572.6794427707791,573.351893985644,"[67, 0, 187]",187,l,0.15026015602052212,colour,0.5
154,22,0,1,8,28,378,573.8670824617147,574.58386105299,"[46, 0, 208]",208,a,0.1945926509797573,colour,0.5
154,22,0,1,8,29,379,575.1013866141438,575.6478771883994,"[56, 0, 198]",198,a,0.02466697245836258,colour,0.5
154,22,0,1,8,30,380,576.1641156598926,576.7838694825768,"[34, 0, 220]",220,a,0.09745248593389988,colour,0.5
154,22,0,1,8,31,381,577.2891188599169,577.8318789247423,"[9, 0, 245]",245,a,0.020374052226543427,colour,0.5
154,22,0,1,8,32,382,578.3517498373985,579.015907837078,"[82, 0, 172]",172,l,0.14187714271247387,colour,0.5
154,22,0,1,8,33,383,579.5237309969962,580.1038902923465,"[26, 0, 228]",228,a,0.05781345255672932,colour,0.5
154,22,0,1,8,34,384,580.6175254415721,582.2879018746316,"[24, 0, 230]",230,a,1.1481160558760166,colour,0.5
154,22,0,1,8,35,385,582.8052608370781,584.7279157694429,"[80, 0, 174]",174,l,1.4004303943365812,colour,0.5
154,22,0,1,8,36,386,585.2429167758673,586.0399021208286,"[60, 0, 194]",194,l,0.275027047842741,colour,0.5
154,22,0,1,8,37,387,586.5554702654481,587.3598902430385,"[6, 0, 248]",248,a,0.28210958279669285,colour,0.5
154,22,0,1,8,38,388,587.8681190647185,588.6878659557551,"[91, 0, 163]",163,l,0.2974880877882242,colour,0.5
154,22,0,1,8,39,389,589.1963535360992,590.1919109523296,"[81, 0, 173]",173,l,0.4732946753501892,colour,0.5
154,22,0,1,8,40,390,590.7121367212385,591.655899439007,"[52, 0, 202]",202,l,0.42149446345865726,colour,0.5
154,22,0,1,8,41,391,592.165372421965,593.0318692363799,"[64, 0, 190]",190,l,0.34431678242981434,colour,0.5
154,22,0,1,8,42,392,593.5404619723558,594.3118815869093,"[65, 0, 189]",189,l,0.24914584681391716,colour,0.5
154,22,0,1,8,43,393,594.8218433335423,597.4878575280309,"[29, 0, 225]",225,l,2.143775872886181,colour,0.5
154,22,0,1,8,44,394,597.9939678534865,598.8158836532384,"[57, 0, 197]",197,l,0.29972474090754986,colour,0.5
154,22,0,1,8,45,395,599.3221708163619,599.9358960371464,"[83, 0, 171]",171,l,0.09147508442401886,colour,0.5
154,22,0,1,8,46,396,600.447177561,601.1279015131295,"[73, 0, 181]",181,l,0.15836196392774582,colour,0.5
154,22,0,1,8,47,397,601.6348125264049,602.4638809673488,"[49, 0, 205]",205,l,0.30679191648960114,colour,0.5
154,22,0,1,8,48,398,602.9787311293185,603.7838911432773,"[55, 0, 199]",199,l,0.28296934626996517,colour,0.5
154,22,0,1,8,49,399,604.2913433015347,604.9358980059624,"[90, 0, 164]",164,l,0.12244950234889984,colour,0.5
154,22,0,1,8,50,400,605.4475485626608,606.1678745262325,"[94, 0, 160]",160,l,0.19788441620767117,colour,0.5
154,22,0,1,9,1,401,611.1817690227181,612.1038969885558,"[57, 0, 197]",197,l,0.39920947328209877,colour,0.5
154,22,0,1,9,2,402,612.6200929228216,616.8158777467906,"[15, 0, 239]",239,l,3.673508692532778,colour,0.5
154,22,0,1,9,3,403,617.323580391705,618.6159165799618,"[29, 0, 225]",225,a,0.7700892016291618,colour,0.5
154,22,0,1,9,4,404,619.1362293884158,621.2079058289528,"[41, 0, 213]",213,a,1.5494341813027859,colour,0.5
154,22,0,1,9,5,405,621.7145872302353,622.5278687439859,"[68, 0, 186]",186,l,0.2910305876284838,colour,0.5
154,22,0,1,9,6,406,623.0429118927568,623.7678927220404,"[64, 0, 190]",190,l,0.20316668041050434,colour,0.5
154,22,0,1,9,7,407,624.2771853227168,625.0238513182849,"[24, 0, 230]",230,a,0.22437096014618874,colour,0.5
154,22,0,1,9,8,408,625.5429747104645,626.3198553957045,"[78, 0, 176]",176,l,0.2550992239266634,colour,0.5
154,22,0,1,9,9,409,626.8399795517325,627.5838933493942,"[62, 0, 192]",192,l,0.2216628734022379,colour,0.5
154,22,0,1,9,10,410,628.0900725964457,629.0798967964947,"[26, 0, 228]",228,a,0.4676347151398659,colour,0.5
154,22,0,1,9,11,411,629.5901677105576,630.3998860996217,"[27, 0, 227]",227,a,0.28752575255930424,colour,0.5
154,22,0,1,9,12,412,630.9183931238949,631.8798820655793,"[17, 0, 237]",237,a,0.4392297472804785,colour,0.5
154,22,0,1,9,13,413,632.3872397020459,633.2318678181618,"[63, 0, 191]",191,l,0.32232559844851494,colour,0.5
154,22,0,1,9,14,414,633.7468125037849,634.7278771735728,"[36, 0, 218]",218,a,0.4588216207921505,colour,0.5
154,22,0,1,9,15,415,635.2468662653118,636.2238762881607,"[72, 0, 182]",182,l,0.4547307416796684,colour,0.5
154,22,0,1,9,16,416,636.7313646804541,637.679888209328,"[56, 0, 198]",198,l,0.42633916437625885,colour,0.5
154,22,0,1,9,17,417,638.2001935355365,639.039874156937,"[86, 0, 168]",168,l,0.3173505328595638,colour,0.5
154,22,0,1,9,18,418,639.5596733912826,640.4078496675938,"[70, 0, 184]",184,l,0.3261951357126236,colour,0.5
154,22,0,1,9,19,419,640.919226501137,641.767873423174,"[9, 0, 245]",245,a,0.3264145068824291,colour,0.5
154,22,0,1,9,20,420,642.2786397971213,643.3518750816584,"[8, 0, 246]",246,a,0.5509709697216749,colour,0.5
154,22,0,1,9,21,421,643.8569302912802,644.6479063332081,"[89, 0, 165]",165,l,0.268721966072917,colour,0.5
154,22,0,1,9,22,422,645.1539705786854,646.0078485645354,"[7, 0, 247]",247,a,0.33168141171336174,colour,0.5
154,22,0,1,9,23,423,646.513356698677,647.3358742967248,"[83, 0, 171]",171,l,0.30019499361515045,colour,0.5
154,22,0,1,9,24,424,647.8416443374008,648.6959067173302,"[87, 0, 167]",167,l,0.3321595396846533,colour,0.5
154,22,0,1,9,25,425,649.2011171039194,650.0718497335911,"[23, 0, 231]",231,a,0.3485065158456564,colour,0.5
154,22,0,1,9,26,426,650.5918084736913,651.3278709501028,"[58, 0, 196]",196,l,0.21400059759616852,colour,0.5
154,22,0,1,9,27,427,651.8419460244477,653.479903018102,"[43, 0, 211]",211,a,1.115909293293953,colour,0.5
154,22,0,1,9,28,428,653.9983919262886,654.8798513468355,"[50, 0, 204]",204,a,0.35929829254746437,colour,0.5
154,22,0,1,9,29,429,655.3890738431364,656.1998670361936,"[20, 0, 234]",234,a,0.2885237578302622,colour,0.5
154,22,0,1,9,30,430,656.7173512428999,657.4798498488963,"[59, 0, 195]",195,a,0.24022365733981133,colour,0.5
154,22,0,1,9,31,431,657.9986613169312,658.807867705822,"[10, 0, 244]",244,a,0.2870263569056988,colour,0.5
154,22,0,1,9,32,432,659.3268894851208,660.1918597519398,"[75, 0, 179]",179,l,0.3426866512745619,colour,0.5
154,22,0,1,9,33,433,660.7019502855837,663.3439095448703,"[34, 0, 220]",220,a,2.1196791902184486,colour,0.5
154,22,0,1,9,34,434,663.8584855906665,665.9998814519495,"[35, 0, 219]",219,a,1.6192713622003794,colour,0.5
154,22,0,1,9,35,435,666.5149631965905,667.4558827411383,"[14, 0, 240]",240,a,0.4187080040574074,colour,0.5
154,22,0,1,9,36,436,667.968262700364,668.8878680821508,"[55, 0, 199]",199,a,0.39737887494266033,colour,0.5
154,22,0,1,9,37,437,669.4058008790016,670.2958469316363,"[65, 0, 189]",189,a,0.3677577115595341,colour,0.5
154,22,0,1,9,38,438,670.8122586943209,671.6158456876874,"[80, 0, 174]",174,l,0.2813959326595068,colour,0.5
154,22,0,1,9,39,439,672.1248614154756,672.9838609751314,"[88, 0, 166]",166,l,0.33749339915812016,colour,0.5
154,22,0,1,9,40,440,673.4999123681337,674.6398710850626,"[1, 0, 253]",253,a,0.6176892817020416,colour,0.5
154,22,0,1,9,41,441,675.156322626397,676.0558946337551,"[30, 0, 224]",224,a,0.3774018194526434,colour,0.5
154,22,0,1,9,42,442,676.5626886766404,677.4478943608701,"[60, 0, 194]",194,a,0.36349984258413315,colour,0.5
154,22,0,1,9,43,443,677.953376499936,678.8318765610456,"[11, 0, 243]",243,a,0.3562908824533224,colour,0.5
154,22,0,1,9,44,444,679.3441147375852,680.2078672330827,"[92, 0, 162]",162,l,0.3414515517652035,colour,0.5
154,22,0,1,9,45,445,680.7192192543298,681.5998756233603,"[37, 0, 217]",217,a,0.3584180474281311,colour,0.5
154,22,0,1,9,46,446,682.1099704876542,683.1038635112345,"[46, 0, 208]",208,a,0.4724463317543268,colour,0.5
154,22,0,1,9,47,447,683.610088840127,684.4798805695027,"[77, 0, 177]",177,l,0.3477152790874243,colour,0.5
154,22,0,1,9,48,448,684.9851862676442,686.0959093961865,"[13, 0, 241]",241,a,0.5883461739867926,colour,0.5
154,22,0,1,9,49,449,686.6103208139539,687.6879136115313,"[76, 0, 178]",178,l,0.5553777124732733,colour,0.5
154,22,0,1,9,50,450,688.2041713800281,689.0638507194817,"[21, 0, 233]",233,a,0.3376469984650612,colour,0.5
154,22,0,1,10,1,451,698.0323950201273,699.1918908655643,"[62, 0, 192]",192,l,0.637356773018837,colour,0.5
154,22,0,1,10,2,452,699.7051400449127,701.2318512760103,"[3, 0, 251]",251,a,1.0045835804194212,colour,0.5
154,22,0,1,10,3,453,701.7522385213524,702.6078506112099,"[50, 0, 204]",204,a,0.33346080780029297,colour,0.5
154,22,0,1,10,4,454,703.1272390633821,704.6478724628687,"[97, 0, 157]",157,l,0.9989815149456263,colour,0.5
154,22,0,1,10,5,455,705.1586864907295,706.0718871485442,"[90, 0, 164]",164,l,0.3911832831799984,colour,0.5
154,22,0,1,10,6,456,706.5805771648884,707.4638317357749,"[14, 0, 240]",240,a,0.3609548080712557,colour,0.5
154,22,0,1,10,7,457,707.9714040178806,708.9758635368198,"[18, 0, 236]",236,a,0.4822597950696945,colour,0.5
154,22,0,1,10,8,458,709.4871009495109,710.4318715203553,"[31, 0, 223]",223,a,0.42246805131435394,colour,0.5
154,22,0,1,10,9,459,710.9404039978981,711.895880093798,"[42, 0, 212]",212,a,0.4332925174385309,colour,0.5
154,22,0,1,10,10,460,712.4092419128865,713.0158786922693,"[99, 0, 155]",155,l,0.08463791571557522,colour,0.5
154,22,0,1,10,11,461,713.5343108847737,714.1678556222469,"[8, 0, 246]",246,a,0.1113757323473692,colour,0.5
154,22,0,1,10,12,462,714.6750269681215,715.5198780018836,"[69, 0, 185]",185,l,0.32276316173374653,colour,0.5
154,22,0,1,10,13,463,716.0345674753189,717.1998339537531,"[5, 0, 249]",249,a,0.6430242173373699,colour,0.5
154,22,0,1,10,14,464,717.7065011765808,718.6160142533481,"[32, 0, 222]",222,a,0.38701954297721386,colour,0.5
154,22,0,1,10,15,465,719.1285745948553,719.6643297150731,"[44, 0, 210]",210,a,0.014196576550602913,colour,0.5
154,22,0,1,10,16,466,720.1755261681974,720.9518605880439,"[83, 0, 171]",171,l,0.2543784864246845,colour,0.5
154,22,0,1,10,17,467,721.4567901622504,722.2318646684289,"[28, 0, 226]",226,a,0.25279758870601654,colour,0.5
154,22,0,1,10,18,468,722.7381904255599,723.2798934094608,"[95, 0, 159]",159,l,0.02028149738907814,colour,0.5
154,22,0,1,10,19,469,723.7849332597107,724.5838799588382,"[39, 0, 215]",215,a,0.27655595913529396,colour,0.5
154,22,0,1,10,20,470,725.0976726450026,725.8718464244157,"[29, 0, 225]",225,a,0.25252543948590755,colour,0.5
154,22,0,1,10,21,471,726.3790796045214,727.1678926423192,"[24, 0, 230]",230,a,0.2665424197912216,colour,0.5
154,22,0,1,10,22,472,727.6761419456452,728.4158900342882,"[6, 0, 248]",248,a,0.21778624691069126,colour,0.5
154,22,0,1,10,23,473,728.9261392876506,729.9758662935346,"[67, 0, 187]",187,l,0.527665127068758,colour,0.5
154,22,0,1,10,24,474,730.4887633733451,731.3040349911898,"[23, 0, 231]",231,a,0.2930325083434582,colour,0.5
154,22,0,1,10,25,475,731.8170313220471,732.5518575161695,"[25, 0, 229]",229,a,0.21254258044064045,colour,0.5
154,22,0,1,10,26,476,733.067176355049,734.0478483587503,"[56, 0, 198]",198,l,0.4585085120052099,colour,0.5
154,22,0,1,10,27,477,734.5673128236085,735.239859348163,"[86, 0, 168]",168,l,0.15039366856217384,colour,0.5
154,22,0,1,10,28,478,735.7548568099737,736.6398726608604,"[7, 0, 247]",247,a,0.3627759534865618,colour,0.5
154,22,0,1,10,29,479,737.1457789745182,737.9358625598252,"[60, 0, 194]",194,l,0.2680445499718189,colour,0.5
154,22,0,1,10,30,480,738.4425297826529,739.2318508829921,"[38, 0, 216]",216,a,0.26735571399331093,colour,0.5
154,22,0,1,10,31,481,739.7395117804408,740.6878529600799,"[36, 0, 218]",218,a,0.42605874687433243,colour,0.5
154,22,0,1,10,32,482,741.192789228633,741.9198716208339,"[9, 0, 245]",245,a,0.20510834082961082,colour,0.5
154,22,0,1,10,33,483,742.427312752232,743.3998352922499,"[58, 0, 196]",196,a,0.4503393564373255,colour,0.5
154,22,0,1,10,34,484,743.9117016792297,744.6478665545583,"[89, 0, 165]",165,l,0.2138359695672989,colour,0.5
154,22,0,1,10,35,485,745.1618553772569,746.5518586970866,"[46, 0, 208]",208,a,0.8677882347255945,colour,0.5
154,22,0,1,10,36,486,747.0683086626232,747.8478659242392,"[68, 0, 186]",186,l,0.2573981024324894,colour,0.5
154,22,0,1,10,37,487,748.3651988934726,749.1758711766452,"[73, 0, 181]",181,l,0.28841190598905087,colour,0.5
154,22,0,1,10,38,488,749.6934321820736,750.5118687469512,"[88, 0, 166]",166,l,0.2962250243872404,colour,0.5
154,22,0,1,10,39,489,751.021669017151,751.7118763886392,"[55, 0, 199]",199,l,0.1679883487522602,colour,0.5
154,22,0,1,10,40,490,752.2248731125146,752.9998704232275,"[52, 0, 202]",202,a,0.2528318502008915,colour,0.5
154,22,0,1,10,41,491,753.5061930324882,754.3358360938728,"[75, 0, 179]",179,l,0.307519743219018,colour,0.5
154,22,0,1,10,42,492,754.8501187246293,755.751826165244,"[12, 0, 242]",242,a,0.3795746695250273,colour,0.5
154,22,0,1,10,43,493,756.2720554787666,756.9598249420524,"[80, 0, 174]",174,l,0.16551696322858334,colour,0.5
154,22,0,1,10,44,494,757.4753021094948,758.383862471208,"[59, 0, 195]",195,l,0.38649218156933784,colour,0.5
154,22,0,1,10,45,495,758.8972530402243,759.4878504388034,"[63, 0, 191]",191,l,0.06827597506344318,colour,0.5
154,22,0,1,10,46,496,760.0067481584847,760.6318535618484,"[71, 0, 183]",183,l,0.10284660197794437,colour,0.5
154,22,0,1,10,47,497,761.1474126465619,761.8958694599569,"[19, 0, 235]",235,a,0.2260412611067295,colour,0.5
154,22,0,1,10,48,498,762.4132362995297,763.1998646743596,"[43, 0, 211]",211,a,0.26437823846936226,colour,0.5
154,22,0,1,10,49,499,763.7101722173393,764.4078933838755,"[17, 0, 237]",237,a,0.1755848526954651,colour,0.5
154,22,0,1,10,50,500,764.913455080241,765.5918592792004,"[79, 0, 175]",175,l,0.15627103298902512,colour,0.5
154,22,0,1,11,1,501,777.085505951196,777.9678566455841,"[6, 0, 248]",248,a,0.35935500636696815,colour,0.5
154,22,0,1,11,2,502,778.4770078565925,779.2718227151781,"[36, 0, 218]",218,a,0.2726556994020939,colour,0.5
154,22,0,1,11,3,503,779.789580643177,780.8638761620969,"[13, 0, 241]",241,a,0.5520008765161037,colour,0.5
154,22,0,1,11,4,504,781.3835080098361,782.0638392977417,"[69, 0, 185]",185,l,0.15817291662096977,colour,0.5
154,22,0,1,11,5,505,782.5710059180856,783.3198550008237,"[65, 0, 189]",189,l,0.22655286639928818,colour,0.5
154,22,0,1,11,6,506,783.8367500137538,784.5758777931333,"[37, 0, 217]",217,a,0.21681305207312107,colour,0.5
154,22,0,1,11,7,507,785.0868643261492,786.063849536702,"[28, 0, 226]",226,a,0.45472837798297405,colour,0.5
154,22,0,1,11,8,508,786.5714013390243,787.4158246554434,"[96, 0, 158]",158,l,0.32217672280967236,colour,0.5
154,22,0,1,11,9,509,787.9308544136584,788.8158415127546,"[54, 0, 200]",200,l,0.3627767413854599,colour,0.5
154,22,0,1,11,10,510,789.3215595670044,790.1758636943996,"[81, 0, 173]",173,l,0.3320402055978775,colour,0.5
154,22,0,1,11,11,511,790.6809701044112,791.4318569488823,"[76, 0, 178]",178,l,0.22847837954759598,colour,0.5
154,22,0,1,11,12,512,791.946819357574,792.6878470517695,"[39, 0, 215]",215,a,0.21883072704076767,colour,0.5
154,22,0,1,11,13,513,793.1972601693124,794.0799097921699,"[62, 0, 192]",192,a,0.3607673365622759,colour,0.5
154,22,0,1,11,14,514,794.5875974707305,795.4238508455455,"[73, 0, 181]",181,l,0.31401072070002556,colour,0.5
154,22,0,1,11,15,515,795.9317417480052,796.751852158457,"[21, 0, 233]",233,a,0.2981209997087717,colour,0.5
154,22,0,1,11,16,516,797.2596741393209,798.095830231905,"[94, 0, 160]",160,l,0.31449869461357594,colour,0.5
154,22,0,1,11,17,517,798.6036021951586,799.4318285919726,"[4, 0, 250]",250,a,0.306030610576272,colour,0.5
154,22,0,1,11,18,518,799.9474038258195,800.6958744227886,"[66, 0, 188]",188,l,0.22616099007427692,colour,0.5
154,22,0,1,11,19,519,801.2131463456899,802.0638109408319,"[31, 0, 223]",223,a,0.32839279621839523,colour,0.5
154,22,0,1,11,20,520,802.572615172714,803.3678349051625,"[26, 0, 228]",228,a,0.27295777946710587,colour,0.5
154,22,0,1,11,21,521,803.885291935876,804.6398368217051,"[61, 0, 193]",193,l,0.23239833116531372,colour,0.5
154,22,0,1,11,22,522,805.1509261485189,805.8878735974431,"[40, 0, 214]",214,a,0.21474378556013107,colour,0.5
154,22,0,1,11,23,523,806.4010904803872,807.1678107231855,"[93, 0, 161]",161,l,0.2444657739251852,colour,0.5
154,22,0,1,11,24,524,807.682346990332,808.5918561294675,"[49, 0, 205]",205,a,0.3870790135115385,colour,0.5
154,22,0,1,11,25,525,809.1044042613357,809.9038775321096,"[80, 0, 174]",174,l,0.27810534834861755,colour,0.5
154,22,0,1,11,26,526,810.4170077703893,811.3838156033307,"[70, 0, 184]",184,l,0.44446396082639694,colour,0.5
154,22,0,1,11,27,527,811.9014687687159,812.7438389658928,"[99, 0, 155]",155,l,0.3201661389321089,colour,0.5
154,22,0,1,11,28,528,813.2609403543174,814.095841653645,"[25, 0, 229]",229,a,0.31260823272168636,colour,0.5
154,22,0,1,11,29,529,814.6048010624945,815.5518464874476,"[60, 0, 194]",194,a,0.4248098600655794,colour,0.5
154,22,0,1,11,30,530,816.0580647271127,816.8478218130767,"[91, 0, 163]",163,l,0.267538458108902,colour,0.5
154,22,0,1,11,31,531,817.3550278190523,818.215818984434,"[35, 0, 219]",219,a,0.33855953998863697,colour,0.5
154,22,0,1,11,32,532,818.7302481271327,819.5758415590972,"[29, 0, 225]",225,a,0.32333896309137344,colour,0.5
154,22,0,1,11,33,533,820.089725619182,820.943845031783,"[42, 0, 212]",212,a,0.33201933093369007,colour,0.5
154,22,0,1,11,34,534,821.4491022862494,822.2958437819034,"[72, 0, 182]",182,l,0.3244626075029373,colour,0.5
154,22,0,1,11,35,535,822.8086325544864,823.655861236155,"[71, 0, 183]",183,l,0.32518610171973705,colour,0.5
154,22,0,1,11,36,536,824.1681584902108,824.9521792083979,"[7, 0, 247]",247,a,0.26247950457036495,colour,0.5
154,22,0,1,11,37,537,825.4650199692696,826.2238380853087,"[23, 0, 231]",231,a,0.23660697042942047,colour,0.5
154,22,0,1,11,38,538,826.7308164462447,827.4798833262175,"[79, 0, 175]",175,l,0.22677302546799183,colour,0.5
154,22,0,1,11,39,539,827.9966058339924,828.8078424986452,"[84, 0, 170]",170,l,0.28901212848722935,colour,0.5
154,22,0,1,11,40,540,829.3247843775898,830.9680539630353,"[47, 0, 207]",207,l,1.1211482342332602,colour,0.5
154,22,0,1,11,41,541,831.4810365084559,832.3038018345833,"[17, 0, 237]",237,a,0.30035489425063133,colour,0.5
154,22,0,1,11,42,542,832.809369046241,833.479916408658,"[16, 0, 238]",238,a,0.14850596338510513,colour,0.5
154,22,0,1,11,43,543,833.9970823880285,834.663814958185,"[57, 0, 197]",197,a,0.14456750452518463,colour,0.5
154,22,0,1,11,44,544,835.1689772959799,835.8478560782969,"[83, 0, 171]",171,l,0.15742027573287487,colour,0.5
154,22,0,1,11,45,545,836.3565303422511,837.2478292174637,"[92, 0, 162]",162,l,0.36906370520591736,colour,0.5
154,22,0,1,11,46,546,837.762857792899,838.5998181216419,"[41, 0, 213]",213,a,0.3146692309528589,colour,0.5
154,22,0,1,11,47,547,839.1067700944841,839.7998186722398,"[19, 0, 235]",235,a,0.17165151052176952,colour,0.5
154,22,0,1,11,48,548,840.309942683205,841.1358288470656,"[15, 0, 239]",239,a,0.3039830047637224,colour,0.5
154,22,0,1,11,49,549,841.6538746766746,842.4318415876478,"[12, 0, 242]",242,a,0.25575694628059864,colour,0.5
154,22,0,1,11,50,550,842.9508322551847,843.5918269846588,"[53, 0, 201]",201,a,0.11878988519310951,colour,0.5
154,22,0,1,12,1,551,849.7943375166506,850.4798703286797,"[94, 0, 160]",160,l,0.16247489675879478,colour,0.5
154,22,0,1,12,2,552,850.9983052797616,851.6398320943117,"[11, 0, 243]",243,a,0.1193322092294693,colour,0.5
154,22,0,1,12,3,553,852.1546712312847,852.9518420770764,"[45, 0, 209]",209,a,0.2750045992434025,colour,0.5
154,22,0,1,12,4,554,853.46726016514,854.2638225201517,"[25, 0, 229]",229,a,0.2742484137415886,colour,0.5
154,22,0,1,12,5,555,854.7799219619483,856.9278544876724,"[34, 0, 220]",220,a,1.625684356316924,colour,0.5
154,22,0,1,12,6,556,857.4363219812512,858.2878396473825,"[15, 0, 239]",239,a,0.3297870121896267,colour,0.5
154,22,0,1,12,7,557,858.795816803351,859.5278013963252,"[35, 0, 219]",219,a,0.21068913862109184,colour,0.5
154,22,0,1,12,8,558,860.0460228826851,860.9278229791671,"[38, 0, 216]",216,a,0.35958895087242126,colour,0.5
154,22,0,1,12,9,559,861.4366484787315,862.2798611130565,"[3, 0, 251]",251,a,0.3209593463689089,colour,0.5
154,22,0,1,12,10,560,862.7960538975894,863.7598570808768,"[59, 0, 195]",195,l,0.44145143404603004,colour,0.5
154,22,0,1,12,11,561,864.2649969682097,865.1118219587952,"[20, 0, 234]",234,a,0.32471033558249474,colour,0.5
154,22,0,1,12,12,562,865.6244106572121,866.5438124220818,"[42, 0, 212]",212,a,0.3971890415996313,colour,0.5
154,22,0,1,12,13,563,867.0621205531061,867.9758324231952,"[97, 0, 157]",157,l,0.3914948161691427,colour,0.5
154,22,0,1,12,14,564,868.484061639756,869.4318116568029,"[53, 0, 201]",201,a,0.42541835457086563,colour,0.5
154,22,0,1,12,15,565,869.9373174272478,870.847817087546,"[21, 0, 233]",233,a,0.3883042670786381,colour,0.5
154,22,0,1,12,16,566,871.3593908455223,872.2798997107893,"[72, 0, 182]",182,l,0.39857853204011917,colour,0.5
154,22,0,1,12,17,567,872.7968998793513,874.0799302719533,"[44, 0, 210]",210,a,0.7607014868408442,colour,0.5
154,22,0,1,12,18,568,874.5939379986376,875.4958305470645,"[90, 0, 164]",164,l,0.37960657104849815,colour,0.5
154,22,0,1,12,19,569,876.0159153193235,876.8958576451987,"[0, 0, 254]",254,a,0.3578426372259855,colour,0.5
154,22,0,1,12,20,570,877.4066582825035,878.2958146370947,"[8, 0, 246]",246,a,0.3669519033282995,colour,0.5
154,22,0,1,12,21,571,878.8130885288119,879.639828549698,"[51, 0, 203]",203,a,0.30456274561583996,colour,0.5
154,22,0,1,12,22,572,880.1569291502237,880.911851733923,"[9, 0, 245]",245,a,0.23271970823407173,colour,0.5
154,22,0,1,12,23,573,881.4226941186935,882.335807736963,"[57, 0, 197]",197,l,0.39095524698495865,colour,0.5
154,22,0,1,12,24,574,882.8445824291557,883.4078283999115,"[37, 0, 217]",217,a,0.04089776426553726,colour,0.5
154,22,0,1,12,25,575,883.922754181549,884.7118480317295,"[74, 0, 180]",180,l,0.26678818091750145,colour,0.5
154,22,0,1,12,26,576,885.2198157347739,886.1118136886507,"[36, 0, 218]",218,a,0.36970094963908195,colour,0.5
154,22,0,1,12,27,577,886.626161698252,887.2878471296281,"[86, 0, 168]",168,l,0.139694444835186,colour,0.5
154,22,0,1,12,28,578,887.7980900816619,888.391842186451,"[27, 0, 227]",227,a,0.07144761644303799,colour,0.5
154,22,0,1,12,29,579,888.907591894269,889.7278334554285,"[41, 0, 213]",213,a,0.2979788202792406,colour,0.5
154,22,0,1,12,30,580,890.2358322720975,891.2878034133464,"[5, 0, 249]",249,a,0.5297399070113897,colour,0.5
154,22,0,1,12,31,581,891.7984563596547,892.6798807270825,"[84, 0, 170]",170,l,0.3592470921576023,colour,0.5
154,22,0,1,12,32,582,893.1891504842788,894.0957983303815,"[64, 0, 190]",190,l,0.38443236611783504,colour,0.5
154,22,0,1,12,33,583,894.6112207528204,895.4878264144063,"[16, 0, 238]",238,a,0.3544161766767502,colour,0.5
154,22,0,1,12,34,584,896.0018325652927,896.7678029257804,"[54, 0, 200]",200,a,0.24366862885653973,colour,0.5
154,22,0,1,12,35,585,897.2832564599812,898.1678367163986,"[73, 0, 181]",181,l,0.36237895488739014,colour,0.5
154,22,0,1,12,36,586,898.6739726420492,899.7278180960566,"[75, 0, 179]",179,l,0.5316339135169983,colour,0.5
154,22,0,1,12,37,587,900.2365628574044,901.167843805626,"[79, 0, 175]",175,l,0.40902175195515156,colour,0.5
154,22,0,1,12,38,588,901.674189651385,902.7998434845358,"[66, 0, 188]",188,l,0.6033595856279135,colour,0.5
154,22,0,1,12,39,589,903.3149992730469,904.2318304032087,"[78, 0, 176]",176,l,0.39460501819849014,colour,0.5
154,22,0,1,12,40,590,904.7369147595018,906.1838556192815,"[58, 0, 196]",196,l,0.9247029330581427,colour,0.5
154,22,0,1,12,41,591,906.6902117040008,907.5678071007133,"[30, 0, 224]",224,a,0.3554200902581215,colour,0.5
154,22,0,1,12,42,592,908.0809259153903,909.0238233543932,"[82, 0, 172]",172,l,0.4205531720072031,colour,0.5
154,22,0,1,12,43,593,909.5342203006148,910.3758083190769,"[31, 0, 223]",223,a,0.3194217700511217,colour,0.5
154,22,0,1,12,44,594,910.8936792816967,912.2078428138047,"[60, 0, 194]",194,l,0.7919295430183411,colour,0.5
154,22,0,1,12,45,595,912.7219663318247,913.799801344052,"[50, 0, 204]",204,a,0.555634893476963,colour,0.5
154,22,0,1,12,46,596,914.3158042933792,915.0718194060028,"[93, 0, 161]",161,l,0.23365233466029167,colour,0.5
154,22,0,1,12,47,597,915.5815720204264,916.4477978684008,"[12, 0, 242]",242,a,0.34399500861763954,colour,0.5
154,22,0,1,12,48,598,916.9566974118352,917.7838308848441,"[96, 0, 158]",158,l,0.3048675823956728,colour,0.5
154,22,0,1,12,49,599,918.3003273252398,920.0318267010152,"[69, 0, 185]",185,l,1.2090294733643532,colour,0.5
154,22,0,1,12,50,600,920.5506960637867,921.599815364927,"[19, 0, 235]",235,a,0.5267939399927855,colour,0.5
154,22,0,1,13,1,601,927.1442264318466,928.3918043784797,"[50, 0, 204]",204,a,0.7251442763954401,colour,0.5
154,22,0,1,13,2,602,928.9107938632369,929.8557979855686,"[10, 0, 244]",244,a,0.42281463742256165,colour,0.5
154,22,0,1,13,3,603,930.3639287408441,931.1598270703107,"[43, 0, 211]",211,a,0.2734961677342653,colour,0.5
154,22,0,1,13,4,604,931.676560997963,933.0478066112846,"[61, 0, 193]",193,l,0.8492187857627869,colour,0.5
154,22,0,1,13,5,605,933.5673092789948,934.5438088774681,"[21, 0, 233]",233,a,0.45423055812716484,colour,0.5
154,22,0,1,13,6,606,935.0518927648664,936.0718426443636,"[88, 0, 166]",166,l,0.49777811765670776,colour,0.5
154,22,0,1,13,7,607,936.5832596514374,937.871791286394,"[70, 0, 184]",184,l,0.7663712948560715,colour,0.5
154,22,0,1,13,8,608,938.3803631495684,939.2798666264862,"[0, 0, 254]",254,a,0.37732974626123905,colour,0.5
154,22,0,1,13,9,609,939.786566933617,940.6478315033019,"[8, 0, 246]",246,a,0.33896402083337307,colour,0.5
154,22,0,1,13,10,610,941.1617242265493,942.0397910568863,"[27, 0, 227]",227,a,0.3558631669729948,colour,0.5
154,22,0,1,13,11,611,942.5524691585451,944.1837866958231,"[16, 0, 238]",238,a,1.1090020220726728,colour,0.5
154,22,0,1,13,12,612,944.6932474691421,945.5678134020418,"[59, 0, 195]",195,l,0.352589912712574,colour,0.5
154,22,0,1,13,13,613,946.0839857067913,946.9597946163267,"[68, 0, 186]",186,l,0.3535627108067274,colour,0.5
154,22,0,1,13,14,614,947.4747574198991,948.3198211304843,"[19, 0, 235]",235,a,0.32287816517055035,colour,0.5
154,22,0,1,13,15,615,948.8341175466776,949.6477996017784,"[97, 0, 157]",157,l,0.29140474274754524,colour,0.5
154,22,0,1,13,16,616,950.1624296046793,951.0717938076705,"[40, 0, 214]",214,a,0.3871298208832741,colour,0.5
154,22,0,1,13,17,617,951.5844750590622,952.5998086687177,"[80, 0, 174]",174,a,0.49308859184384346,colour,0.5
154,22,0,1,13,18,618,953.1157812941819,953.8718062527478,"[4, 0, 250]",250,a,0.23373189195990562,colour,0.5
154,22,0,1,13,19,619,954.3815486263484,955.2718002665788,"[71, 0, 183]",183,l,0.36808696761727333,colour,0.5
154,22,0,1,13,20,620,955.7878733202815,956.6318287495524,"[31, 0, 223]",223,a,0.32166984491050243,colour,0.5
154,22,0,1,13,21,621,957.1473078839481,957.9597965851426,"[23, 0, 231]",231,a,0.29089037887752056,colour,0.5
154,22,0,1,13,22,622,958.4755596835166,959.3437878452241,"[5, 0, 249]",249,a,0.34610562957823277,colour,0.5
154,22,0,1,13,23,623,959.8507118560374,960.6798511892557,"[35, 0, 219]",219,a,0.3069754485040903,colour,0.5
154,22,0,1,13,24,624,961.1945162434131,962.0478329993784,"[90, 0, 164]",164,l,0.3310236893594265,colour,0.5
154,22,0,1,13,25,625,962.5540453307331,963.3358041923493,"[36, 0, 218]",218,a,0.2594858817756176,colour,0.5
154,22,0,1,13,26,626,963.8510422930121,964.6478350479156,"[73, 0, 181]",181,l,0.2745835781097412,colour,0.5
154,22,0,1,13,27,627,965.1636548601091,965.9838448278606,"[87, 0, 167]",167,l,0.29794849641621113,colour,0.5
154,22,0,1,13,28,628,966.4918700326234,967.3117976970971,"[86, 0, 168]",168,l,0.2977818977087736,colour,0.5
154,22,0,1,13,29,629,967.82011080347,968.671847447753,"[99, 0, 155]",155,l,0.3295113183557987,colour,0.5
154,22,0,1,13,30,630,969.1795118898153,969.9518117494881,"[1, 0, 253]",253,a,0.25074407272040844,colour,0.5
154,22,0,1,13,31,631,970.4608810413629,971.2718191705644,"[72, 0, 182]",182,l,0.2887742444872856,colour,0.5
154,22,0,1,13,32,632,971.7891005463898,972.5357921402901,"[56, 0, 198]",198,l,0.22438001818954945,colour,0.5
154,22,0,1,13,33,633,973.0548718161881,973.8558125570416,"[45, 0, 209]",209,l,0.2787370774894953,colour,0.5
154,22,0,1,13,34,634,974.3675194345415,974.9838172588497,"[84, 0, 170]",170,l,0.09409534186124802,colour,0.5
154,22,0,1,13,35,635,975.4925521723926,976.1278172302991,"[93, 0, 161]",161,l,0.11328706704080105,colour,0.5
154,22,0,1,13,36,636,976.6332871615887,977.2638040091842,"[98, 0, 156]",156,l,0.10826671123504639,colour,0.5
154,22,0,1,13,37,637,977.7739760689437,979.0798282660544,"[62, 0, 192]",192,a,0.7841884978115559,colour,0.5
154,22,0,1,13,38,638,979.5866691768169,980.7437972184271,"[32, 0, 222]",222,a,0.63488026894629,colour,0.5
154,22,0,1,13,39,639,981.258614692837,982.2718199584633,"[65, 0, 189]",189,l,0.4910984877496958,colour,0.5
154,22,0,1,13,40,640,982.7899819724262,983.6078068949282,"[26, 0, 228]",228,a,0.29555903002619743,colour,0.5
154,22,0,1,13,41,641,984.1182700060308,984.9838054422289,"[76, 0, 178]",178,l,0.34326599910855293,colour,0.5
154,22,0,1,13,42,642,985.4933193847537,986.3678219076246,"[17, 0, 237]",237,a,0.35245797224342823,colour,0.5
154,22,0,1,13,43,643,986.8841316644102,988.1118286550045,"[52, 0, 202]",202,a,0.7059111967682838,colour,0.5
154,22,0,1,13,44,644,988.6186423879117,989.4477856587619,"[82, 0, 172]",172,l,0.30690100975334644,colour,0.5
154,22,0,1,13,45,645,989.9624010901898,990.815798189491,"[3, 0, 251]",251,a,0.33107095025479794,colour,0.5
154,22,0,1,13,46,646,991.3219471108168,991.8558385502547,"[37, 0, 217]",217,a,0.01162121631205082,colour,0.5
154,22,0,1,13,47,647,992.3689022287726,993.3597874492407,"[33, 0, 221]",221,a,0.46861736103892326,colour,0.5
154,22,0,1,13,48,648,993.8690564185381,994.5357874147594,"[15, 0, 239]",239,a,0.14457144401967525,colour,0.5
154,22,0,1,13,49,649,995.0410210378468,995.8478096053004,"[41, 0, 213]",213,a,0.2845620606094599,colour,0.5
154,22,0,1,13,50,650,996.3535776771605,997.0237788502127,"[69, 0, 185]",185,l,0.14796718396246433,colour,0.5
154,22,0,1,14,1,651,1002.0876906160265,1002.847817087546,"[38, 0, 216]",216,a,0.23717765137553215,colour,0.5
154,22,0,1,14,2,652,1003.3542298860848,1005.3517896160483,"[5, 0, 249]",249,a,1.4754316844046116,colour,0.5
154,22,0,1,14,3,653,1005.8699906226248,1006.7518092300743,"[59, 0, 195]",195,l,0.35980162769556046,colour,0.5
154,22,0,1,14,4,654,1007.2606985326856,1008.0717989262193,"[98, 0, 156]",156,l,0.28882504999637604,colour,0.5
154,22,0,1,14,5,655,1008.5889243390411,1009.3997903950512,"[22, 0, 232]",232,a,0.2886135559529066,colour,0.5
154,22,0,1,14,6,656,1009.9172257632017,1010.7198080550879,"[62, 0, 192]",192,a,0.2803884744644165,colour,0.5
154,22,0,1,14,7,657,1011.2298095785081,1011.9998152852058,"[31, 0, 223]",223,a,0.24777565523982048,colour,0.5
154,22,0,1,14,8,658,1012.5110727846622,1013.4957935269922,"[97, 0, 157]",157,l,0.4624375216662884,colour,0.5
154,22,0,1,14,9,659,1014.0111667178571,1014.6958444900811,"[4, 0, 250]",250,a,0.1623650137335062,colour,0.5
154,22,0,1,14,10,660,1015.2143357601017,1016.0637821890414,"[19, 0, 235]",235,a,0.3277917876839638,colour,0.5
154,22,0,1,14,11,661,1016.5739042311907,1017.3438067492098,"[60, 0, 194]",194,a,0.247673649340868,colour,0.5
154,22,0,1,14,12,662,1017.8552891351283,1018.6397931035608,"[9, 0, 245]",245,a,0.2622018437832594,colour,0.5
154,22,0,1,14,13,663,1019.1521348617971,1019.8798107802868,"[30, 0, 224]",224,a,0.20522058755159378,colour,0.5
154,22,0,1,14,14,664,1020.3868194669485,1021.1758187953383,"[23, 0, 231]",231,a,0.2667751833796501,colour,0.5
154,22,0,1,14,15,665,1021.6837782282382,1022.5757868159562,"[6, 0, 248]",248,a,0.3696828316897154,colour,0.5
154,22,0,1,14,16,666,1023.0901387631893,1023.9518566485494,"[79, 0, 175]",175,l,0.33953824639320374,colour,0.5
154,22,0,1,14,17,667,1024.4652121663094,1025.3358167950064,"[55, 0, 199]",199,l,0.3483623694628477,colour,0.5
154,22,0,1,14,18,668,1025.855960642919,1026.7438133675605,"[67, 0, 187]",187,l,0.3656396083533764,colour,0.5
154,22,0,1,14,19,669,1027.2623440213501,1028.1597967427224,"[37, 0, 217]",217,a,0.3752833232283592,colour,0.5
154,22,0,1,14,20,670,1028.6686521749943,1031.0238174460828,"[65, 0, 189]",189,l,1.8329407330602407,colour,0.5
154,22,0,1,14,21,671,1031.543823448941,1032.4397949166596,"[61, 0, 193]",193,l,0.3736839145421982,colour,0.5
154,22,0,1,14,22,672,1032.950209191069,1034.2638028282672,"[28, 0, 226]",226,a,0.7913194764405489,colour,0.5
154,22,0,1,14,23,673,1034.7785395625979,1035.6477661244571,"[7, 0, 247]",247,a,0.3469988740980625,colour,0.5
154,22,0,1,14,24,674,1036.1536314766854,1037.9277879279107,"[57, 0, 197]",197,a,1.2520095016807318,colour,0.5
154,22,0,1,14,25,675,1038.4349179193377,1039.5357984416187,"[95, 0, 159]",159,l,0.5788265205919743,colour,0.5
154,22,0,1,14,26,676,1040.0444770362228,1040.727802341804,"[34, 0, 220]",220,a,0.16099994257092476,colour,0.5
154,22,0,1,14,27,677,1041.2476905845106,1042.0478058233857,"[48, 0, 206]",206,a,0.27784422785043716,colour,0.5
154,22,0,1,14,28,678,1042.5603838898242,1043.175782168284,"[50, 0, 204]",204,a,0.09315759502351284,colour,0.5
154,22,0,1,14,29,679,1043.6854331698269,1044.2717801798135,"[54, 0, 200]",200,a,0.06413901597261429,colour,0.5
154,22,0,1,14,30,680,1044.779356006533,1046.0638199988753,"[72, 0, 182]",182,l,0.7622449696063995,colour,0.5
154,22,0,1,14,31,681,1046.5763122066855,1047.4237901922315,"[12, 0, 242]",242,a,0.3254062607884407,colour,0.5
154,22,0,1,14,32,682,1047.9358420800418,1048.7517773285508,"[77, 0, 177]",177,l,0.2937059849500656,colour,0.5
154,22,0,1,14,33,683,1049.2640442550182,1052.3837959114462,"[26, 0, 228]",228,a,2.597477888688445,colour,0.5
154,22,0,1,14,34,684,1052.8893954176456,1053.4158025998622,"[93, 0, 161]",161,l,0.00429922342300415,colour,0.5
154,22,0,1,14,35,685,1053.9363773167133,1054.5198051407933,"[74, 0, 180]",180,l,0.06133207492530346,colour,0.5
154,22,0,1,14,36,686,1055.0301823932678,1055.735840741545,"[86, 0, 168]",168,l,0.18361340463161469,colour,0.5
154,22,0,1,14,37,687,1056.2490056362003,1056.879797782749,"[42, 0, 212]",212,a,0.10867276601493359,colour,0.5
154,22,0,1,14,38,688,1057.3896630369127,1059.1358044277877,"[14, 0, 240]",240,a,1.2238770760595798,colour,0.5
154,22,0,1,14,39,689,1059.6555867251009,1061.8317989744246,"[11, 0, 243]",243,a,1.654039304703474,colour,0.5
154,22,0,1,14,40,690,1062.343182504177,1063.3757878392935,"[99, 0, 155]",155,l,0.5106304958462715,colour,0.5
154,22,0,1,14,41,691,1063.890196500346,1065.1437809932977,"[46, 0, 208]",208,a,0.731360349804163,colour,0.5
154,22,0,1,14,42,692,1065.6560057774186,1066.41579275392,"[16, 0, 238]",238,a,0.2375683467835188,colour,0.5
154,22,0,1,14,43,693,1066.9217486921698,1067.463777385652,"[88, 0, 166]",166,l,0.019786827266216278,colour,0.5
154,22,0,1,14,44,694,1067.9842729382217,1069.2157902345061,"[13, 0, 241]",241,a,0.7093010302633047,colour,0.5
154,22,0,1,14,45,695,1069.7344339229167,1070.7598054874688,"[71, 0, 183]",183,l,0.5031482093036175,colour,0.5
154,22,0,1,14,46,696,1071.2658464945853,1072.4558146055788,"[90, 0, 164]",164,l,0.6678629089146852,colour,0.5
154,22,0,1,14,47,697,1072.9690224304795,1074.0157877132297,"[92, 0, 162]",162,l,0.5246821362525225,colour,0.5
154,22,0,1,14,48,698,1074.5316575430334,1075.0877788383514,"[84, 0, 170]",170,l,0.03379317559301853,colour,0.5
154,22,0,1,14,49,699,1075.5943141225725,1076.9197920635343,"[21, 0, 233]",233,a,0.8033794350922108,colour,0.5
154,22,0,1,14,50,700,1077.4381703007966,1080.9437839854509,"[43, 0, 211]",211,a,2.983410021290183,colour,0.5
154,22,0,1,15,1,701,1085.7192696668208,1086.5837661363184,"[98, 0, 156]",156,l,0.3414550945162773,colour,0.5
154,22,0,1,15,2,702,1087.0951142199337,1087.8798095975071,"[80, 0, 174]",174,l,0.2629773262888193,colour,0.5
154,22,0,1,15,3,703,1088.3920863717794,1088.919794427231,"[89, 0, 165]",165,l,0.005540626123547554,colour,0.5
154,22,0,1,15,4,704,1089.4390871748328,1090.0157660525292,"[34, 0, 220]",220,a,0.05439762771129608,colour,0.5
154,22,0,1,15,5,705,1090.5329517219216,1091.1037737149745,"[29, 0, 225]",225,a,0.048632508143782616,colour,0.5
154,22,0,1,15,6,706,1091.611149072647,1092.2397632505745,"[82, 0, 172]",172,l,0.10631323419511318,colour,0.5
154,22,0,1,15,7,707,1092.7519222628325,1093.3597902059555,"[93, 0, 161]",161,l,0.0857458058744669,colour,0.5
154,22,0,1,15,8,708,1093.8768856860697,1094.4957750160247,"[97, 0, 157]",157,l,0.09663564898073673,colour,0.5
154,22,0,1,15,9,709,1095.002032244578,1095.599806305021,"[86, 0, 168]",168,l,0.07561765797436237,colour,0.5
154,22,0,1,15,10,710,1096.1115344520658,1096.7117704432458,"[0, 0, 254]",254,a,0.0785025805234909,colour,0.5
154,22,0,1,15,11,711,1097.221025235951,1098.3037730846554,"[67, 0, 187]",187,l,0.5613043084740639,colour,0.5
154,22,0,1,15,12,712,1098.8147556781769,1099.3598508574069,"[92, 0, 162]",162,l,0.023076623678207397,colour,0.5
154,22,0,1,15,13,713,1099.877389807254,1101.4398134257644,"[33, 0, 221]",221,a,1.0402108952403069,colour,0.5
154,22,0,1,15,14,714,1101.9557250048965,1103.6878116056323,"[47, 0, 207]",207,l,1.209797078743577,colour,0.5
154,22,0,1,15,15,715,1104.2059527467936,1105.0797892753035,"[50, 0, 204]",204,a,0.35158560425043106,colour,0.5
154,22,0,1,15,16,716,1105.5967638455331,1106.2717908136547,"[35, 0, 219]",219,a,0.15285087376832962,colour,0.5
154,22,0,1,15,17,717,1106.7842200044543,1107.9117981698364,"[91, 0, 163]",163,l,0.6053036097437143,colour,0.5
154,22,0,1,15,18,718,1108.424852790311,1109.4557807333767,"[58, 0, 196]",196,a,0.5086683537811041,colour,0.5
154,22,0,1,15,19,719,1109.972004238516,1111.9358113594353,"[90, 0, 164]",164,l,1.441597944125533,colour,0.5
154,22,0,1,15,20,720,1112.440913438797,1112.983788114041,"[27, 0, 227]",227,a,0.02075214497745037,colour,0.5
154,22,0,1,15,21,721,1113.5034554079175,1114.711751146242,"[99, 0, 155]",155,l,0.6859896741807461,colour,0.5
154,22,0,1,15,22,722,1115.2223796732724,1117.4317691195756,"[38, 0, 216]",216,a,1.68792306445539,colour,0.5
154,22,0,1,15,23,723,1117.9413409586996,1118.9757682252675,"[21, 0, 233]",233,a,0.5122019425034523,colour,0.5
154,22,0,1,15,24,724,1119.488347472623,1122.8557818364352,"[94, 0, 160]",160,a,2.845206283032894,colour,0.5
154,22,0,1,15,25,725,1123.363680223003,1124.1917833462358,"[19, 0, 235]",235,a,0.30588055588304996,colour,0.5
154,22,0,1,15,26,726,1124.7075220253319,1125.5357551183552,"[96, 0, 158]",158,l,0.30598728731274605,colour,0.5
154,22,0,1,15,27,727,1126.0513732824475,1126.8478052727878,"[79, 0, 175]",175,l,0.2741865795105696,colour,0.5
154,22,0,1,15,28,728,1127.3639519773424,1128.1997622735798,"[24, 0, 230]",230,a,0.313533378764987,colour,0.5
154,22,0,1,15,29,729,1128.7077500633895,1129.5597635805607,"[26, 0, 228]",228,a,0.32968500442802906,colour,0.5
154,22,0,1,15,30,730,1130.0673236530274,1130.7838123738766,"[2, 0, 252]",252,a,0.19428033009171486,colour,0.5
154,22,0,1,15,31,731,1131.3018192145973,1132.1037957705557,"[62, 0, 192]",192,l,0.27970515191555023,colour,0.5
154,22,0,1,15,32,732,1132.6144672259688,1133.3837903980166,"[18, 0, 236]",236,a,0.24719670228660107,colour,0.5
154,22,0,1,15,33,733,1133.8956997115165,1134.6958035305142,"[49, 0, 205]",205,l,0.2778450157493353,colour,0.5
154,22,0,1,15,34,734,1135.2083989251405,1136.0237851515412,"[3, 0, 251]",251,a,0.293279055505991,colour,0.5
154,22,0,1,15,35,735,1136.536576287821,1137.327752796933,"[85, 0, 169]",169,l,0.26897008903324604,colour,0.5
154,22,0,1,15,36,736,1137.8335043266416,1138.5757899656892,"[84, 0, 170]",170,l,0.22000478021800518,colour,0.5
154,22,0,1,15,37,737,1139.0836592074484,1139.8638029061258,"[44, 0, 210]",210,l,0.2579876910895109,colour,0.5
154,22,0,1,15,38,738,1140.3805797640234,1141.0957932118326,"[51, 0, 203]",203,l,0.19290108233690262,colour,0.5
154,22,0,1,15,39,739,1141.6150883212686,1142.2877935674042,"[48, 0, 206]",206,l,0.150321988388896,colour,0.5
154,22,0,1,15,40,740,1142.8026988692582,1143.527789581567,"[22, 0, 232]",232,a,0.2028961069881916,colour,0.5
154,22,0,1,15,41,741,1144.037967549637,1144.8077609725296,"[61, 0, 193]",193,l,0.2483731210231781,colour,0.5
154,22,0,1,15,42,742,1145.318450152874,1146.1277813892812,"[39, 0, 215]",215,a,0.2870984300971031,colour,0.5
154,22,0,1,15,43,743,1146.6467007696629,1147.3277594912797,"[7, 0, 247]",247,a,0.15876250341534615,colour,0.5
154,22,0,1,15,44,744,1147.8344231713563,1148.543747831136,"[81, 0, 173]",173,l,0.18735100328922272,colour,0.5
154,22,0,1,15,45,745,1149.0531306229532,1149.775812966749,"[10, 0, 244]",244,a,0.2003837637603283,colour,0.5
154,22,0,1,15,46,746,1150.2876352407038,1151.0957845468074,"[36, 0, 218]",218,a,0.285939734429121,colour,0.5
154,22,0,1,15,47,747,1151.6159020066261,1152.4157675486058,"[46, 0, 208]",208,a,0.27774379774928093,colour,0.5
154,22,0,1,15,48,748,1152.9285389911383,1155.407771686092,"[4, 0, 250]",250,a,1.9569916147738695,colour,0.5
154,22,0,1,15,49,749,1155.9131037704647,1156.7917716093361,"[65, 0, 189]",189,l,0.3563877698034048,colour,0.5
154,22,0,1,15,50,750,1157.3037884440273,1158.4477805383503,"[71, 0, 183]",183,l,0.6217009965330362,colour,0.5
154,22,0,1,16,1,751,1163.7410647142678,1164.6557871941477,"[16, 0, 238]",238,a,0.3918622750788927,colour,0.5
154,22,0,1,16,2,752,1165.1638758070767,1165.9197869449854,"[83, 0, 171]",171,l,0.233665332198143,colour,0.5
154,22,0,1,16,3,753,1166.4303544256836,1167.127783358097,"[56, 0, 198]",198,l,0.17591489292681217,colour,0.5
154,22,0,1,16,4,754,1167.6328555047512,1168.3357919827104,"[77, 0, 177]",177,l,0.1808320637792349,colour,0.5
154,22,0,1,16,5,755,1168.8516499977559,1169.6477357987314,"[52, 0, 202]",202,l,0.2739360947161913,colour,0.5
154,22,0,1,16,6,756,1170.1642334200442,1170.9277516938746,"[59, 0, 195]",195,l,0.24124371819198132,colour,0.5
154,22,0,1,16,7,757,1171.445579726249,1172.2957913987339,"[14, 0, 240]",240,a,0.3279985561966896,colour,0.5
154,22,0,1,16,8,758,1172.805046191439,1173.4237610474229,"[82, 0, 172]",172,l,0.09647220186889172,colour,0.5
154,22,0,1,16,9,759,1173.9302266221493,1175.0957916360348,"[53, 0, 201]",201,a,0.6433578059077263,colour,0.5
154,22,0,1,16,10,760,1175.602111486718,1176.3757850825787,"[71, 0, 183]",183,l,0.25137344002723694,colour,0.5
154,22,0,1,16,11,761,1176.883464884013,1177.6637877821922,"[75, 0, 179]",179,l,0.25805661268532276,colour,0.5
154,22,0,1,16,12,762,1178.1805201359093,1179.0237717609853,"[32, 0, 222]",222,a,0.3210597764700651,colour,0.5
154,22,0,1,16,13,763,1179.5399452466518,1180.2877912037075,"[81, 0, 173]",173,l,0.2255623433738947,colour,0.5
154,22,0,1,16,14,764,1180.8057196680456,1181.591798627749,"[10, 0, 244]",244,a,0.2638682071119547,colour,0.5
154,22,0,1,16,15,765,1182.102645739913,1182.9198282975703,"[57, 0, 197]",197,l,0.29564922116696835,colour,0.5
154,22,0,1,16,16,766,1183.430904628709,1184.1197819821537,"[93, 0, 161]",161,l,0.16676348820328712,colour,0.5
154,22,0,1,16,17,767,1184.634202459827,1185.399807723239,"[1, 0, 253]",253,a,0.24360915832221508,colour,0.5
154,22,0,1,16,18,768,1185.9154782686383,1186.6078793630004,"[66, 0, 188]",188,l,0.17050226777791977,colour,0.5
154,22,0,1,16,19,769,1187.1187422275543,1187.7598239965737,"[60, 0, 194]",194,l,0.11917467042803764,colour,0.5
154,22,0,1,16,20,770,1188.2751058153808,1189.183951323852,"[74, 0, 180]",180,l,0.38680174574255943,colour,0.5
154,22,0,1,16,21,771,1189.6971544213593,1190.2958331480622,"[91, 0, 163]",163,l,0.07692759111523628,colour,0.5
154,22,0,1,16,22,772,1190.806558167562,1191.4398083072156,"[25, 0, 229]",229,a,0.1114706490188837,colour,0.5
154,22,0,1,16,23,773,1191.9472451042384,1192.4798065256327,"[23, 0, 231]",231,a,0.010665351524949074,colour,0.5
154,22,0,1,16,24,774,1192.9942021910101,1193.5517909545451,"[39, 0, 215]",215,a,0.03568087890744209,colour,0.5
154,22,0,1,16,25,775,1194.0723889078945,1194.751787962392,"[31, 0, 223]",223,a,0.1575427632778883,colour,0.5
154,22,0,1,16,26,776,1195.2598501890898,1196.1198056135327,"[29, 0, 225]",225,a,0.3376477863639593,colour,0.5
154,22,0,1,16,27,777,1196.6351555660367,1197.4318175632507,"[37, 0, 217]",217,a,0.2748431209474802,colour,0.5
154,22,0,1,16,28,778,1197.9476925134659,1198.7437657117844,"[21, 0, 233]",233,a,0.2742141503840685,colour,0.5
154,22,0,1,16,29,779,1199.260267270729,1200.2877722997218,"[88, 0, 166]",166,l,0.5056522823870182,colour,0.5
154,22,0,1,16,30,780,1200.8073123823851,1201.3837588895112,"[61, 0, 193]",193,l,0.05420976132154465,colour,0.5
154,22,0,1,16,31,781,1201.9010796491057,1202.4797612335533,"[9, 0, 245]",245,a,0.056405846029520035,colour,0.5
154,22,0,1,16,32,782,1202.9950166642666,1203.9677908737212,"[12, 0, 242]",242,a,0.4504752345383167,colour,0.5
154,22,0,1,16,33,783,1204.4795060213655,1205.1437715403736,"[27, 0, 227]",227,a,0.14206146076321602,colour,0.5
154,22,0,1,16,34,784,1205.6513772979379,1207.5037858448923,"[6, 0, 248]",248,a,1.3301954306662083,colour,0.5
154,22,0,1,16,35,785,1208.0110107548535,1210.0957487057894,"[78, 0, 176]",176,a,1.5624244045466185,colour,0.5
154,22,0,1,16,36,786,1210.604934182018,1211.6077844463289,"[96, 0, 158]",158,l,0.4806052464991808,colour,0.5
154,22,0,1,16,37,787,1212.1206500194967,1219.5999189466238,"[80, 0, 174]",174,l,6.957013277336955,colour,0.5
154,22,0,1,16,38,788,1220.1057256162167,1221.1197701673955,"[2, 0, 252]",252,a,0.4926888383924961,colour,0.5
154,22,0,1,16,39,789,1221.6370885632932,1222.5597253777087,"[94, 0, 160]",160,l,0.4004784431308508,colour,0.5
154,22,0,1,16,40,790,1223.0746913328767,1224.095752645284,"[46, 0, 208]",208,a,0.49892499670386314,colour,0.5
154,22,0,1,16,41,791,1224.6059802360833,1225.383747862652,"[30, 0, 224]",224,a,0.2555446643382311,colour,0.5
154,22,0,1,16,42,792,1225.9029964990914,1226.7037568576634,"[79, 0, 175]",175,l,0.27849407494068146,colour,0.5
154,22,0,1,16,43,793,1227.2156508117914,1228.1597534194589,"[55, 0, 199]",199,l,0.42196510918438435,colour,0.5
154,22,0,1,16,44,794,1228.6688624899834,1229.623777354136,"[48, 0, 206]",206,l,0.43264936842024326,colour,0.5
154,22,0,1,16,45,795,1230.1377106439322,1230.8797623366117,"[20, 0, 234]",234,a,0.2198480311781168,colour,0.5
154,22,0,1,16,46,796,1231.387818261981,1232.2717340998352,"[35, 0, 219]",219,a,0.3618484456092119,colour,0.5
154,22,0,1,16,47,797,1232.778526172042,1233.495786830783,"[67, 0, 187]",187,l,0.1949616838246584,colour,0.5
154,22,0,1,16,48,798,1234.013013066724,1234.671744653955,"[45, 0, 209]",209,a,0.136408980935812,colour,0.5
154,22,0,1,16,49,799,1235.1849954091012,1236.023750886321,"[33, 0, 221]",221,a,0.31668414548039436,colour,0.5
154,22,0,1,16,50,800,1236.5287017282099,1237.3277697321028,"[17, 0, 237]",237,a,0.2766319699585438,colour,0.5
