id,age,condition,counterbalance,block,trialinblock,trial,tstart,tend,trialstim,trialintensity,response,RT,trialtype,colourfreq
176,20,1,1,Practice,1,NA,6.301794201135635e-06,0.6889888383448124,"[75, 0, 179]",179,a,0.13347971299663186,colour,0.5
176,20,1,1,Practice,2,NA,1.2040369273163378,2.0490705221891403,"[72, 0, 182]",182,a,0.3217178797349334,colour,0.5
176,20,1,1,Practice,3,NA,2.563943349290639,3.113080431241542,"[98, 0, 156]",156,l,0.02597654238343239,colour,0.5
176,20,1,1,Practice,4,NA,3.626516506075859,4.369010184891522,"[70, 0, 184]",184,a,0.2192677604034543,colour,0.5
176,20,1,1,Practice,5,NA,4.876782746519893,5.833009066525847,"[79, 0, 175]",175,a,0.4332292266190052,colour,0.5
176,20,1,1,Practice,6,NA,6.345191527623683,7.4970556031912565,"[48, 0, 206]",206,a,0.62856884021312,colour,0.5
176,20,1,1,Practice,7,NA,8.01703504472971,12.960994226392359,"[8, 0, 246]",246,a,4.420660402160138,colour,0.5
176,20,1,1,Practice,8,NA,13.470252770930529,14.520960513036698,"[34, 0, 220]",220,a,0.5274767042137682,colour,0.5
176,20,1,1,Practice,9,NA,15.032658936921507,15.985052342060953,"[6, 0, 248]",248,a,0.4291265271604061,colour,0.5
176,20,1,1,Practice,10,NA,16.501422179862857,17.753021984361112,"[33, 0, 221]",221,a,0.7282494306564331,colour,0.5
176,20,1,1,1,1,1,4.503807314671576,5.392064386047423,"[15, 0, 239]",239,a,0.3640997060574591,colour,0.5
176,20,1,1,1,2,2,5.910870164632797,6.783993288874626,"[40, 0, 214]",214,a,0.3499870030209422,colour,0.5
176,20,1,1,1,3,3,7.301554906181991,8.176006474997848,"[88, 0, 166]",166,l,0.3577008815482259,colour,0.5
176,20,1,1,1,4,4,8.685638779774308,9.544039920438081,"[0, 0, 254]",254,a,0.3349846010096371,colour,0.5
176,20,1,1,1,5,5,10.048399013932794,11.008034469559789,"[67, 0, 187]",187,a,0.43632328510284424,colour,0.5
176,20,1,1,1,6,6,11.51718273665756,12.4960229373537,"[65, 0, 189]",189,a,0.45560325449332595,colour,0.5
176,20,1,1,1,7,7,13.017204004805535,13.992045481223613,"[36, 0, 218]",218,a,0.4511008011177182,colour,0.5
176,20,1,1,1,8,8,14.501558450516313,15.456025458406657,"[47, 0, 207]",207,a,0.4311776799149811,colour,0.5
176,20,1,1,1,9,9,15.970222050789744,16.856080596800894,"[56, 0, 198]",198,a,0.3625448001548648,colour,0.5
176,20,1,1,1,10,10,17.376531472429633,18.392015942838043,"[54, 0, 200]",200,a,0.49221444176509976,colour,0.5
176,20,1,1,1,11,11,18.9077887092717,20.144033224787563,"[75, 0, 179]",179,l,0.7115759374573827,colour,0.5
176,20,1,1,1,12,12,20.659468858502805,22.104031019378453,"[48, 0, 206]",206,a,0.9220101139508188,colour,0.5
176,20,1,1,1,13,13,22.614071743097156,23.672050680033863,"[17, 0, 237]",237,a,0.5347033939324319,colour,0.5
176,20,1,1,1,14,14,24.19219908164814,25.22408765461296,"[64, 0, 190]",190,a,0.5180421103723347,colour,0.5
176,20,1,1,1,15,15,25.74525611847639,26.784015343990177,"[2, 0, 252]",252,a,0.5156317688524723,colour,0.5
176,20,1,1,1,16,16,27.29214512463659,28.20807700464502,"[46, 0, 208]",208,a,0.3926646080799401,colour,0.5
176,20,1,1,1,17,17,28.713940592017025,29.608097484800965,"[29, 0, 225]",225,a,0.3707328694872558,colour,0.5
176,20,1,1,1,18,18,30.120204327628016,32.74404700938612,"[66, 0, 188]",188,l,2.1005415390245616,colour,0.5
176,20,1,1,1,19,19,33.26086307549849,34.13600387563929,"[26, 0, 228]",228,a,0.3520507593639195,colour,0.5
176,20,1,1,1,20,20,34.651447779964656,35.48004655260593,"[24, 0, 230]",230,a,0.30833654990419745,colour,0.5
176,20,1,1,1,21,21,35.992174269165844,36.84003646997735,"[68, 0, 186]",186,l,0.32446771627292037,colour,0.5
176,20,1,1,1,22,22,37.351593896746635,38.21606027428061,"[90, 0, 164]",164,l,0.34120698226615787,colour,0.5
176,20,1,1,1,23,23,38.72654801374301,39.656037273816764,"[80, 0, 174]",174,l,0.4061975693330169,colour,0.5
176,20,1,1,1,24,24,40.16407331824303,41.128080470487475,"[78, 0, 176]",176,l,0.4407127043232322,colour,0.5
176,20,1,1,1,25,25,41.6484876293689,42.52803281508386,"[1, 0, 253]",253,a,0.356231439858675,colour,0.5
176,20,1,1,1,26,26,43.03908769367263,43.9520385498181,"[60, 0, 194]",194,a,0.38971627317368984,colour,0.5
176,20,1,1,1,27,27,44.46096547553316,45.39204036118463,"[39, 0, 215]",215,a,0.40795215545222163,colour,0.5
176,20,1,1,1,28,28,45.89849078003317,46.77602577349171,"[93, 0, 161]",161,l,0.35422715498134494,colour,0.5
176,20,1,1,1,29,29,47.28910620464012,48.144051735755056,"[49, 0, 205]",205,a,0.3316924376413226,colour,0.5
176,20,1,1,1,30,30,48.66404771851376,49.49602096853778,"[44, 0, 210]",210,a,0.3086366611532867,colour,0.5
176,20,1,1,1,31,31,50.007806432433426,50.80806715879589,"[42, 0, 212]",212,a,0.27688238956034184,colour,0.5
176,20,1,1,1,32,32,51.32035162625834,52.1840834794566,"[38, 0, 216]",216,a,0.34043425507843494,colour,0.5
176,20,1,1,1,33,33,52.68310162005946,53.496066654566675,"[91, 0, 163]",163,l,0.2897343900986016,colour,0.5
176,20,1,1,1,34,34,54.00061558233574,54.79208801686764,"[11, 0, 243]",243,a,0.2680732239969075,colour,0.5
176,20,1,1,1,35,35,55.313115877565,56.08804124360904,"[23, 0, 231]",231,a,0.25058249896392226,colour,0.5
176,20,1,1,1,36,36,56.59537702938542,57.416033098939806,"[98, 0, 156]",156,l,0.29769009025767446,colour,0.5
176,20,1,1,1,37,37,57.92337046004832,58.752109047956765,"[92, 0, 162]",162,l,0.3062326214276254,colour,0.5
176,20,1,1,1,38,38,59.267159106209874,60.09606035286561,"[99, 0, 155]",155,l,0.30573952570557594,colour,0.5
176,20,1,1,1,39,39,60.61089537059888,61.76805313769728,"[5, 0, 249]",249,a,0.634059848729521,colour,0.5
176,20,1,1,1,40,40,62.28267429675907,63.4080982725136,"[61, 0, 193]",193,a,0.6019125189632177,colour,0.5
176,20,1,1,1,41,41,63.92335313046351,64.72811197862029,"[3, 0, 251]",251,a,0.2822690289467573,colour,0.5
176,20,1,1,1,42,42,65.23588257050142,66.03210361301899,"[28, 0, 226]",226,a,0.27328460151329637,colour,0.5
176,20,1,1,1,43,43,66.54857900179923,67.44809811515734,"[62, 0, 192]",192,a,0.3762289984151721,colour,0.5
176,20,1,1,1,44,44,67.95481949998066,69.23209494864568,"[69, 0, 185]",185,a,0.7545902817510068,colour,0.5
176,20,1,1,1,45,45,69.7516521862708,70.5361196664162,"[83, 0, 171]",171,l,0.26108756801113486,colour,0.5
176,20,1,1,1,46,46,71.04857388185337,71.8080951217562,"[31, 0, 223]",223,a,0.236270509660244,colour,0.5
176,20,1,1,1,47,47,72.31608311738819,73.0321256686002,"[6, 0, 248]",248,a,0.1926945406012237,colour,0.5
176,20,1,1,1,48,48,73.55058328667656,74.55211495608091,"[72, 0, 182]",182,l,0.47857435466721654,colour,0.5
176,20,1,1,1,49,49,75.06605594186112,76.09612336847931,"[57, 0, 197]",197,a,0.5067292619496584,colour,0.5
176,20,1,1,1,50,50,76.61293313279748,77.3680940978229,"[63, 0, 191]",191,a,0.23187321284785867,colour,0.5
176,20,1,1,2,1,51,81.81534189824015,82.6401688028127,"[59, 0, 195]",195,a,0.30113742919638753,colour,0.5
176,20,1,1,2,2,52,83.15960788633674,83.73608382605016,"[3, 0, 251]",251,a,0.05295621184632182,colour,0.5
176,20,1,1,2,3,53,84.2514907089062,84.91210684273392,"[44, 0, 210]",210,a,0.13719092914834619,colour,0.5
176,20,1,1,2,4,54,85.42337794275954,86.15210983576253,"[77, 0, 177]",177,l,0.20534922368824482,colour,0.5
176,20,1,1,2,5,55,86.6733661275357,87.31209148280323,"[25, 0, 229]",229,a,0.11537616280838847,colour,0.5
176,20,1,1,2,6,56,87.82962592458352,88.66412530606613,"[74, 0, 180]",180,l,0.3111285278573632,colour,0.5
176,20,1,1,2,7,57,89.1734173274599,89.87207746179774,"[28, 0, 226]",226,a,0.17534323735162616,colour,0.5
176,20,1,1,2,8,58,90.39218529686332,91.12816514773294,"[14, 0, 240]",240,a,0.2219667909666896,colour,0.5
176,20,1,1,2,9,59,91.64923160523176,92.53611769713461,"[52, 0, 202]",202,a,0.36426197085529566,colour,0.5
176,20,1,1,2,10,60,93.05475412169471,93.88006112491712,"[47, 0, 207]",207,a,0.301950722001493,colour,0.5
176,20,1,1,2,11,61,94.3984533646144,95.16008207760751,"[31, 0, 223]",223,a,0.23827558243647218,colour,0.5
176,20,1,1,2,12,62,95.6797417155467,96.45609280606732,"[24, 0, 230]",230,a,0.25308933248743415,colour,0.5
176,20,1,1,2,13,63,96.97658188454807,97.72807259391993,"[37, 0, 217]",217,a,0.22810843400657177,colour,0.5
176,20,1,1,2,14,64,98.24224476749077,99.04813789343461,"[19, 0, 235]",235,a,0.2825935580767691,colour,0.5
176,20,1,1,2,15,65,99.55473876139149,100.40811126958579,"[58, 0, 196]",196,a,0.3301568296737969,colour,0.5
176,20,1,1,2,16,66,100.92974210903049,101.70417634863406,"[75, 0, 179]",179,l,0.2511315210722387,colour,0.5
176,20,1,1,2,17,67,102.21092766616493,102.98410829203203,"[71, 0, 183]",183,l,0.24995116284117103,colour,0.5
176,20,1,1,2,18,68,103.49226879235357,104.28809047443792,"[57, 0, 197]",197,a,0.2725756778381765,colour,0.5
176,20,1,1,2,19,69,104.80467732157558,105.5441576805897,"[21, 0, 233]",233,a,0.2254972313530743,colour,0.5
176,20,1,1,2,20,70,106.06317849922925,106.81608705595136,"[81, 0, 173]",173,l,0.22955227550119162,colour,0.5
176,20,1,1,2,21,71,107.32880357280374,108.02410222683102,"[41, 0, 213]",213,a,0.17220034170895815,colour,0.5
176,20,1,1,2,22,72,108.53197915758938,109.28806448029354,"[7, 0, 247]",247,a,0.23278772458434105,colour,0.5
176,20,1,1,2,23,73,109.79757508682087,111.26412215549499,"[15, 0, 239]",239,a,0.9433266641572118,colour,0.5
176,20,1,1,2,24,74,111.78185903420672,112.73613463249058,"[82, 0, 172]",172,l,0.43085393821820617,colour,0.5
176,20,1,1,2,25,75,113.25072192074731,114.35213898075745,"[65, 0, 189]",189,a,0.5782525818794966,colour,0.5
176,20,1,1,2,26,76,114.86006514215842,115.49618520215154,"[18, 0, 236]",236,a,0.11130260769277811,colour,0.5
176,20,1,1,2,27,77,116.0024560270831,116.53619528468698,"[17, 0, 237]",237,a,0.01052869949489832,colour,0.5
176,20,1,1,2,28,78,117.0493387314491,117.80016147717834,"[36, 0, 218]",218,a,0.22749994089826941,colour,0.5
176,20,1,1,2,29,79,118.31493702391163,119.05609910748899,"[83, 0, 171]",171,l,0.21789874974638224,colour,0.5
176,20,1,1,2,30,80,119.56493466068059,120.29611627943814,"[98, 0, 156]",156,l,0.20811993442475796,colour,0.5
176,20,1,1,2,31,81,120.81487991614267,121.47213102504611,"[94, 0, 160]",160,l,0.1339235780760646,colour,0.5
176,20,1,1,2,32,82,121.98682622704655,122.68816176056862,"[89, 0, 165]",165,l,0.17804778134450316,colour,0.5
176,20,1,1,2,33,83,123.20549534074962,123.99212976451963,"[69, 0, 185]",185,a,0.2633049236610532,colour,0.5
176,20,1,1,2,34,84,124.50246902415529,125.24010027339682,"[4, 0, 250]",250,a,0.21449985448271036,colour,0.5
176,20,1,1,2,35,85,125.75407670531422,126.66412688139826,"[68, 0, 186]",186,l,0.3866564789786935,colour,0.5
176,20,1,1,2,36,86,127.17821044009179,127.98412680299953,"[70, 0, 184]",184,l,0.2827554293908179,colour,0.5
176,20,1,1,2,37,87,128.49072648910806,129.21612053271383,"[50, 0, 204]",204,a,0.20198104809969664,colour,0.5
176,20,1,1,2,38,88,129.72645742911845,130.43215481331572,"[62, 0, 192]",192,a,0.18234031507745385,colour,0.5
176,20,1,1,2,39,89,130.94518325664103,131.65614912612364,"[22, 0, 232]",232,a,0.18783959420397878,colour,0.5
176,20,1,1,2,40,90,132.1639571338892,132.86415248177946,"[26, 0, 228]",228,a,0.17687333142384887,colour,0.5
176,20,1,1,2,41,91,133.38267626613379,134.16020810836926,"[66, 0, 188]",188,a,0.25414956687018275,colour,0.5
176,20,1,1,2,42,92,134.67958417674527,135.41633990546688,"[86, 0, 168]",168,l,0.21348254894837737,colour,0.5
176,20,1,1,2,43,93,135.9295798446983,136.66410246305168,"[1, 0, 253]",253,a,0.21155388234183192,colour,0.5
176,20,1,1,2,44,94,137.17956015234813,138.21615755418316,"[12, 0, 242]",242,a,0.5132840499281883,colour,0.5
176,20,1,1,2,45,95,138.72643773676828,139.52016297355294,"[32, 0, 222]",222,a,0.27045914623886347,colour,0.5
176,20,1,1,2,46,96,140.03889943519607,140.79212779505178,"[67, 0, 187]",187,a,0.24227233696728945,colour,0.5
176,20,1,1,2,47,97,141.3077682289295,142.00815026042983,"[72, 0, 182]",182,a,0.17746095033362508,colour,0.5
176,20,1,1,2,48,98,142.52655352745205,143.2481311983429,"[20, 0, 234]",234,a,0.19834190607070923,colour,0.5
176,20,1,1,2,49,99,143.7507971455343,144.4721668646671,"[35, 0, 219]",219,a,0.19807724095880985,colour,0.5
176,20,1,1,2,50,100,144.98509684670717,145.65617354447022,"[63, 0, 191]",191,a,0.14761722832918167,colour,0.5
176,20,1,1,3,1,101,151.2186671444215,151.96811260841787,"[43, 0, 211]",211,a,0.22524123080074787,colour,0.5
176,20,1,1,3,2,102,152.4850460407324,153.15207163291052,"[4, 0, 250]",250,a,0.1532575050368905,colour,0.5
176,20,1,1,3,3,103,153.6633486407809,154.30417674267665,"[41, 0, 213]",213,a,0.11752262664958835,colour,0.5
176,20,1,1,3,4,104,154.819513914641,155.54421321256086,"[95, 0, 159]",159,l,0.20023473259061575,colour,0.5
176,20,1,1,3,5,105,156.04350980278105,156.72816908592358,"[5, 0, 249]",249,a,0.1613872847519815,colour,0.5
176,20,1,1,3,6,106,157.24665427347645,157.94419745868072,"[14, 0, 240]",240,a,0.1743460176512599,colour,0.5
176,20,1,1,3,7,107,158.46536828577518,159.1761770104058,"[3, 0, 251]",251,a,0.18756508314982057,colour,0.5
176,20,1,1,3,8,108,159.68409017520025,160.36013209586963,"[82, 0, 172]",172,l,0.1526450733654201,colour,0.5
176,20,1,1,3,9,109,160.8745023747906,161.56017423747107,"[80, 0, 174]",174,l,0.16243097838014364,colour,0.5
176,20,1,1,3,10,110,162.0782919661142,162.9281627847813,"[65, 0, 189]",189,a,0.3273597317747772,colour,0.5
176,20,1,1,3,11,111,163.4369770702906,164.15217639598995,"[72, 0, 182]",182,a,0.19179696450009942,colour,0.5
176,20,1,1,3,12,112,164.6713968948461,165.4085350483656,"[29, 0, 225]",225,a,0.21396973682567477,colour,0.5
176,20,1,1,3,13,113,165.92134884558618,166.56014194246382,"[2, 0, 252]",252,a,0.11550022475421429,colour,0.5
176,20,1,1,3,14,114,167.07759052561596,167.8161666127853,"[79, 0, 175]",175,l,0.2155494554899633,colour,0.5
176,20,1,1,3,15,115,168.3275865870528,169.12017990928143,"[70, 0, 184]",184,a,0.27211605897173285,colour,0.5
176,20,1,1,3,16,116,169.6372307073325,170.38415594724938,"[42, 0, 212]",212,a,0.22363551845774055,colour,0.5
176,20,1,1,3,17,117,170.90290186135098,171.59219593089074,"[30, 0, 224]",224,a,0.16602482832968235,colour,0.5
176,20,1,1,3,18,118,172.1060333349742,172.74418997578323,"[10, 0, 244]",244,a,0.11249517556279898,colour,0.5
176,20,1,1,3,19,119,173.26465896843,173.9681957103312,"[15, 0, 239]",239,a,0.18031082395464182,colour,0.5
176,20,1,1,3,20,120,174.48353366972879,175.21619024360552,"[98, 0, 156]",156,l,0.20942317228764296,colour,0.5
176,20,1,1,3,21,121,175.73342418065295,176.52019251231104,"[89, 0, 165]",165,l,0.2633632132783532,colour,0.5
176,20,1,1,3,22,122,177.0302730142139,177.76026521623135,"[53, 0, 201]",201,a,0.2067146897315979,colour,0.5
176,20,1,1,3,23,123,178.2802328420803,179.0242006885819,"[88, 0, 166]",166,l,0.2205765126273036,colour,0.5
176,20,1,1,3,24,124,179.5303525715135,180.25619323691353,"[7, 0, 247]",247,a,0.20260805170983076,colour,0.5
176,20,1,1,3,25,125,180.76460422342643,181.50417989352718,"[22, 0, 232]",232,a,0.21630170242860913,colour,0.5
176,20,1,1,3,26,126,182.01465818053111,182.70418304391205,"[26, 0, 228]",228,a,0.16623750515282154,colour,0.5
176,20,1,1,3,27,127,183.21775696519762,183.9682256425731,"[32, 0, 222]",222,a,0.22714154049754143,colour,0.5
176,20,1,1,3,28,128,184.4833875526674,185.2002359139733,"[20, 0, 234]",234,a,0.19355194456875324,colour,0.5
176,20,1,1,3,29,129,185.71769237425178,186.43217883771285,"[25, 0, 229]",229,a,0.19112545577809215,colour,0.5
176,20,1,1,3,30,130,186.95209053717554,187.48024859605357,"[23, 0, 231]",231,a,0.004851795732975006,colour,0.5
176,20,1,1,3,31,131,187.99902168521658,188.73620001086965,"[34, 0, 220]",220,a,0.21392168756574392,colour,0.5
176,20,1,1,3,32,132,189.24906579591334,189.98418351681903,"[45, 0, 209]",209,a,0.2119552120566368,colour,0.5
176,20,1,1,3,33,133,190.49995785858482,191.22422156250104,"[90, 0, 164]",164,l,0.20134341064840555,colour,0.5
176,20,1,1,3,34,134,191.7345261629671,192.52017400134355,"[16, 0, 238]",238,a,0.26224862737581134,colour,0.5
176,20,1,1,3,35,135,193.03148566791788,193.98418824281543,"[60, 0, 194]",194,a,0.42945696413517,colour,0.5
176,20,1,1,3,36,136,194.50212086364627,195.25623025838286,"[50, 0, 204]",204,a,0.23085748264566064,colour,0.5
176,20,1,1,3,37,137,195.76774239260703,196.5121588301845,"[74, 0, 180]",180,l,0.22121533146128058,colour,0.5
176,20,1,1,3,38,138,197.03344466071576,197.68823777278885,"[56, 0, 198]",198,a,0.13151205563917756,colour,0.5
176,20,1,1,3,39,139,198.2052613957785,199.09620962105691,"[76, 0, 178]",178,l,0.36767740827053785,colour,0.5
176,20,1,1,3,40,140,199.5991768608801,200.36019235476851,"[94, 0, 160]",160,l,0.23775924975052476,colour,0.5
176,20,1,1,3,41,141,200.8832012633793,201.60818806942552,"[44, 0, 210]",210,a,0.20160334929823875,colour,0.5
176,20,1,1,3,42,142,202.11766519909725,202.79230896476656,"[59, 0, 195]",195,a,0.15149070927873254,colour,0.5
176,20,1,1,3,43,143,203.305105432868,204.03216623468325,"[91, 0, 163]",163,l,0.20377029292285442,colour,0.5
176,20,1,1,3,44,144,204.53946775570512,205.20816483255476,"[62, 0, 192]",192,a,0.154713555239141,colour,0.5
176,20,1,1,3,45,145,205.7176596848294,206.2802596236579,"[11, 0, 243]",243,a,0.03932321397587657,colour,0.5
176,20,1,1,3,46,146,206.79578544804826,207.76019747462124,"[66, 0, 188]",188,a,0.44117744360119104,colour,0.5
176,20,1,1,3,47,147,208.2801631311886,209.04820563504472,"[0, 0, 254]",254,a,0.24466574238613248,colour,0.5
176,20,1,1,3,48,148,209.56143730366603,210.26419068453833,"[57, 0, 197]",197,a,0.17964404122903943,colour,0.5
176,20,1,1,3,49,149,210.78018321748823,211.50419682869688,"[55, 0, 199]",199,a,0.20071719447150826,colour,0.5
176,20,1,1,3,50,150,212.01454002643004,212.74422699725255,"[96, 0, 158]",158,l,0.20632163062691689,colour,0.5
176,20,1,1,4,1,151,217.87307231826708,218.72024686308578,"[70, 0, 184]",184,l,0.3220691909082234,colour,0.5
176,20,1,1,4,2,152,219.23426583083346,219.83224657922983,"[46, 0, 208]",208,a,0.07477215956896544,colour,0.5
176,20,1,1,4,3,153,220.34358148276806,220.89622340537608,"[29, 0, 225]",225,a,0.029652312397956848,colour,0.5
176,20,1,1,4,4,154,221.39571455586702,222.0082109128125,"[87, 0, 167]",167,l,0.0892704389989376,colour,0.5
176,20,1,1,4,5,155,222.52280450239778,223.64824974583462,"[32, 0, 222]",222,a,0.6022681621834636,colour,0.5
176,20,1,1,4,6,156,224.1633773916401,225.02424322394654,"[35, 0, 219]",219,a,0.3376611820422113,colour,0.5
176,20,1,1,4,7,157,225.5382755822502,226.1841996642761,"[34, 0, 220]",220,a,0.1225118744187057,colour,0.5
176,20,1,1,4,8,158,226.69477011170238,227.36818862101063,"[14, 0, 240]",240,a,0.15945152938365936,colour,0.5
176,20,1,1,4,9,159,227.88860168727115,228.52825533878058,"[99, 0, 155]",155,l,0.11631469940766692,colour,0.5
176,20,1,1,4,10,160,229.044817767106,229.60821170033887,"[44, 0, 210]",210,a,0.040184950456023216,colour,0.5
176,20,1,1,4,11,161,230.1228919364512,230.6883783764206,"[25, 0, 229]",229,a,0.042139217257499695,colour,0.5
176,20,1,1,4,12,162,231.2010283335112,231.81622056989,"[96, 0, 158]",158,l,0.09180523501709104,colour,0.5
176,20,1,1,4,13,163,232.32606121944264,233.04822769062594,"[52, 0, 202]",202,a,0.19884484820067883,colour,0.5
176,20,1,1,4,14,164,233.56058738287538,234.22427827632055,"[28, 0, 226]",226,a,0.1405394123867154,colour,0.5
176,20,1,1,4,15,165,234.7323773363605,235.4642131337896,"[4, 0, 250]",250,a,0.20849763276055455,colour,0.5
176,20,1,1,4,16,166,235.9823718224652,236.70426378259435,"[79, 0, 175]",175,l,0.1985683678649366,colour,0.5
176,20,1,1,4,17,167,237.2189318095334,237.92824824946,"[5, 0, 249]",249,a,0.1859743371605873,colour,0.5
176,20,1,1,4,18,168,238.43768087401986,239.1442644125782,"[90, 0, 164]",164,l,0.1832540389150381,colour,0.5
176,20,1,1,4,19,169,239.65640118764713,240.2082636882551,"[59, 0, 195]",195,a,0.040984065271914005,colour,0.5
176,20,1,1,4,20,170,240.70964530156925,241.4322387026623,"[21, 0, 233]",233,a,0.1993832364678383,colour,0.5
176,20,1,1,4,21,171,241.9440229847096,242.6482926751487,"[17, 0, 237]",237,a,0.1812536921352148,colour,0.5
176,20,1,1,4,22,172,243.1627464494668,243.9203086970374,"[77, 0, 177]",177,l,0.23419218137860298,colour,0.5
176,20,1,1,4,23,173,244.4283923972398,245.52027246309444,"[64, 0, 190]",190,a,0.5802198452875018,colour,0.5
176,20,1,1,4,24,174,246.04167644726112,246.64824935188517,"[81, 0, 173]",173,l,0.08324576774612069,colour,0.5
176,20,1,1,4,25,175,247.16674281051382,247.92827463708818,"[27, 0, 227]",227,a,0.23821177938953042,colour,0.5
176,20,1,1,4,26,176,248.44791143154725,249.1282577016391,"[38, 0, 216]",216,a,0.15697305323556066,colour,0.5
176,20,1,1,4,27,177,249.635426890105,250.33628390030935,"[24, 0, 230]",230,a,0.17761415662243962,colour,0.5
176,20,1,1,4,28,178,250.85419722273946,251.64028813829646,"[33, 0, 221]",221,a,0.26287129893898964,colour,0.5
176,20,1,1,4,29,179,252.15297747962177,252.72023583529517,"[82, 0, 172]",172,l,0.044761053286492825,colour,0.5
176,20,1,1,4,30,180,253.23105007363483,254.00028987089172,"[39, 0, 215]",215,a,0.24596504215151072,colour,0.5
176,20,1,1,4,31,181,254.49987987661734,255.2722511482425,"[71, 0, 183]",183,l,0.2492087623104453,colour,0.5
176,20,1,1,4,32,182,255.7811434152536,256.4242369220592,"[61, 0, 193]",193,a,0.11976833920925856,colour,0.5
176,20,1,1,4,33,183,256.9374473229982,257.8402515104972,"[69, 0, 185]",185,a,0.3798866509459913,colour,0.5
176,20,1,1,4,34,184,258.3593377075158,259.13628508197144,"[23, 0, 231]",231,a,0.25376399140805006,colour,0.5
176,20,1,1,4,35,185,259.6561097414233,260.4322965978645,"[48, 0, 206]",206,a,0.25287901796400547,colour,0.5
176,20,1,1,4,36,186,260.95300544286147,261.7522764331661,"[53, 0, 201]",201,a,0.2756906100548804,colour,0.5
176,20,1,1,4,37,187,262.26567351678386,263.0162686188705,"[95, 0, 159]",159,l,0.22722818655893207,colour,0.5
176,20,1,1,4,38,188,263.5313423075713,264.24821626907215,"[45, 0, 209]",209,a,0.1935027139261365,colour,0.5
176,20,1,1,4,39,189,264.7657002983615,265.4882361977361,"[67, 0, 187]",187,a,0.19921191316097975,colour,0.5
176,20,1,1,4,40,190,266.00020558806136,266.69628799613565,"[11, 0, 243]",243,a,0.17275487771257758,colour,0.5
176,20,1,1,4,41,191,267.2032594741322,267.95228352211416,"[26, 0, 228]",228,a,0.22575008077546954,colour,0.5
176,20,1,1,4,42,192,268.46884398162365,269.36026718560606,"[92, 0, 162]",162,l,0.3681862582452595,colour,0.5
176,20,1,1,4,43,193,269.8751557664946,271.0242558270693,"[73, 0, 181]",181,l,0.625870204064995,colour,0.5
176,20,1,1,4,44,194,271.5313655445352,272.3682969287038,"[88, 0, 166]",166,l,0.31367120100185275,colour,0.5
176,20,1,1,4,45,195,272.8768552141264,273.6643557064235,"[13, 0, 241]",241,a,0.26461722049862146,colour,0.5
176,20,1,1,4,46,196,274.1758686285466,274.8562735817395,"[86, 0, 168]",168,l,0.15705339796841145,colour,0.5
176,20,1,1,4,47,197,275.3634959394112,276.1683449782431,"[57, 0, 197]",197,a,0.2817050404846668,colour,0.5
176,20,1,1,4,48,198,276.6758654778823,277.3842878858559,"[66, 0, 188]",188,a,0.18501374498009682,colour,0.5
176,20,1,1,4,49,199,277.89467361941934,278.7282466739416,"[62, 0, 192]",192,a,0.3106539426371455,colour,0.5
176,20,1,1,4,50,200,279.2384000378661,280.0002658464946,"[8, 0, 246]",246,a,0.23863319493830204,colour,0.5
176,20,1,1,5,1,201,284.753218119964,285.98431348614395,"[93, 0, 161]",161,l,0.7069466654211283,colour,0.4
176,20,1,1,5,2,202,286.50408261315897,287.2403164948337,"[81, 0, 173]",173,l,0.2253345726057887,colour,0.4
176,20,1,1,5,3,203,287.757346813567,288.44025899330154,"[83, 0, 171]",171,l,0.15971501264721155,colour,0.4
176,20,1,1,5,4,204,288.96040542563424,289.57635187823325,"[21, 0, 233]",233,a,0.09303718712180853,colour,0.4
176,20,1,1,5,5,205,290.08536308724433,290.74432664038613,"[77, 0, 177]",177,l,0.13558088429272175,colour,0.4
176,20,1,1,5,6,206,291.25726725626737,291.90430080424994,"[70, 0, 184]",184,a,0.1237426451407373,colour,0.4
176,20,1,1,5,7,207,292.41351090557873,293.08028955571353,"[35, 0, 219]",219,a,0.14614896848797798,colour,0.4
176,20,1,1,5,8,208,293.59842146281153,294.24828873667866,"[17, 0, 237]",237,a,0.12664805073291063,colour,0.4
176,20,1,1,5,9,209,294.7546623554081,295.5362787800841,"[82, 0, 172]",172,l,0.2582727465778589,colour,0.4
176,20,1,1,5,10,210,296.03908533090726,296.720275613945,"[87, 0, 167]",167,l,0.15792104182764888,colour,0.4
176,20,1,1,5,11,211,297.2265740078874,298.06428993400186,"[67, 0, 187]",187,a,0.31434704177081585,colour,0.4
176,20,1,1,5,12,212,298.58597630634904,299.2723157387227,"[36, 0, 218]",218,a,0.1631198157556355,colour,0.4
176,20,1,1,5,13,213,299.7890782416798,300.50429292721674,"[56, 0, 198]",198,a,0.19191669346764684,colour,0.4
176,20,1,1,5,14,214,301.02351460792124,301.5603179917671,"[4, 0, 250]",250,a,0.01352744735777378,colour,0.4
176,20,1,1,5,15,215,302.07030160771683,302.83235409948975,"[58, 0, 196]",196,a,0.23870920715853572,colour,0.4
176,20,1,1,5,16,216,303.3515966539271,304.1042988351546,"[23, 0, 231]",231,a,0.2294833525083959,colour,0.4
176,20,1,1,5,17,217,304.617159106303,305.32027443218976,"[75, 0, 179]",179,l,0.17975471215322614,colour,0.4
176,20,1,1,5,18,218,305.8359349523671,306.55229888204485,"[71, 0, 183]",183,l,0.19310650369152427,colour,0.4
176,20,1,1,5,19,219,307.07033587247133,307.6562818521634,"[29, 0, 225]",225,a,0.06267634453251958,colour,0.4
176,20,1,1,5,20,220,308.16402014903724,308.88031436828896,"[34, 0, 220]",220,a,0.1934294579550624,colour,0.4
176,20,1,1,5,21,221,309.398477782961,310.14437153888866,"[65, 0, 189]",189,a,0.22261112369596958,colour,0.4
176,20,1,1,5,22,222,310.6621312610805,311.3602833333425,"[45, 0, 209]",209,a,0.17259576404467225,colour,0.4
176,20,1,1,5,23,223,311.86757343262434,312.47228620015085,"[97, 0, 157]",157,l,0.08148054778575897,colour,0.4
176,20,1,1,5,24,224,312.9924286939204,313.64834623830393,"[44, 0, 210]",210,a,0.13254669029265642,colour,0.4
176,20,1,1,5,25,225,314.1643289248459,314.7203378416598,"[90, 0, 164]",164,l,0.032619552221149206,colour,0.4
176,20,1,1,5,26,226,315.22696194658056,315.9283163845539,"[60, 0, 194]",194,a,0.17890597274526954,colour,0.4
176,20,1,1,5,27,227,316.4455960080959,317.09632541192695,"[47, 0, 207]",207,a,0.12775987992063165,colour,0.4
176,20,1,1,5,28,228,317.61752144480124,318.3123057349585,"[66, 0, 188]",188,a,0.17149141803383827,colour,0.4
176,20,1,1,5,29,229,318.8206458296627,319.52033035829663,"[5, 0, 249]",249,a,0.17638220451772213,colour,0.4
176,20,1,1,5,30,230,320.03938662353903,320.63244113978,"[92, 0, 162]",162,l,0.06979984743520617,colour,0.4
176,20,1,1,5,31,231,321.1487310263328,321.87228935118765,"[15, 0, 239]",239,a,0.20023118797689676,colour,0.4
176,20,1,1,5,32,232,322.38301970018074,323.1363496724516,"[59, 0, 195]",195,a,0.22989649698138237,colour,0.4
176,20,1,1,5,33,233,323.6487684417516,324.39232353679836,"[1, 0, 253]",253,a,0.22034650575369596,colour,0.4
176,20,1,1,5,34,234,324.8987999493256,325.7523772576824,"[79, 0, 175]",175,l,0.3303667497821152,colour,0.4
176,20,1,1,5,35,235,326.2737883310765,326.88032539607957,"[55, 0, 199]",199,a,0.083289485424757,colour,0.4
176,20,1,1,5,36,236,327.3994013532065,328.09631635341793,"[2, 0, 252]",252,a,0.17423613462597132,colour,0.4
176,20,1,1,5,37,237,328.6174158938229,329.3123604799621,"[46, 0, 208]",208,a,0.1717068525031209,colour,0.4
176,20,1,1,5,38,238,329.8205461865291,330.5443577542901,"[84, 0, 170]",170,l,0.20045056054368615,colour,0.4
176,20,1,1,5,39,239,331.0549380481243,331.84033264266327,"[73, 0, 181]",181,l,0.26233015349134803,colour,0.4
176,20,1,1,5,40,240,332.3517983034253,333.11233212286606,"[86, 0, 168]",168,l,0.23739848611876369,colour,0.4
176,20,1,1,5,41,241,333.6330106416717,334.32029845705256,"[41, 0, 213]",213,a,0.16390790324658155,colour,0.4
176,20,1,1,5,42,242,334.8362110387534,335.76037273649126,"[14, 0, 240]",240,a,0.4008593731559813,colour,0.4
176,20,1,1,5,43,243,336.2736752969213,336.9763140687719,"[39, 0, 215]",215,a,0.17786109820008278,colour,0.4
176,20,1,1,5,44,244,337.4938213354908,338.0963529809378,"[57, 0, 197]",197,a,0.07911274256184697,colour,0.4
176,20,1,1,5,45,245,338.6032724706456,339.30431419517845,"[96, 0, 158]",158,l,0.17783786123618484,colour,0.4
176,20,1,1,5,46,246,339.8221093630418,340.46435098024085,"[89, 0, 165]",165,l,0.11904051108285785,colour,0.4
176,20,1,1,5,47,247,340.9781836583279,341.6083542727865,"[94, 0, 160]",160,l,0.10698880674317479,colour,0.4
176,20,1,1,5,48,248,342.11879553832114,342.83235488738865,"[52, 0, 202]",202,a,0.19015816878527403,colour,0.4
176,20,1,1,5,49,249,343.35320591088384,344.00839641457424,"[20, 0, 234]",234,a,0.13194489339366555,colour,0.4
176,20,1,1,5,50,250,344.5250789662823,345.27237048372626,"[54, 0, 200]",200,a,0.2239714697934687,colour,0.4
176,20,1,1,6,1,251,349.789912014734,350.5203370540403,"[67, 0, 187]",187,a,0.2062365603633225,colour,0.28
176,20,1,1,6,2,252,351.0407717814669,351.59236489096656,"[51, 0, 203]",203,a,0.028346710838377476,colour,0.28
176,20,1,1,6,3,253,352.1032193014398,352.72033626632765,"[90, 0, 164]",164,l,0.09393948968499899,colour,0.28
176,20,1,1,6,4,254,353.2282226490788,354.38434814475477,"[35, 0, 219]",219,a,0.6334521439857781,colour,0.28
176,20,1,1,6,5,255,354.9001402091235,355.66442581126466,"[31, 0, 223]",223,a,0.24100415129214525,colour,0.28
176,20,1,1,6,6,256,356.1813336429186,356.9763373057358,"[73, 0, 181]",181,a,0.2717383597046137,colour,0.28
176,20,1,1,6,7,257,357.49385166168213,358.0243385345675,"[57, 0, 197]",197,a,0.007160523906350136,colour,0.28
176,20,1,1,6,8,258,358.54081746796146,359.14434003131464,"[88, 0, 166]",166,l,0.08020251570269465,colour,0.28
176,20,1,1,6,9,259,359.6501622647047,360.22433774685487,"[42, 0, 212]",212,a,0.05079163145273924,colour,0.28
176,20,1,1,6,10,260,360.7439729664475,361.3523961622268,"[97, 0, 157]",157,l,0.08514410816133022,colour,0.28
176,20,1,1,6,11,261,361.86884201224893,362.54436287423596,"[74, 0, 180]",180,a,0.15212913416326046,colour,0.28
176,20,1,1,6,12,262,363.05642009247094,363.6323308623396,"[82, 0, 172]",172,l,0.05271872226148844,colour,0.28
176,20,1,1,6,13,263,364.15015084296465,365.8244066699408,"[83, 0, 171]",171,l,1.1508503146469593,colour,0.28
176,20,1,1,6,14,264,366.3376572430134,367.0803777775727,"[85, 0, 169]",169,l,0.21937567461282015,colour,0.28
176,20,1,1,6,15,265,367.58765369839966,368.15264586079866,"[78, 0, 176]",176,l,0.0416851113550365,colour,0.28
176,20,1,1,6,16,266,368.6657050247304,369.1923908847384,"[94, 0, 160]",160,l,0.0033610863611102104,colour,0.28
176,20,1,1,6,17,267,369.7128740558401,370.4243727992289,"[56, 0, 198]",198,a,0.18865603813901544,colour,0.28
176,20,1,1,6,18,268,370.9313718462363,371.6324116010219,"[65, 0, 189]",189,a,0.17775987973436713,colour,0.28
176,20,1,1,6,19,269,372.1501224860549,372.76834970433265,"[69, 0, 185]",185,a,0.09486975520849228,colour,0.28
176,20,1,1,6,20,270,373.27512032026425,373.82440706389025,"[6, 0, 248]",248,a,0.026188825722783804,colour,0.28
176,20,1,1,6,21,271,374.33760013524443,375.1283896402456,"[75, 0, 179]",179,a,0.2674954510293901,colour,0.28
176,20,1,1,6,22,272,375.6500098463148,376.1923648910597,"[7, 0, 247]",247,a,0.018891243264079094,colour,0.28
176,20,1,1,6,23,273,376.7126483814791,377.2483915304765,"[22, 0, 232]",232,a,0.012742117047309875,colour,0.28
176,20,1,1,6,24,274,377.7513969736174,378.47237442201003,"[86, 0, 168]",168,l,0.19766330858692527,colour,0.28
176,20,1,1,6,25,275,378.98573999805376,379.67241420038044,"[66, 0, 188]",188,a,0.1633242224343121,colour,0.28
176,20,1,1,6,26,276,380.1888990411535,381.5124014397152,"[72, 0, 182]",182,a,0.8001283938065171,colour,0.28
176,20,1,1,6,27,277,382.0326108876616,382.7124148304574,"[98, 0, 156]",156,l,0.15649216622114182,colour,0.28
176,20,1,1,6,28,278,383.2201090166345,383.8323627640493,"[91, 0, 163]",163,l,0.08889707224443555,colour,0.28
176,20,1,1,6,29,279,384.34513796446845,385.0644037555903,"[60, 0, 194]",194,a,0.19612494390457869,colour,0.28
176,20,1,1,6,30,280,385.5794998938218,386.7684513167478,"[4, 0, 250]",250,a,0.6659472403116524,colour,0.28
176,20,1,1,6,31,281,387.28264554589987,388.34437862830237,"[62, 0, 192]",192,a,0.5383508070372045,colour,0.28
176,20,1,1,6,32,282,388.85266319010407,389.656383858528,"[64, 0, 190]",190,a,0.2804443375207484,colour,0.28
176,20,1,1,6,33,283,390.16512685781345,390.9043823303655,"[50, 0, 204]",204,a,0.215958661865443,colour,0.28
176,20,1,1,6,34,284,391.41513906698674,392.2563893725164,"[77, 0, 177]",177,a,0.3179109594784677,colour,0.28
176,20,1,1,6,35,285,392.7753152740188,393.4244086393155,"[63, 0, 191]",191,a,0.12568824691697955,colour,0.28
176,20,1,1,6,36,286,393.9316215449944,394.7043665763922,"[29, 0, 225]",225,a,0.24941946985200047,colour,0.28
176,20,1,1,6,37,287,395.21280867699534,396.17639165651053,"[27, 0, 227]",227,a,0.4404661566950381,colour,0.28
176,20,1,1,6,38,288,396.69722259417176,397.368385150563,"[80, 0, 174]",174,l,0.14788740733638406,colour,0.28
176,20,1,1,6,39,289,397.88666790071875,398.55235756514594,"[18, 0, 236]",236,a,0.14247950026765466,colour,0.28
176,20,1,1,6,40,290,399.04927335307,399.79240978928283,"[99, 0, 155]",155,l,0.21977227786555886,colour,0.28
176,20,1,1,6,41,291,400.29932415951043,401.0403956579976,"[53, 0, 201]",201,a,0.2177896541543305,colour,0.28
176,20,1,1,6,42,292,401.54930013464764,402.27241735113785,"[49, 0, 205]",205,a,0.1996589289046824,colour,0.28
176,20,1,1,6,43,293,402.78373847017065,403.51241207355633,"[81, 0, 173]",173,l,0.205257851164788,colour,0.28
176,20,1,1,6,44,294,404.03383614402264,404.7924479926005,"[96, 0, 158]",158,l,0.2351401699706912,colour,0.28
176,20,1,1,6,45,295,405.2995707071386,405.8804396116175,"[93, 0, 161]",161,l,0.0575890289619565,colour,0.28
176,20,1,1,6,46,296,406.3932140241377,407.0963892149739,"[36, 0, 218]",218,a,0.1797696785070002,colour,0.28
176,20,1,1,6,47,297,407.6120056239888,408.3203957369551,"[13, 0, 241]",241,a,0.18584397388622165,colour,0.28
176,20,1,1,6,48,298,408.83075665775687,409.5364048113115,"[79, 0, 175]",175,l,0.18241278268396854,colour,0.28
176,20,1,1,6,49,299,410.0495325042866,410.7765480140224,"[71, 0, 183]",183,a,0.20075027784332633,colour,0.28
176,20,1,1,6,50,300,411.28686915617436,412.0324836750515,"[39, 0, 215]",215,a,0.22230825573205948,colour,0.28
176,20,1,1,7,1,301,416.37975786300376,417.2723815110512,"[53, 0, 201]",201,a,0.36849463963881135,colour,0.14
176,20,1,1,7,2,302,417.7763912626542,418.5124140428379,"[68, 0, 186]",186,a,0.2253054277971387,colour,0.14
176,20,1,1,7,3,303,419.0296909091994,419.68842248711735,"[87, 0, 167]",167,l,0.13535954244434834,colour,0.14
176,20,1,1,7,4,304,420.2015395462513,420.8644301434979,"[61, 0, 193]",193,a,0.1394760268740356,colour,0.14
176,20,1,1,7,5,305,421.37342953681946,422.02446732250974,"[12, 0, 242]",242,a,0.1277118301950395,colour,0.14
176,20,1,1,7,6,306,422.5453234659508,423.2324238102883,"[75, 0, 179]",179,l,0.1638240134343505,colour,0.14
176,20,1,1,7,7,307,423.74849156755954,424.37652674596757,"[71, 0, 183]",183,a,0.10475412150844932,colour,0.14
176,20,1,1,7,8,308,424.88907312136143,425.5444172252901,"[73, 0, 181]",181,l,0.13227021042257547,colour,0.14
176,20,1,1,7,9,309,426.06247115088627,426.6643864265643,"[84, 0, 170]",170,l,0.07887604087591171,colour,0.14
176,20,1,1,7,10,310,427.1717694737017,427.768411538098,"[66, 0, 188]",188,a,0.07330114301294088,colour,0.14
176,20,1,1,7,11,311,428.28114577848464,428.8884914102964,"[83, 0, 171]",171,l,0.08401691960170865,colour,0.14
176,20,1,1,7,12,312,429.3968913690187,429.9764747582376,"[51, 0, 203]",203,a,0.05627870140597224,colour,0.14
176,20,1,1,7,13,313,430.4925275496207,431.04842934012413,"[97, 0, 157]",157,l,0.03253093687817454,colour,0.14
176,20,1,1,7,14,314,431.5426748483442,432.2564094583504,"[37, 0, 217]",217,a,0.200111064594239,colour,0.14
176,20,1,1,7,15,315,432.7674509463832,433.3204201553017,"[79, 0, 175]",175,l,0.029721235390752554,colour,0.14
176,20,1,1,7,16,316,433.8299130387604,434.46465502958745,"[69, 0, 185]",185,a,0.11141130933538079,colour,0.14
176,20,1,1,7,17,317,434.9705962049775,435.560432207305,"[99, 0, 155]",155,l,0.06652383180335164,colour,0.14
176,20,1,1,7,18,318,436.0797653463669,436.6324419272132,"[60, 0, 194]",194,a,0.029152520932257175,colour,0.14
176,20,1,1,7,19,319,437.14238300779834,437.76047592423856,"[70, 0, 184]",184,a,0.0947204870171845,colour,0.14
176,20,1,1,7,20,320,438.2678203745745,438.9124329476617,"[93, 0, 161]",161,l,0.12139216903597116,colour,0.14
176,20,1,1,7,21,321,439.4239568975754,440.2004458340816,"[81, 0, 173]",173,l,0.2531917323358357,colour,0.14
176,20,1,1,7,22,322,440.72159066749737,441.4404740338214,"[54, 0, 200]",200,a,0.19560664193704724,colour,0.14
176,20,1,1,7,23,323,441.95600261492655,442.6084204390645,"[63, 0, 191]",191,a,0.12897607777267694,colour,0.14
176,20,1,1,7,24,324,443.1279162368737,443.84049569536,"[88, 0, 166]",166,l,0.18934842059388757,colour,0.14
176,20,1,1,7,25,325,444.3487680479884,445.05645829532295,"[65, 0, 189]",189,a,0.18518073577433825,colour,0.14
176,20,1,1,7,26,326,445.5673883249983,446.3285231543705,"[18, 0, 236]",236,a,0.23818893637508154,colour,0.14
176,20,1,1,7,27,327,446.8485849094577,447.600441895891,"[57, 0, 197]",197,a,0.22853142535313964,colour,0.14
176,20,1,1,7,28,328,448.1142162848264,448.83243405027315,"[91, 0, 163]",163,l,0.1949256812222302,colour,0.14
176,20,1,1,7,29,329,449.34856876172125,450.1444459762424,"[95, 0, 159]",159,l,0.2732109525240958,colour,0.14
176,20,1,1,7,30,330,450.66117185074836,451.4084803038277,"[10, 0, 244]",244,a,0.2240687501616776,colour,0.14
176,20,1,1,7,31,331,451.9267039769329,452.6804396114312,"[5, 0, 249]",249,a,0.23110600002110004,colour,0.14
176,20,1,1,7,32,332,453.19245744496584,453.88051719916984,"[98, 0, 156]",156,l,0.16479720827192068,colour,0.14
176,20,1,1,7,33,333,454.3956578420475,455.032465164084,"[67, 0, 187]",187,a,0.11378699168562889,colour,0.14
176,20,1,1,7,34,334,455.5518439896405,456.2004596190527,"[59, 0, 195]",195,a,0.1252739205956459,colour,0.14
176,20,1,1,7,35,335,456.70811481401324,457.4484285521321,"[58, 0, 196]",196,a,0.21698660124093294,colour,0.14
176,20,1,1,7,36,336,457.9487869525328,458.6884776256047,"[29, 0, 225]",225,a,0.2164206439629197,colour,0.14
176,20,1,1,7,37,337,459.1987869525328,459.79248304478824,"[82, 0, 172]",172,l,0.07026458624750376,colour,0.14
176,20,1,1,7,38,338,460.30826447578147,460.9284814065322,"[72, 0, 182]",182,a,0.09704693872481585,colour,0.14
176,20,1,1,7,39,339,461.4488050695509,462.1204583584331,"[55, 0, 199]",199,a,0.14841752452775836,colour,0.14
176,20,1,1,7,40,340,462.6363449464552,463.320434727706,"[94, 0, 160]",160,l,0.1608764659613371,colour,0.14
176,20,1,1,7,41,341,463.8394449125044,464.6085169315338,"[96, 0, 158]",158,l,0.24627618119120598,colour,0.14
176,20,1,1,7,42,342,465.1209553927183,465.8644848880358,"[64, 0, 190]",190,a,0.2203051522374153,colour,0.14
176,20,1,1,7,43,343,466.37090025423095,467.10453671822324,"[85, 0, 169]",169,l,0.21017463132739067,colour,0.14
176,20,1,1,7,44,344,467.62090931273997,468.32048159558326,"[77, 0, 177]",177,a,0.17628846922889352,colour,0.14
176,20,1,1,7,45,345,468.839697368443,469.3689641049132,"[74, 0, 180]",180,a,0.00550006702542305,colour,0.14
176,20,1,1,7,46,346,469.9026899719611,470.520444967784,"[20, 0, 234]",234,a,0.09443376678973436,colour,0.14
176,20,1,1,7,47,347,471.02774845808744,471.5685399319045,"[50, 0, 204]",204,a,0.017582097090780735,colour,0.14
176,20,1,1,7,48,348,472.09018416237086,472.72848967742175,"[86, 0, 168]",168,l,0.11494726408272982,colour,0.14
176,20,1,1,7,49,349,473.246433719527,474.44852858921513,"[76, 0, 178]",178,a,0.6786759668029845,colour,0.14
176,20,1,1,7,50,350,474.96522177476436,475.9365682573989,"[62, 0, 192]",192,a,0.44808511808514595,colour,0.14
176,20,1,1,8,1,351,480.3081794050522,480.8964829505421,"[69, 0, 185]",185,a,0.06425685109570622,colour,0.06
176,20,1,1,8,2,352,481.4027336887084,482.0084862112999,"[91, 0, 163]",163,l,0.08256086893379688,colour,0.06
176,20,1,1,8,3,353,482.5276633873582,483.17644994612783,"[42, 0, 212]",212,a,0.1254763575270772,colour,0.06
176,20,1,1,8,4,354,483.68394917808473,484.3604763178155,"[66, 0, 188]",188,a,0.15317715983837843,colour,0.06
176,20,1,1,8,5,355,484.87146778730676,485.4964648336172,"[53, 0, 201]",201,a,0.1017455281689763,colour,0.06
176,20,1,1,8,6,356,485.9995584981516,486.6085358359851,"[90, 0, 164]",164,l,0.0837518610060215,colour,0.06
176,20,1,1,8,7,357,487.12646766891703,487.8005049112253,"[57, 0, 197]",197,a,0.15076760668307543,colour,0.06
176,20,1,1,8,8,358,488.31388584757224,489.4564917725511,"[78, 0, 176]",176,l,0.6193441669456661,colour,0.06
176,20,1,1,8,9,359,489.9701964505948,490.6724524036981,"[60, 0, 194]",194,a,0.1790962009690702,colour,0.06
176,20,1,1,8,10,360,491.1889053429477,491.8404838796705,"[38, 0, 216]",216,a,0.140658353921026,colour,0.06
176,20,1,1,8,11,361,492.3483730200678,493.02451300853863,"[64, 0, 190]",190,a,0.1528857136145234,colour,0.06
176,20,1,1,8,12,362,493.53586760442704,494.09649319015443,"[87, 0, 167]",167,l,0.03652966022491455,colour,0.06
176,20,1,1,8,13,363,494.6147420699708,495.20847321441397,"[62, 0, 192]",192,a,0.07037880178540945,colour,0.06
176,20,1,1,8,14,364,495.72413530992344,496.30473600467667,"[72, 0, 182]",182,a,0.05687734857201576,colour,0.06
176,20,1,1,8,15,365,496.8179676728323,499.1844883537851,"[81, 0, 173]",173,l,1.8432459253817797,colour,0.06
176,20,1,1,8,16,366,499.6929938639514,500.3284951909445,"[73, 0, 181]",181,a,0.11247823992744088,colour,0.06
176,20,1,1,8,17,367,500.84920915588737,501.44054610747844,"[51, 0, 203]",203,a,0.06799721159040928,colour,0.06
176,20,1,1,8,18,368,501.95858309743926,504.1924850139767,"[6, 0, 248]",248,a,1.7106507918797433,colour,0.06
176,20,1,1,8,19,369,504.70860515302047,505.45652682473883,"[71, 0, 183]",183,a,0.22462761821225286,colour,0.06
176,20,1,1,8,20,370,505.9741739067249,506.7524804454297,"[61, 0, 193]",193,a,0.2549219001084566,colour,0.06
176,20,1,1,8,21,371,507.2710384945385,508.01648484077305,"[55, 0, 199]",199,a,0.22210581880062819,colour,0.06
176,20,1,1,8,22,372,508.53670846670866,509.2965034302324,"[50, 0, 204]",204,a,0.2365903127938509,colour,0.06
176,20,1,1,8,23,373,509.8178987498395,510.408473608084,"[89, 0, 165]",165,l,0.067320188973099,colour,0.06
176,20,1,1,8,24,374,510.9273148328066,511.64852898335084,"[70, 0, 184]",184,a,0.1982993707060814,colour,0.06
176,20,1,1,8,25,375,512.1517215031199,512.800486006774,"[99, 0, 155]",155,l,0.1254865974187851,colour,0.06
176,20,1,1,8,26,376,513.3079056814313,513.8645274234004,"[77, 0, 177]",177,a,0.03325561434030533,colour,0.06
176,20,1,1,8,27,377,514.3860385338776,515.6964924028143,"[92, 0, 162]",162,l,0.7869971566833556,colour,0.06
176,20,1,1,8,28,378,516.214177293703,517.0165403732099,"[76, 0, 178]",178,a,0.2794683859683573,colour,0.06
176,20,1,1,8,29,379,517.5266582909971,518.4165529762395,"[84, 0, 170]",170,l,0.3666959423571825,colour,0.06
176,20,1,1,8,30,380,518.9357494506985,519.6005183020607,"[56, 0, 198]",198,a,0.15366986207664013,colour,0.06
176,20,1,1,8,31,381,520.1110773277469,520.8004875821061,"[58, 0, 196]",196,a,0.16622844710946083,colour,0.06
176,20,1,1,8,32,382,521.3141127033159,522.128538120538,"[75, 0, 179]",179,a,0.2911006435751915,colour,0.06
176,20,1,1,8,33,383,522.6329133617692,523.552535190247,"[52, 0, 202]",202,a,0.3962765750475228,colour,0.06
176,20,1,1,8,34,384,524.0704193678685,524.8005785606802,"[80, 0, 174]",174,l,0.20750947203487158,colour,0.06
176,20,1,1,8,35,385,525.3204792323522,526.0645183650777,"[94, 0, 160]",160,l,0.22075531911104918,colour,0.06
176,20,1,1,8,36,386,526.5860704355873,527.2005249974318,"[88, 0, 166]",166,l,0.09117508074268699,colour,0.06
176,20,1,1,8,37,387,527.7110316418111,528.3365375376306,"[79, 0, 175]",175,l,0.1025718180462718,colour,0.06
176,20,1,1,8,38,388,528.8516730600968,529.5205379156396,"[54, 0, 200]",200,a,0.14558734325692058,colour,0.06
176,20,1,1,8,39,389,530.0392184508964,530.7285302435048,"[86, 0, 168]",168,l,0.16606106190010905,colour,0.06
176,20,1,1,8,40,390,531.2422632784583,531.8645104882307,"[85, 0, 169]",169,l,0.09887084225192666,colour,0.06
176,20,1,1,8,41,391,532.3829503832385,533.0965621136129,"[83, 0, 171]",171,l,0.19032516004517674,colour,0.06
176,20,1,1,8,42,392,533.6172871063463,534.1445527086034,"[82, 0, 172]",172,l,0.003901443909853697,colour,0.06
176,20,1,1,8,43,393,534.6641331831925,535.3925539371558,"[68, 0, 186]",186,a,0.20508967898786068,colour,0.06
176,20,1,1,8,44,394,535.9141532694921,536.5925976540893,"[95, 0, 159]",159,l,0.1551440297625959,colour,0.06
176,20,1,1,8,45,395,537.0923333833925,537.720568635501,"[67, 0, 187]",187,a,0.10488684801384807,colour,0.06
176,20,1,1,8,46,396,538.2329744077288,539.3925082511269,"[65, 0, 189]",189,a,0.6362988664768636,colour,0.06
176,20,1,1,8,47,397,539.9048309214413,540.6085401684977,"[98, 0, 156]",156,l,0.18035375326871872,colour,0.06
176,20,1,1,8,48,398,541.1237201956101,542.0325396014377,"[59, 0, 195]",195,a,0.38550369068980217,colour,0.06
176,20,1,1,8,49,399,542.5457035279833,543.2325289673172,"[97, 0, 157]",157,l,0.16375193977728486,colour,0.06
176,20,1,1,8,50,400,543.74865816487,544.65654100338,"[74, 0, 180]",180,a,0.38448205264285207,colour,0.06
176,20,1,1,9,1,401,548.8572605610825,549.8405973077752,"[80, 0, 174]",174,l,0.459135664626956,colour,0.06
176,20,1,1,9,2,402,550.3581522293389,550.9765535276383,"[91, 0, 163]",163,l,0.09507455537095666,colour,0.06
176,20,1,1,9,3,403,551.4831618787721,552.200560443569,"[87, 0, 167]",167,l,0.19409230165183544,colour,0.06
176,20,1,1,9,4,404,552.7173851737753,553.3605952598155,"[64, 0, 190]",190,a,0.11978566879406571,colour,0.06
176,20,1,1,9,5,405,553.8737071985379,554.5125952125527,"[71, 0, 183]",183,a,0.11549510480836034,colour,0.06
176,20,1,1,9,6,406,555.0299603003077,555.7205650908872,"[79, 0, 175]",175,l,0.16746945725753903,colour,0.06
176,20,1,1,9,7,407,556.2331059523858,556.9285664772615,"[70, 0, 184]",184,a,0.17237639101222157,colour,0.06
176,20,1,1,9,8,408,557.4379593236372,558.1126995817758,"[98, 0, 156]",156,l,0.15138515830039978,colour,0.06
176,20,1,1,9,9,409,558.6254082219675,559.3045481396839,"[65, 0, 189]",189,a,0.15576315624639392,colour,0.06
176,20,1,1,9,10,410,559.8139606784098,560.5125550399534,"[94, 0, 160]",160,l,0.1752376863732934,colour,0.06
176,20,1,1,9,11,411,561.0326868998818,561.7365989773534,"[52, 0, 202]",202,a,0.1805916358716786,colour,0.06
176,20,1,1,9,12,412,562.2497723568231,564.144602727145,"[51, 0, 203]",203,a,1.3716272953897715,colour,0.06
176,20,1,1,9,13,413,564.6435755752027,565.5046359677799,"[85, 0, 169]",169,l,0.3377549173310399,colour,0.06
176,20,1,1,9,14,414,566.01850921195,566.9205363402143,"[77, 0, 177]",177,l,0.3786862068809569,colour,0.06
176,20,1,1,9,15,415,567.4404236213304,568.0965782613494,"[74, 0, 180]",180,a,0.13353997142985463,colour,0.06
176,20,1,1,9,16,416,568.5998428552411,569.3126149047166,"[81, 0, 173]",173,l,0.1894689374603331,colour,0.06
176,20,1,1,9,17,417,569.834277252201,570.4725429881364,"[57, 0, 197]",197,a,0.11494765756651759,colour,0.06
176,20,1,1,9,18,418,570.9904649751261,571.592583081685,"[89, 0, 165]",165,l,0.07881617592647672,colour,0.06
176,20,1,1,9,19,419,572.0998964183964,572.7608559858054,"[25, 0, 229]",229,a,0.1377864247187972,colour,0.06
176,20,1,1,9,20,420,573.2735331184231,574.0005513853393,"[69, 0, 185]",185,a,0.2035737638361752,colour,0.06
176,20,1,1,9,21,421,574.495562531054,575.0245669656433,"[56, 0, 198]",198,a,0.0058238087221980095,colour,0.06
176,20,1,1,9,22,422,575.5424200296402,576.2645900449716,"[83, 0, 171]",171,l,0.1991595313884318,colour,0.06
176,20,1,1,9,23,423,576.7768209492788,577.312553464435,"[75, 0, 179]",179,l,0.012434129137545824,colour,0.06
176,20,1,1,9,24,424,577.8237036541104,578.4405705262907,"[63, 0, 191]",191,a,0.09362086793407798,colour,0.06
176,20,1,1,9,25,425,578.948727088049,580.20855749771,"[73, 0, 181]",181,a,0.7365217837505043,colour,0.06
176,20,1,1,9,26,426,580.7301587988622,581.488593810238,"[61, 0, 193]",193,a,0.23541468102484941,colour,0.06
176,20,1,1,9,27,427,581.9957964760251,582.7125660679303,"[88, 0, 166]",166,l,0.19361417228356004,colour,0.06
176,20,1,1,9,28,428,583.2301627374254,583.9605326382443,"[93, 0, 161]",161,l,0.20704709645360708,colour,0.06
176,20,1,1,9,29,429,584.482568745967,585.0645778360777,"[60, 0, 194]",194,a,0.058663442730903625,colour,0.06
176,20,1,1,9,30,430,585.5762731088325,586.2647353745997,"[90, 0, 164]",164,l,0.17761967051774263,colour,0.06
176,20,1,1,9,31,431,586.7825801675208,587.4006522097625,"[66, 0, 188]",188,a,0.09471615450456738,colour,0.06
176,20,1,1,9,32,432,587.9076110841706,588.9926839065738,"[86, 0, 168]",168,l,0.560497585684061,colour,0.06
176,20,1,1,9,33,433,589.5026127779856,590.480617236346,"[49, 0, 205]",205,a,0.45457334630191326,colour,0.06
176,20,1,1,9,34,434,590.9870215747505,592.2327152569778,"[76, 0, 178]",178,a,0.7224063239991665,colour,0.06
176,20,1,1,9,35,435,592.7525387345813,594.304602490738,"[82, 0, 172]",172,l,1.0286239790730178,colour,0.06
176,20,1,1,9,36,436,594.8151662424207,595.5606043180451,"[41, 0, 213]",213,a,0.22217159112915397,colour,0.06
176,20,1,1,9,37,437,596.0807464178652,598.1206076266244,"[54, 0, 200]",200,a,1.5164651488885283,colour,0.06
176,20,1,1,9,38,438,598.6276452704333,599.4406406306662,"[95, 0, 159]",159,l,0.2896914603188634,colour,0.06
176,20,1,1,9,39,439,599.9576457426883,600.7046009153128,"[53, 0, 201]",201,a,0.21987507212907076,colour,0.06
176,20,1,1,9,40,440,601.2114991373383,601.9366434821859,"[92, 0, 162]",162,l,0.2019270909950137,colour,0.06
176,20,1,1,9,41,441,602.4439899018034,603.2006640252657,"[68, 0, 186]",186,a,0.23369987308979034,colour,0.06
176,20,1,1,9,42,442,603.7108402322046,604.392614195589,"[62, 0, 192]",192,a,0.15846730675548315,colour,0.06
176,20,1,1,9,43,443,604.9140209369361,605.5046414816752,"[96, 0, 158]",158,l,0.06738793104887009,colour,0.06
176,20,1,1,9,44,444,606.0108134504408,606.6645679897629,"[67, 0, 187]",187,a,0.13039668230339885,colour,0.06
176,20,1,1,9,45,445,607.1826971396804,607.8486124784686,"[55, 0, 199]",199,a,0.14261616487056017,colour,0.06
176,20,1,1,9,46,446,608.3703811648302,608.9765688874759,"[97, 0, 157]",157,l,0.08313588472083211,colour,0.06
176,20,1,1,9,47,447,609.4953108630143,610.152556064073,"[58, 0, 196]",196,a,0.13407087652012706,colour,0.06
176,20,1,1,9,48,448,610.6671212967485,611.2966471845284,"[99, 0, 155]",155,l,0.10614952025935054,colour,0.06
176,20,1,1,9,49,449,611.8077713800594,612.4246193473227,"[72, 0, 182]",182,a,0.09348932281136513,colour,0.06
176,20,1,1,9,50,450,612.9328070231713,613.5766086662188,"[59, 0, 195]",195,a,0.12050246959552169,colour,0.06
176,20,1,1,10,1,451,618.3538384283893,619.016690034885,"[58, 0, 196]",196,a,0.13873323192819953,colour,0.06
176,20,1,1,10,2,452,619.5265153246,620.1526171104051,"[91, 0, 163]",163,l,0.10276007652282715,colour,0.06
176,20,1,1,10,3,453,620.6671461090446,621.2806239314377,"[66, 0, 188]",188,a,0.090074279345572,colour,0.06
176,20,1,1,10,4,454,621.7921309461817,622.4245941410773,"[64, 0, 190]",190,a,0.10908564599230886,colour,0.06
176,20,1,1,10,5,455,622.932796782814,623.5206060511991,"[68, 0, 186]",186,a,0.06443053763359785,colour,0.06
176,20,1,1,10,6,456,624.0265157185495,624.592617740389,"[87, 0, 167]",167,l,0.04294660221785307,colour,0.06
176,20,1,1,10,7,457,625.1046540844254,625.6886186227202,"[54, 0, 200]",200,a,0.06069844774901867,colour,0.06
176,20,1,1,10,8,458,626.1984695121646,626.8006333052181,"[78, 0, 176]",176,a,0.07903515454381704,colour,0.06
176,20,1,1,10,9,459,627.3077560197562,627.9125881232321,"[50, 0, 204]",204,a,0.08155301585793495,colour,0.06
176,20,1,1,10,10,460,628.4341807598248,629.032656179741,"[55, 0, 199]",199,a,0.07523335423320532,colour,0.06
176,20,1,1,10,11,461,629.5434893229976,630.088680062443,"[75, 0, 179]",179,a,0.02181634120643139,colour,0.06
176,20,1,1,10,12,462,630.5935661229305,631.1526088393293,"[89, 0, 165]",165,l,0.035696675069630146,colour,0.06
176,20,1,1,10,13,463,631.6719746678136,632.3366293036379,"[92, 0, 162]",162,l,0.1411951668560505,colour,0.06
176,20,1,1,10,14,464,632.844175403472,633.4166581332684,"[67, 0, 187]",187,a,0.048832638654857874,colour,0.06
176,20,1,1,10,15,465,633.9228135608137,634.6486302018166,"[70, 0, 184]",184,a,0.20253361482173204,colour,0.06
176,20,1,1,10,16,466,635.1572243268602,635.7605984103866,"[71, 0, 183]",183,a,0.08016903884708881,colour,0.06
176,20,1,1,10,17,467,636.2665313147008,636.8886154717766,"[85, 0, 169]",169,l,0.09873654041439295,colour,0.06
176,20,1,1,10,18,468,637.4071624930948,638.0965979536995,"[74, 0, 180]",180,a,0.16607563430443406,colour,0.06
176,20,1,1,10,19,469,638.6103030256927,639.2886375272647,"[61, 0, 193]",193,a,0.15495262015610933,colour,0.06
176,20,1,1,10,20,470,639.7977960347198,640.3446684991941,"[63, 0, 191]",191,a,0.02364260796457529,colour,0.06
176,20,1,1,10,21,471,640.8602778194472,641.4646239159629,"[26, 0, 228]",228,a,0.08098469534888864,colour,0.06
176,20,1,1,10,22,472,641.9853347302414,642.5606181025505,"[7, 0, 247]",247,a,0.05202082637697458,colour,0.06
176,20,1,1,10,23,473,643.0791355855763,644.0085901869461,"[96, 0, 158]",158,l,0.40640236949548125,colour,0.06
176,20,1,1,10,24,474,644.5192945422605,645.5926630329341,"[59, 0, 195]",195,a,0.5516604571603239,colour,0.06
176,20,1,1,10,25,475,646.1122226333246,646.8966298550367,"[99, 0, 155]",155,l,0.26125062024220824,colour,0.06
176,20,1,1,10,26,476,647.4101860532537,648.0086130299605,"[72, 0, 182]",182,a,0.07513449853286147,colour,0.06
176,20,1,1,10,27,477,648.5195722039789,649.1126515325159,"[97, 0, 157]",157,l,0.07049183547496796,colour,0.06
176,20,1,1,10,28,478,649.6289138500579,650.184703394305,"[80, 0, 174]",174,a,0.03255732450634241,colour,0.06
176,20,1,1,10,29,479,650.6914220224135,651.2806188114919,"[93, 0, 161]",161,l,0.06588973850011826,colour,0.06
176,20,1,1,10,30,480,651.8007821789943,652.3686214582995,"[84, 0, 170]",170,l,0.044412892777472734,colour,0.06
176,20,1,1,10,31,481,652.8788709207438,653.5286184651777,"[76, 0, 178]",178,l,0.1265385616570711,colour,0.06
176,20,1,1,10,32,482,654.0351693145931,654.6086429622956,"[98, 0, 156]",156,l,0.050191409420222044,colour,0.06
176,20,1,1,10,33,483,655.1289299977943,655.7126802830026,"[60, 0, 194]",194,a,0.06052121613174677,colour,0.06
176,20,1,1,10,34,484,656.2226902870461,656.9606342506595,"[90, 0, 164]",164,l,0.21463691303506494,colour,0.06
176,20,1,1,10,35,485,657.4726481451653,658.0967090181075,"[94, 0, 160]",160,l,0.10077981604263186,colour,0.06
176,20,1,1,10,36,486,658.6132163084112,659.2566386773251,"[69, 0, 185]",185,a,0.12021220475435257,colour,0.06
176,20,1,1,10,37,487,659.7694824067876,660.3766779829748,"[88, 0, 166]",166,l,0.08383259922266006,colour,0.06
176,20,1,1,10,38,488,660.8945416808128,661.464650303591,"[83, 0, 171]",171,l,0.046783455181866884,colour,0.06
176,20,1,1,10,39,489,661.9726138808765,662.6246520364657,"[53, 0, 201]",201,a,0.12869250820949674,colour,0.06
176,20,1,1,10,40,490,663.1445735823363,663.7207269617356,"[49, 0, 205]",205,a,0.052902255207300186,colour,0.06
176,20,1,1,10,41,491,664.2382984254509,664.9286314621568,"[57, 0, 197]",197,a,0.16706261411309242,colour,0.06
176,20,1,1,10,42,492,665.4414157206193,666.5688408305869,"[56, 0, 198]",198,a,0.604102305136621,colour,0.06
176,20,1,1,10,43,493,667.0820240559988,667.9366371808574,"[77, 0, 177]",177,a,0.33136318204924464,colour,0.06
176,20,1,1,10,44,494,668.4571857303381,669.0246610948816,"[86, 0, 168]",168,l,0.04434908973053098,colour,0.06
176,20,1,1,10,45,495,669.5351255978458,670.2566524618305,"[62, 0, 192]",192,a,0.19815601035952568,colour,0.06
176,20,1,1,10,46,496,670.7694355389103,671.4566323757172,"[52, 0, 202]",202,a,0.16373106604442,colour,0.06
176,20,1,1,10,47,497,671.9726528716274,672.864629429765,"[82, 0, 172]",172,l,0.36865375377237797,colour,0.06
176,20,1,1,10,48,498,673.3788898251951,674.1127007631585,"[81, 0, 173]",173,l,0.21058856416493654,colour,0.06
176,20,1,1,10,49,499,674.6288524097763,675.3686899878085,"[95, 0, 159]",159,a,0.21659314865246415,colour,0.06
176,20,1,1,10,50,500,675.87891542539,676.7446291148663,"[79, 0, 175]",175,l,0.34257599292322993,colour,0.06
176,20,1,1,11,1,501,681.122401597444,681.8806641041301,"[46, 0, 208]",208,a,0.23413586150854826,colour,0.06
176,20,1,1,11,2,502,682.38885926269,683.1447023702785,"[67, 0, 187]",187,a,0.23590147541835904,colour,0.06
176,20,1,1,11,3,503,683.6511228564195,684.2566918465309,"[93, 0, 161]",161,l,0.08185273269191384,colour,0.06
176,20,1,1,11,4,504,684.7764495522715,685.4806609530933,"[90, 0, 164]",164,l,0.180881901178509,colour,0.06
176,20,1,1,11,5,505,685.9952230351046,687.1127090342343,"[73, 0, 181]",181,a,0.5943459393456578,colour,0.06
176,20,1,1,11,6,506,687.6108469273895,688.3606976596639,"[80, 0, 174]",174,l,0.22655116440728307,colour,0.06
176,20,1,1,11,7,507,688.8764802720398,689.5686939260922,"[92, 0, 162]",162,l,0.16889203106984496,colour,0.06
176,20,1,1,11,8,508,690.0796101707965,690.8887690720148,"[57, 0, 197]",197,a,0.28615550650283694,colour,0.06
176,20,1,1,11,9,509,691.4077028506435,692.1527002118528,"[58, 0, 196]",196,a,0.23422762751579285,colour,0.06
176,20,1,1,11,10,510,692.663520751521,693.4007097114809,"[62, 0, 192]",192,a,0.21454750979319215,colour,0.06
176,20,1,1,11,11,511,693.9133423394524,694.8806900978088,"[76, 0, 178]",178,a,0.4442080925218761,colour,0.06
176,20,1,1,11,12,512,695.3976865452714,696.2168196104467,"[96, 0, 158]",158,l,0.2958193188533187,colour,0.06
176,20,1,1,11,13,513,696.7264373428188,697.7287334683351,"[81, 0, 173]",173,l,0.47888628067448735,colour,0.06
176,20,1,1,11,14,514,698.2421455183066,699.0247950027697,"[77, 0, 177]",177,l,0.2593660643324256,colour,0.06
176,20,1,1,11,15,515,699.5389778106473,700.2966818427667,"[98, 0, 156]",156,l,0.23524808371439576,colour,0.06
176,20,1,1,11,16,516,700.8047029213049,701.4647015035152,"[63, 0, 191]",191,a,0.1367998393252492,colour,0.06
176,20,1,1,11,17,517,701.9765172936022,702.5767209124751,"[99, 0, 155]",155,l,0.07683985400944948,colour,0.06
176,20,1,1,11,18,518,703.0858813892119,703.7127015511505,"[72, 0, 182]",182,a,0.1034985389560461,colour,0.06
176,20,1,1,11,19,519,704.2265948816203,704.8247221410275,"[70, 0, 184]",184,a,0.0747894886881113,colour,0.06
176,20,1,1,11,20,520,705.3358609089628,705.9687514277175,"[78, 0, 176]",176,a,0.10943538183346391,colour,0.06
176,20,1,1,11,21,521,706.4765125676058,707.1366895623505,"[56, 0, 198]",198,a,0.13677305774763227,colour,0.06
176,20,1,1,11,22,522,707.6484809336253,708.4487219681032,"[79, 0, 175]",175,l,0.2769457991234958,colour,0.06
176,20,1,1,11,23,523,708.9609335740097,709.5366891683079,"[19, 0, 235]",235,a,0.05251274071633816,colour,0.06
176,20,1,1,11,24,524,710.054693469312,713.4087280333042,"[75, 0, 179]",179,a,2.830766504164785,colour,0.06
176,20,1,1,11,25,525,713.9296641275287,714.5847601080313,"[94, 0, 160]",160,l,0.1319590713828802,colour,0.06
176,20,1,1,11,26,526,715.1015552999452,715.8167227241211,"[89, 0, 165]",165,l,0.19189975829795003,colour,0.06
176,20,1,1,11,27,527,716.3359058075584,717.0326904444955,"[52, 0, 202]",202,a,0.1735039739869535,colour,0.06
176,20,1,1,11,28,528,717.5390345244668,718.2326849307865,"[87, 0, 167]",167,l,0.17040676483884454,colour,0.06
176,20,1,1,11,29,529,718.7421218873933,719.3367112237029,"[53, 0, 201]",201,a,0.07129331305623055,colour,0.06
176,20,1,1,11,30,530,719.8515281244181,720.4487326019444,"[60, 0, 194]",194,a,0.07386985747143626,colour,0.06
176,20,1,1,11,31,531,720.960870558396,721.5367194944993,"[82, 0, 172]",172,l,0.05259347939863801,colour,0.06
176,20,1,1,11,32,532,722.0546930753626,722.6007534284145,"[55, 0, 199]",199,a,0.022738336119800806,colour,0.06
176,20,1,1,11,33,533,723.1171441399492,723.6967283166014,"[86, 0, 168]",168,l,0.056285790633410215,colour,0.06
176,20,1,1,11,34,534,724.2109485398978,724.7767339092679,"[2, 0, 252]",252,a,0.04258505115285516,colour,0.06
176,20,1,1,11,35,535,725.2890620939434,725.8567150835879,"[85, 0, 169]",169,l,0.0443577547557652,colour,0.06
176,20,1,1,11,36,536,726.3671350814402,726.9127366030589,"[91, 0, 163]",163,l,0.02231731405481696,colour,0.06
176,20,1,1,11,37,537,727.4296424658969,728.0246886643581,"[66, 0, 188]",188,a,0.07197033567354083,colour,0.06
176,20,1,1,11,38,538,728.5390597307123,729.0887726168148,"[95, 0, 159]",159,l,0.026455066166818142,colour,0.06
176,20,1,1,11,39,539,729.5922278324142,730.2247697967105,"[88, 0, 166]",166,l,0.10986624984070659,colour,0.06
176,20,1,1,11,40,540,730.7328471955843,731.3367667561397,"[65, 0, 189]",189,a,0.08063968550413847,colour,0.06
176,20,1,1,11,41,541,731.8582463590428,732.4167227242142,"[61, 0, 193]",193,a,0.03524611471220851,colour,0.06
176,20,1,1,11,42,542,732.9363417956047,733.5607362566516,"[68, 0, 186]",186,a,0.10098540410399437,colour,0.06
176,20,1,1,11,43,543,734.0646317927167,734.5927339252084,"[50, 0, 204]",204,a,0.004737974144518375,colour,0.06
176,20,1,1,11,44,544,735.1114491187036,735.7606988414191,"[51, 0, 203]",203,a,0.1261171456426382,colour,0.06
176,20,1,1,11,45,545,736.2677597221918,736.8727607852779,"[97, 0, 157]",157,l,0.08159870188683271,colour,0.06
176,20,1,1,11,46,546,737.3931045345962,737.9367317040451,"[84, 0, 170]",170,l,0.0209695715457201,colour,0.06
176,20,1,1,11,47,547,738.4551983806305,739.1208407836966,"[59, 0, 195]",195,a,0.14034918462857604,colour,0.06
176,20,1,1,11,48,548,739.6289926194586,740.3767701433972,"[69, 0, 185]",185,a,0.2249096124432981,colour,0.06
176,20,1,1,11,49,549,740.891556717921,741.592726835981,"[71, 0, 183]",183,a,0.18578883539885283,colour,0.06
176,20,1,1,11,50,550,742.1022847038694,742.8167861332186,"[54, 0, 200]",200,a,0.1911384528502822,colour,0.06
176,20,1,1,12,1,551,747.2434361535124,747.9127153353766,"[91, 0, 163]",163,l,0.14512654254212976,colour,0.06
176,20,1,1,12,2,552,748.4318495821208,749.0007715453394,"[97, 0, 157]",157,l,0.04576063575223088,colour,0.06
176,20,1,1,12,3,553,749.5099410805851,750.1287689143792,"[66, 0, 188]",188,a,0.09555386612191796,colour,0.06
176,20,1,1,12,4,554,750.6357821398415,751.2807499626651,"[55, 0, 199]",199,a,0.1224496467038989,colour,0.06
176,20,1,1,12,5,555,751.792040755041,752.4007936008275,"[67, 0, 187]",187,a,0.0853906562551856,colour,0.06
176,20,1,1,12,6,556,752.9170917584561,753.5287480405532,"[96, 0, 158]",158,l,0.08838428370654583,colour,0.06
176,20,1,1,12,7,557,754.0420561153442,754.7287251972593,"[75, 0, 179]",179,l,0.16336084995418787,colour,0.06
176,20,1,1,12,8,558,755.2451615952887,755.9607398011722,"[98, 0, 156]",156,l,0.19233259558677673,colour,0.06
176,20,1,1,12,9,559,756.4794364841655,757.0967964520678,"[80, 0, 174]",174,l,0.09408560628071427,colour,0.06
176,20,1,1,12,10,560,757.6045032413676,758.280770836398,"[57, 0, 197]",197,a,0.15293021826073527,colour,0.06
176,20,1,1,12,11,561,758.7920076721348,759.416712090373,"[85, 0, 169]",169,l,0.10133671527728438,colour,0.06
176,20,1,1,12,12,562,759.93276527524,760.5127791385166,"[84, 0, 170]",170,l,0.05678597558289766,colour,0.06
176,20,1,1,12,13,563,761.0263530598022,761.6327668507583,"[59, 0, 195]",195,a,0.08300788467749953,colour,0.06
176,20,1,1,12,14,564,762.1514714104123,762.6967330430634,"[51, 0, 203]",203,a,0.022007357329130173,colour,0.06
176,20,1,1,12,15,565,763.2161225019954,763.7927748849615,"[68, 0, 186]",186,a,0.053374477196484804,colour,0.06
176,20,1,1,12,16,566,764.3098603421822,764.9208151833154,"[71, 0, 183]",183,a,0.08772104606032372,colour,0.06
176,20,1,1,12,17,567,765.4349050433375,766.1367789655924,"[50, 0, 204]",204,a,0.17865154845640063,colour,0.06
176,20,1,1,12,18,568,766.6536466251127,767.2807881655172,"[88, 0, 166]",166,l,0.10398218221962452,colour,0.06
176,20,1,1,12,19,569,767.7941691018641,768.4327684259042,"[79, 0, 175]",175,l,0.11525131342932582,colour,0.06
176,20,1,1,12,20,570,768.9504135386087,769.5848254864104,"[99, 0, 155]",155,l,0.11103361053392291,colour,0.06
176,20,1,1,12,21,571,770.0910065141506,770.6967586427927,"[77, 0, 177]",177,l,0.08238757634535432,colour,0.06
176,20,1,1,12,22,572,771.2160992650315,771.7767732939683,"[65, 0, 189]",189,a,0.037448504474014044,colour,0.06
176,20,1,1,12,23,573,772.2942533851601,772.9447764134966,"[73, 0, 181]",181,a,0.12726048240438104,colour,0.06
176,20,1,1,12,24,574,773.4661291972734,774.1367836915888,"[76, 0, 178]",178,l,0.14740455150604248,colour,0.06
176,20,1,1,12,25,575,774.6535966065712,775.2809055317193,"[60, 0, 194]",194,a,0.10476948134601116,colour,0.06
176,20,1,1,12,26,576,775.7941994280554,776.4647456146777,"[28, 0, 226]",226,a,0.1472202311269939,colour,0.06
176,20,1,1,12,27,577,776.9816786525771,777.6407686308958,"[82, 0, 172]",172,a,0.13587390631437302,colour,0.06
176,20,1,1,12,28,578,778.1442195144482,779.0648346235976,"[95, 0, 159]",159,l,0.3973793447948992,colour,0.06
176,20,1,1,12,29,579,779.5817747511901,780.3527809502557,"[48, 0, 206]",206,a,0.2478243913501501,colour,0.06
176,20,1,1,12,30,580,780.8630059943534,781.5367647870444,"[72, 0, 182]",182,a,0.15055808052420616,colour,0.06
176,20,1,1,12,31,581,782.0504891574383,782.6887363828719,"[58, 0, 196]",196,a,0.11494214413687587,colour,0.06
176,20,1,1,12,32,582,783.2067528925836,783.8327577924356,"[90, 0, 164]",164,l,0.10270336270332336,colour,0.06
176,20,1,1,12,33,583,784.347450631205,784.9208455095068,"[64, 0, 190]",190,a,0.050176837015897036,colour,0.06
176,20,1,1,12,34,584,785.4410663787276,786.1207529557869,"[56, 0, 198]",198,a,0.15635865228250623,colour,0.06
176,20,1,1,12,35,585,786.6286283112131,787.2727572410367,"[78, 0, 176]",176,l,0.12107630399987102,colour,0.06
176,20,1,1,12,36,586,787.7849003174342,788.7608358999714,"[52, 0, 202]",202,a,0.4525962364859879,colour,0.06
176,20,1,1,12,37,587,789.2691429113038,790.000789268408,"[83, 0, 171]",171,l,0.20816089399158955,colour,0.06
176,20,1,1,12,38,588,790.5191756002605,791.1047702692449,"[93, 0, 161]",161,l,0.06219585193321109,colour,0.06
176,20,1,1,12,39,589,791.6130382898264,792.2007660316303,"[62, 0, 192]",192,a,0.06457665469497442,colour,0.06
176,20,1,1,12,40,590,792.7223724527285,793.312849637121,"[70, 0, 184]",184,a,0.06714768428355455,colour,0.06
176,20,1,1,12,41,591,793.831700314302,794.4248115443625,"[17, 0, 237]",237,a,0.06972501613199711,colour,0.06
176,20,1,1,12,42,592,794.9411632651463,795.7527805566788,"[89, 0, 165]",165,l,0.2884252439253032,colour,0.06
176,20,1,1,12,43,593,796.2721432340331,796.8408466125838,"[94, 0, 160]",160,l,0.045443983282893896,colour,0.06
176,20,1,1,12,44,594,797.3502485170029,797.9209502730519,"[87, 0, 167]",167,l,0.04701306810602546,colour,0.06
176,20,1,1,12,45,595,798.4283006307669,799.0488133402541,"[92, 0, 162]",162,l,0.09710522787645459,colour,0.06
176,20,1,1,12,46,596,799.5689924615435,800.1128401849419,"[53, 0, 201]",201,a,0.02085693133994937,colour,0.06
176,20,1,1,12,47,597,800.6314872433431,801.2327684261836,"[86, 0, 168]",168,l,0.07795089529827237,colour,0.06
176,20,1,1,12,48,598,801.7408135295846,802.7207990358584,"[69, 0, 185]",185,a,0.45662725577130914,colour,0.06
176,20,1,1,12,49,599,803.2408710308373,803.8968043290079,"[63, 0, 191]",191,a,0.1326112812384963,colour,0.06
176,20,1,1,12,50,600,804.4126964309253,804.9448157977313,"[54, 0, 200]",200,a,0.009279812220484018,colour,0.06
176,20,1,1,13,1,601,811.916084298864,812.8729348657653,"[89, 0, 165]",165,a,0.4326924136839807,colour,0.06
176,20,1,1,13,2,602,813.3857785952277,815.232816869393,"[96, 0, 158]",158,l,1.3239060915075243,colour,0.06
176,20,1,1,13,3,603,815.7357002198696,816.4968311106786,"[79, 0, 175]",175,l,0.23784944042563438,colour,0.06
176,20,1,1,13,4,604,817.0169428843074,818.0488164909184,"[55, 0, 199]",199,a,0.5085980636067688,colour,0.06
176,20,1,1,13,5,605,818.5638401610777,819.1768827834167,"[59, 0, 195]",195,a,0.09036611998453736,colour,0.06
176,20,1,1,13,6,606,819.688817515038,820.3128334893845,"[84, 0, 170]",170,l,0.10092987166717649,colour,0.06
176,20,1,1,13,7,607,820.8294022195041,821.8648042976856,"[64, 0, 190]",190,a,0.5124947815202177,colour,0.06
176,20,1,1,13,8,608,822.3764558536932,823.232807810884,"[70, 0, 184]",184,a,0.3331776326522231,colour,0.06
176,20,1,1,13,9,609,823.7513670413755,824.712846880313,"[52, 0, 202]",202,a,0.43820035783573985,colour,0.06
176,20,1,1,13,10,610,825.2201137426309,826.1768800262362,"[45, 0, 209]",209,a,0.4334596265107393,colour,0.06
176,20,1,1,13,11,611,826.6888462658972,827.2488743867725,"[93, 0, 161]",161,l,0.03673997474834323,colour,0.06
176,20,1,1,13,12,612,827.7687561539933,828.464838956017,"[76, 0, 178]",178,l,0.1727997763082385,colour,0.06
176,20,1,1,13,13,613,828.971833277028,829.6808629967272,"[80, 0, 174]",174,l,0.18575102603062987,colour,0.06
176,20,1,1,13,14,614,830.1905614677817,830.8009976134636,"[95, 0, 159]",159,l,0.08707474451512098,colour,0.06
176,20,1,1,13,15,615,831.315668003168,832.0488637527451,"[81, 0, 173]",173,l,0.21025064401328564,colour,0.06
176,20,1,1,13,16,616,832.5656112893485,833.5208159713075,"[94, 0, 160]",160,l,0.4321871087886393,colour,0.06
176,20,1,1,13,17,617,834.0343150612898,834.8248816491105,"[57, 0, 197]",197,a,0.26724417693912983,colour,0.06
176,20,1,1,13,18,618,835.3311780737713,835.9848491172306,"[86, 0, 168]",168,l,0.130345088429749,colour,0.06
176,20,1,1,13,19,619,836.5003918772563,837.8088320088573,"[88, 0, 166]",166,l,0.7853481210768223,colour,0.06
176,20,1,1,13,20,620,838.3284920402803,839.1368604917079,"[63, 0, 191]",191,a,0.28506258223205805,colour,0.06
176,20,1,1,13,21,621,839.6566016557626,840.6168968044221,"[65, 0, 189]",189,a,0.4369873101823032,colour,0.06
176,20,1,1,13,22,622,841.125355840195,841.8808326702565,"[62, 0, 192]",192,a,0.23216190235689282,colour,0.06
176,20,1,1,13,23,623,842.3910187236033,843.1368648237549,"[83, 0, 171]",171,l,0.2226469637826085,colour,0.06
176,20,1,1,13,24,624,843.6565571511164,844.4008770962246,"[75, 0, 179]",179,a,0.22100777458399534,colour,0.06
176,20,1,1,13,25,625,844.9222243665718,845.5928375069052,"[97, 0, 157]",157,l,0.14723204681649804,colour,0.06
176,20,1,1,13,26,626,846.1098233205266,846.7048265892081,"[14, 0, 240]",240,a,0.07174544921144843,colour,0.06
176,20,1,1,13,27,627,847.219113372732,847.8248592000455,"[85, 0, 169]",169,l,0.0824407460168004,colour,0.06
176,20,1,1,13,28,628,848.3442332986742,848.9849534868263,"[72, 0, 182]",182,a,0.11740171583369374,colour,0.06
176,20,1,1,13,29,629,849.5015946845524,850.368866824545,"[68, 0, 186]",186,a,0.3443916249088943,colour,0.06
176,20,1,1,13,30,630,850.8792986380868,851.6328940629028,"[73, 0, 181]",181,a,0.2304183435626328,colour,0.06
176,20,1,1,13,31,631,852.1449469486251,853.3288799789734,"[67, 0, 187]",187,a,0.6597847230732441,colour,0.06
176,20,1,1,13,32,632,853.8489972664975,854.6168550564907,"[53, 0, 201]",201,a,0.24447630206122994,colour,0.06
176,20,1,1,13,33,633,855.1303179129027,855.8648200514726,"[54, 0, 200]",200,a,0.21152670681476593,colour,0.06
176,20,1,1,13,34,634,856.3803242142312,857.3208644143306,"[90, 0, 164]",164,l,0.41753719886764884,colour,0.06
176,20,1,1,13,35,635,857.8334273314103,858.5528605072759,"[58, 0, 196]",196,a,0.19632304878905416,colour,0.06
176,20,1,1,13,36,636,859.0677616912872,859.744818948675,"[51, 0, 203]",203,a,0.1536950683221221,colour,0.06
176,20,1,1,13,37,637,860.2568316622637,860.8728596409783,"[98, 0, 156]",156,l,0.09272644203156233,colour,0.06
176,20,1,1,13,38,638,861.3818117729388,862.0888698967174,"[74, 0, 180]",180,a,0.18384047644212842,colour,0.06
176,20,1,1,13,39,639,862.6005179081112,863.240854489617,"[77, 0, 177]",177,a,0.11701101996004581,colour,0.06
176,20,1,1,13,40,640,863.7573574474081,864.3768418231048,"[56, 0, 198]",198,a,0.09612100524827838,colour,0.06
176,20,1,1,13,41,641,864.8980303732678,865.5048663676716,"[50, 0, 204]",204,a,0.08353997115045786,colour,0.06
176,20,1,1,13,42,642,866.0171303553507,866.553389837034,"[69, 0, 185]",185,a,0.012909895740449429,colour,0.06
176,20,1,1,13,43,643,867.0640055770054,867.680856694933,"[87, 0, 167]",167,l,0.09201161051169038,colour,0.06
176,20,1,1,13,44,644,868.1889510289766,868.8328590109013,"[22, 0, 232]",232,a,0.12062692502513528,colour,0.06
176,20,1,1,13,45,645,869.3452167338692,869.9448606963269,"[92, 0, 162]",162,l,0.07635936141014099,colour,0.06
176,20,1,1,13,46,646,870.4546462073922,871.0808795378543,"[66, 0, 188]",188,a,0.10307475971058011,colour,0.06
176,20,1,1,13,47,647,871.5952096446417,872.2168672657572,"[60, 0, 194]",194,a,0.098316699732095,colour,0.06
176,20,1,1,13,48,648,872.7358703613281,873.2649244209751,"[91, 0, 163]",163,l,0.005721014924347401,colour,0.06
176,20,1,1,13,49,649,873.7827577921562,874.3528652335517,"[61, 0, 193]",193,a,0.046897276770323515,colour,0.06
176,20,1,1,13,50,650,874.8607819429599,875.5689038462006,"[78, 0, 176]",176,a,0.18468409543856978,colour,0.06
176,20,1,1,14,1,651,880.4381377361715,881.8329720445909,"[82, 0, 172]",172,l,0.868919599801302,colour,0.06
176,20,1,1,14,2,652,882.3469142122194,882.9609359367751,"[89, 0, 165]",165,l,0.09104117238894105,colour,0.06
176,20,1,1,14,3,653,883.4718600586057,884.1048632171005,"[53, 0, 201]",201,a,0.10995644051581621,colour,0.06
176,20,1,1,14,4,654,884.6125369230285,885.3608941892162,"[74, 0, 180]",180,l,0.22525816643610597,colour,0.06
176,20,1,1,14,5,655,885.8781363968737,886.5128902033903,"[85, 0, 169]",169,l,0.11144872521981597,colour,0.06
176,20,1,1,14,6,656,887.0344225815497,887.600932628382,"[66, 0, 188]",188,a,0.043177396059036255,colour,0.06
176,20,1,1,14,7,657,888.1125676431693,888.7128701172769,"[16, 0, 238]",238,a,0.07717029144987464,colour,0.06
176,20,1,1,14,8,658,889.221912833862,889.7768504880369,"[31, 0, 223]",223,a,0.031662505120038986,colour,0.06
176,20,1,1,14,9,659,890.2844962310046,890.920890014153,"[79, 0, 175]",175,l,0.11315132351592183,colour,0.06
176,20,1,1,14,10,660,891.4420777768828,892.1609229398891,"[93, 0, 161]",161,l,0.19560467265546322,colour,0.06
176,20,1,1,14,11,661,892.6764373430051,893.3449178040028,"[86, 0, 168]",168,l,0.1455148751847446,colour,0.06
176,20,1,1,14,12,662,893.8639539829455,894.496911061462,"[55, 0, 199]",199,a,0.10984340636059642,colour,0.06
176,20,1,1,14,13,663,895.0004982156679,895.6408879663795,"[50, 0, 204]",204,a,0.11483068531379104,colour,0.06
176,20,1,1,14,14,664,896.1589761562645,896.9769639158621,"[99, 0, 155]",155,l,0.29419194534420967,colour,0.06
176,20,1,1,14,15,665,897.4876028923318,898.1048927553929,"[58, 0, 196]",196,a,0.09403046779334545,colour,0.06
176,20,1,1,14,16,666,898.6026462549344,899.2808807194233,"[75, 0, 179]",179,l,0.1548785767517984,colour,0.06
176,20,1,1,14,17,667,899.79008924542,900.440911991056,"[83, 0, 171]",171,l,0.1273853317834437,colour,0.06
176,20,1,1,14,18,668,900.9625822152011,901.6008991515264,"[95, 0, 159]",159,l,0.11511307302862406,colour,0.06
176,20,1,1,14,19,669,902.1187734832056,902.752931793686,"[81, 0, 173]",173,l,0.11099816486239433,colour,0.06
176,20,1,1,14,20,670,903.2594830370508,903.9208860760555,"[87, 0, 167]",167,l,0.13816451793536544,colour,0.06
176,20,1,1,14,21,671,904.4312584185973,904.9929273035377,"[64, 0, 190]",190,a,0.03827912686392665,colour,0.06
176,20,1,1,14,22,672,905.5094806738198,906.1769115342759,"[92, 0, 162]",162,l,0.14415256073698401,colour,0.06
176,20,1,1,14,23,673,906.6969248461537,907.2249076431617,"[59, 0, 195]",195,a,0.004933321848511696,colour,0.06
176,20,1,1,14,24,674,907.7437583198771,908.3449709736742,"[96, 0, 158]",158,l,0.07789890747517347,colour,0.06
176,20,1,1,14,25,675,908.8530263169669,909.4009160869755,"[51, 0, 203]",203,a,0.02442715037614107,colour,0.06
176,20,1,1,14,26,676,909.915616015438,910.5289355115965,"[94, 0, 160]",160,l,0.09038659976795316,colour,0.06
176,20,1,1,14,27,677,911.0405701324344,911.6089505562559,"[57, 0, 197]",197,a,0.04496506555005908,colour,0.06
176,20,1,1,14,28,678,912.1187789971009,912.912929194048,"[72, 0, 182]",182,a,0.2708147894591093,colour,0.06
176,20,1,1,14,29,679,913.4318267391063,914.3449371028692,"[67, 0, 187]",187,a,0.3897655038163066,colour,0.06
176,20,1,1,14,30,680,914.8412644835189,915.4969244524837,"[76, 0, 178]",178,a,0.13232928747311234,colour,0.06
176,20,1,1,14,31,681,916.0151079534553,916.7368793962523,"[65, 0, 189]",189,a,0.19841161696240306,colour,0.06
176,20,1,1,14,32,682,917.2494482211769,917.9449623087421,"[91, 0, 163]",163,l,0.17212432948872447,colour,0.06
176,20,1,1,14,33,683,918.4527596826665,919.1129276189022,"[63, 0, 191]",191,a,0.1370641104876995,colour,0.06
176,20,1,1,14,34,684,919.6244432977401,920.352893196512,"[73, 0, 181]",181,a,0.20510897738859057,colour,0.06
176,20,1,1,14,35,685,920.8745035561733,921.4488972295076,"[90, 0, 164]",164,l,0.05108071491122246,colour,0.06
176,20,1,1,14,36,686,921.9682374577969,922.5529077691026,"[70, 0, 184]",184,a,0.061266768258064985,colour,0.06
176,20,1,1,14,37,687,923.0496333288029,923.7129303757101,"[69, 0, 185]",185,a,0.13993918988853693,colour,0.06
176,20,1,1,14,38,688,924.2214725133963,925.0089702489786,"[54, 0, 200]",200,a,0.26409891853109,colour,0.06
176,20,1,1,14,39,689,925.5183583688922,926.2489622142166,"[98, 0, 156]",156,l,0.20732475770637393,colour,0.06
176,20,1,1,14,40,690,926.7684359564446,927.4169633644633,"[60, 0, 194]",194,a,0.12585799489170313,colour,0.06
176,20,1,1,14,41,691,927.9264641245827,928.6409052954987,"[61, 0, 193]",193,l,0.19108843430876732,colour,0.06
176,20,1,1,14,42,692,929.1608488969505,929.8569175205193,"[15, 0, 239]",239,a,0.17278835456818342,colour,0.06
176,20,1,1,14,43,693,930.3640008508228,931.0089320456609,"[56, 0, 198]",198,a,0.12179428618401289,colour,0.06
176,20,1,1,14,44,694,931.5200786907226,932.1209014360793,"[84, 0, 170]",170,l,0.07732664840295911,colour,0.06
176,20,1,1,14,45,695,932.6295636966825,933.3130036313087,"[77, 0, 177]",177,l,0.16059092758223414,colour,0.06
176,20,1,1,14,46,696,933.8327128938399,934.4809445226565,"[68, 0, 186]",186,a,0.12493245536461473,colour,0.06
176,20,1,1,14,47,697,934.9889077059925,935.6009641364217,"[80, 0, 174]",174,l,0.08858593367040157,colour,0.06
176,20,1,1,14,48,698,936.1139098722488,936.7049230816774,"[52, 0, 202]",202,a,0.06782667618244886,colour,0.06
176,20,1,1,14,49,699,937.2233042935841,938.0249316673726,"[78, 0, 176]",176,l,0.27826124615967274,colour,0.06
176,20,1,1,14,50,700,938.5359644908458,939.0969244521111,"[71, 0, 183]",183,a,0.037838018499314785,colour,0.06
176,20,1,1,15,1,701,943.3943384559825,944.3049912173301,"[64, 0, 190]",190,a,0.38452852657064795,colour,0.06
176,20,1,1,15,2,702,944.8193020252511,945.4009235701524,"[20, 0, 234]",234,a,0.05836411891505122,colour,0.06
176,20,1,1,15,3,703,945.9028049749322,946.4889553613029,"[52, 0, 202]",202,a,0.06291265273466706,colour,0.06
176,20,1,1,15,4,704,946.9965262734331,948.0409458619542,"[53, 0, 201]",201,a,0.5213173381052911,colour,0.06
176,20,1,1,15,5,705,948.5590312951244,949.1609351490624,"[0, 0, 254]",254,a,0.0786365820094943,colour,0.06
176,20,1,1,15,6,706,949.6684158705175,950.3449493120424,"[71, 0, 183]",183,a,0.15325396042317152,colour,0.06
176,20,1,1,15,7,707,950.8558293227106,951.4969512340613,"[83, 0, 171]",171,l,0.11773924203589559,colour,0.06
176,20,1,1,15,8,708,952.0006352742203,952.6570218899287,"[69, 0, 185]",185,a,0.13304490642622113,colour,0.06
176,20,1,1,15,9,709,953.1724787913263,953.8089336212724,"[89, 0, 165]",165,l,0.11318283155560493,colour,0.06
176,20,1,1,15,10,710,954.3287263792008,955.272942348849,"[76, 0, 178]",178,a,0.42085535591468215,colour,0.06
176,20,1,1,15,11,711,955.7726296344772,956.401016518008,"[97, 0, 157]",157,l,0.10334415128454566,colour,0.06
176,20,1,1,15,12,712,956.9150362731889,957.5769438296556,"[96, 0, 158]",158,l,0.1386859705671668,colour,0.06
176,20,1,1,15,13,713,958.0867202822119,958.6729289577343,"[72, 0, 182]",182,a,0.06270312611013651,colour,0.06
176,20,1,1,15,14,714,959.1715304087847,960.0809646090493,"[82, 0, 172]",172,l,0.3828747649677098,colour,0.06
176,20,1,1,15,15,715,960.5967113813385,961.3129603080451,"[73, 0, 181]",181,a,0.1930946884676814,colour,0.06
176,20,1,1,15,16,716,961.8310362887569,962.5529664522037,"[74, 0, 180]",180,a,0.19862074963748455,colour,0.06
176,20,1,1,15,17,717,963.065435633529,963.6889750538394,"[57, 0, 197]",197,a,0.10036745900288224,colour,0.06
176,20,1,1,15,18,718,964.2059470829554,965.4329566848464,"[66, 0, 188]",188,a,0.7036682870239019,colour,0.06
176,20,1,1,15,19,719,965.9404976642691,966.6809602766298,"[94, 0, 160]",160,l,0.2169948723167181,colour,0.06
176,20,1,1,15,20,720,967.1905898246914,968.1529499106109,"[87, 0, 167]",167,l,0.4390857247635722,colour,0.06
176,20,1,1,15,21,721,968.6592077384703,969.4489834820852,"[68, 0, 186]",186,a,0.2663729884661734,colour,0.06
176,20,1,1,15,22,722,969.9576677982695,970.664972470142,"[85, 0, 169]",169,l,0.18397792894393206,colour,0.06
176,20,1,1,15,23,723,971.1764385243878,971.9050034265965,"[84, 0, 170]",170,l,0.20534055912867188,colour,0.06
176,20,1,1,15,24,724,972.4264495521784,973.1529447906651,"[95, 0, 159]",159,l,0.2032291479408741,colour,0.06
176,20,1,1,15,25,725,973.6607464966364,974.2729616472498,"[54, 0, 200]",200,a,0.08883405663073063,colour,0.06
176,20,1,1,15,26,726,974.7857860783115,975.5690330280922,"[55, 0, 199]",199,a,0.25994383776560426,colour,0.06
176,20,1,1,15,27,727,976.082645939663,976.7049746755511,"[91, 0, 163]",163,l,0.09897954342886806,colour,0.06
176,20,1,1,15,28,728,977.2107945461757,977.8729734625667,"[58, 0, 196]",196,a,0.13876040745526552,colour,0.06
176,20,1,1,15,29,729,978.3827361306176,979.000945625361,"[50, 0, 204]",204,a,0.09468464693054557,colour,0.06
176,20,1,1,15,30,730,979.5077512939461,980.5050026387908,"[65, 0, 189]",189,a,0.47395729133859277,colour,0.06
176,20,1,1,15,31,731,981.0108532290906,981.8170456783846,"[80, 0, 174]",174,l,0.28291611885651946,colour,0.06
176,20,1,1,15,32,732,982.3116684914567,982.8890148322098,"[67, 0, 187]",187,a,0.05463518016040325,colour,0.06
176,20,1,1,15,33,733,983.4052570634522,984.0490149897523,"[79, 0, 175]",175,a,0.12042606296017766,colour,0.06
176,20,1,1,15,34,734,984.5614723558538,985.8890341306105,"[59, 0, 195]",195,a,0.8041909211315215,colour,0.06
176,20,1,1,15,35,735,986.4052736051381,987.0809535812587,"[98, 0, 156]",156,l,0.1492091561667621,colour,0.06
176,20,1,1,15,36,736,987.5959689808078,988.6809909967706,"[56, 0, 198]",198,a,0.5617366270162165,colour,0.06
176,20,1,1,15,37,737,989.1896993373521,990.1289398437366,"[75, 0, 179]",179,a,0.4161851233802736,colour,0.06
176,20,1,1,15,38,738,990.6455869493075,991.305052657146,"[86, 0, 168]",168,l,0.13597985077649355,colour,0.06
176,20,1,1,15,39,739,991.8175726449117,992.3691641786136,"[61, 0, 193]",193,a,0.028226981405168772,colour,0.06
176,20,1,1,15,40,740,992.8801335925236,993.5129768494517,"[77, 0, 177]",177,a,0.10963191092014313,colour,0.06
176,20,1,1,15,41,741,994.0207293247804,994.7209971407428,"[39, 0, 215]",215,a,0.1750502153299749,colour,0.06
176,20,1,1,15,42,742,995.2414381699637,995.8009881610051,"[63, 0, 191]",191,a,0.036146447993814945,colour,0.06
176,20,1,1,15,43,743,996.3195221852511,996.8729730686173,"[51, 0, 203]",203,a,0.03010641736909747,colour,0.06
176,20,1,1,15,44,744,997.3821575702168,997.9849786930718,"[92, 0, 162]",162,l,0.07965506939217448,colour,0.06
176,20,1,1,15,45,745,998.491466132924,999.0650374549441,"[88, 0, 166]",166,l,0.0502969603985548,colour,0.06
176,20,1,1,15,46,746,999.5851976713166,1000.9450009060092,"[62, 0, 192]",192,a,0.8364827930927277,colour,0.06
176,20,1,1,15,47,747,1001.4602392222732,1002.024966720026,"[60, 0, 194]",194,a,0.04140902543440461,colour,0.06
176,20,1,1,15,48,748,1002.5383374160156,1003.4409998189658,"[81, 0, 173]",173,l,0.37936362298205495,colour,0.06
176,20,1,1,15,49,749,1003.9510275456123,1004.5849668774754,"[90, 0, 164]",164,l,0.110764613840729,colour,0.06
176,20,1,1,15,50,750,1005.0915614441037,1005.841021086555,"[78, 0, 176]",176,a,0.22614983515813947,colour,0.06
176,20,1,1,16,1,751,1010.2175490143709,1010.7930017407052,"[90, 0, 164]",164,l,0.05125006893649697,colour,0.06
176,20,1,1,16,2,752,1011.3108386569656,1011.8730230871588,"[97, 0, 157]",157,l,0.038879348896443844,colour,0.06
176,20,1,1,16,3,753,1012.3911250620149,1013.0730246626772,"[81, 0, 173]",173,a,0.1586350854486227,colour,0.06
176,20,1,1,16,4,754,1013.6340846610256,1014.2731274566613,"[98, 0, 156]",156,l,0.12435704562813044,colour,0.06
176,20,1,1,16,5,755,1014.7817456065677,1015.4730305704288,"[82, 0, 172]",172,l,0.16795664560049772,colour,0.06
176,20,1,1,16,6,756,1015.9848491172306,1016.6889687520452,"[84, 0, 170]",170,l,0.1808287319727242,colour,0.06
176,20,1,1,16,7,757,1017.2054914021865,1017.8410423542373,"[74, 0, 180]",180,a,0.11213126126676798,colour,0.06
176,20,1,1,16,8,758,1018.3618138208985,1019.2090667411685,"[18, 0, 236]",236,a,0.3238513465039432,colour,0.06
176,20,1,1,16,9,759,1019.7212173007429,1020.4170929398388,"[69, 0, 185]",185,a,0.17265090206637979,colour,0.06
176,20,1,1,16,10,760,1020.9243751624599,1021.601007853169,"[72, 0, 182]",182,a,0.15335793560370803,colour,0.06
176,20,1,1,16,11,761,1022.1118370578624,1022.7210101373494,"[91, 0, 163]",163,l,0.0858845398761332,colour,0.06
176,20,1,1,16,12,762,1023.2368218945339,1023.9210101375356,"[78, 0, 176]",176,a,0.16089261369779706,colour,0.06
176,20,1,1,16,13,763,1024.4400033871643,1025.0729762194678,"[58, 0, 196]",196,a,0.10971343703567982,colour,0.06
176,20,1,1,16,14,764,1025.5808121901937,1026.1370156672783,"[55, 0, 199]",199,a,0.03342614974826574,colour,0.06
176,20,1,1,16,15,765,1026.6586287836544,1027.321018802002,"[53, 0, 201]",201,a,0.1390455518849194,colour,0.06
176,20,1,1,16,16,766,1027.8305262578651,1028.5850661266595,"[76, 0, 178]",178,l,0.2310555875301361,colour,0.06
176,20,1,1,16,17,767,1029.0962474299595,1029.665029577911,"[56, 0, 198]",198,a,0.045579072553664446,colour,0.06
176,20,1,1,16,18,768,1030.1742904852144,1031.2811898891814,"[73, 0, 181]",181,a,0.5835785684175789,colour,0.06
176,20,1,1,16,19,769,1031.7993064359762,1032.8570679700933,"[54, 0, 200]",200,a,0.5344820525497198,colour,0.06
176,20,1,1,16,20,770,1033.377471189946,1034.089010105934,"[80, 0, 174]",174,l,0.18831260362640023,colour,0.06
176,20,1,1,16,21,771,1034.5962123777717,1035.361046607606,"[96, 0, 158]",158,l,0.24160988675430417,colour,0.06
176,20,1,1,16,22,772,1035.8793785888702,1036.5450765243731,"[92, 0, 162]",162,l,0.1423739492893219,colour,0.06
176,20,1,1,16,23,773,1037.0513327764347,1037.6570203145966,"[94, 0, 160]",160,l,0.08229187177494168,colour,0.06
176,20,1,1,16,24,774,1038.176296739839,1038.7690334217623,"[99, 0, 155]",155,l,0.06944735441356897,colour,0.06
176,20,1,1,16,25,775,1039.2858809954487,1039.8810536181554,"[95, 0, 159]",159,l,0.07209085253998637,colour,0.06
176,20,1,1,16,26,776,1040.3951036995277,1041.0090045132674,"[33, 0, 221]",221,a,0.09075996605679393,colour,0.06
176,20,1,1,16,27,777,1041.5199920441955,1042.1290485453792,"[61, 0, 193]",193,a,0.08561317948624492,colour,0.06
176,20,1,1,16,28,778,1042.64502059808,1043.2330283648334,"[16, 0, 238]",238,a,0.0647397069260478,colour,0.06
176,20,1,1,16,29,779,1043.7544949706644,1044.369048781693,"[60, 0, 194]",194,a,0.09172685956582427,colour,0.06
176,20,1,1,16,30,780,1044.879449875094,1045.5450548627414,"[64, 0, 190]",190,a,0.14238812774419785,colour,0.06
176,20,1,1,16,31,781,1046.0513122966513,1046.729057210032,"[65, 0, 189]",189,a,0.15440202271565795,colour,0.06
176,20,1,1,16,32,782,1047.2387355952524,1047.9211141131818,"[68, 0, 186]",186,a,0.15893952874466777,colour,0.06
176,20,1,1,16,33,783,1048.4419092102908,1049.193091143854,"[87, 0, 167]",167,l,0.22789378743618727,colour,0.06
176,20,1,1,16,34,784,1049.7075547641143,1050.4330484508537,"[86, 0, 168]",168,l,0.20219766348600388,colour,0.06
176,20,1,1,16,35,785,1050.9419836476445,1051.6491083311848,"[93, 0, 161]",161,l,0.18430285202339292,colour,0.06
176,20,1,1,16,36,786,1052.1606114073656,1052.7930935071781,"[52, 0, 202]",202,a,0.10909037198871374,colour,0.06
176,20,1,1,16,37,787,1053.3012217120267,1053.9450115398504,"[85, 0, 169]",169,l,0.12042763875797391,colour,0.06
176,20,1,1,16,38,788,1054.4575484627858,1055.2250624247827,"[71, 0, 183]",183,a,0.24423566227778792,colour,0.06
176,20,1,1,16,39,789,1055.7387588317506,1056.6411396344192,"[63, 0, 191]",191,a,0.37907887203618884,colour,0.06
176,20,1,1,16,40,790,1057.1605956535786,1057.9290489391424,"[67, 0, 187]",187,a,0.24509030859917402,colour,0.06
176,20,1,1,16,41,791,1058.4419226013124,1059.1690850155428,"[77, 0, 177]",177,l,0.20385457575321198,colour,0.06
176,20,1,1,16,42,792,1059.6763113122433,1060.65705221612,"[70, 0, 184]",184,a,0.45746260415762663,colour,0.06
176,20,1,1,16,43,793,1061.176319188904,1061.7530373446643,"[66, 0, 188]",188,a,0.053476483561098576,colour,0.06
176,20,1,1,16,44,794,1062.270005828701,1062.9050818020478,"[88, 0, 166]",166,l,0.11174489790573716,colour,0.06
176,20,1,1,16,45,795,1063.4262872873805,1064.1050739251077,"[79, 0, 175]",175,l,0.15544886700809002,colour,0.06
176,20,1,1,16,46,796,1064.6137330350466,1065.3530271044,"[50, 0, 204]",204,a,0.2160965078510344,colour,0.06
176,20,1,1,16,47,797,1065.8638161364943,1066.4090935229324,"[59, 0, 195]",195,a,0.02230156073346734,colour,0.06
176,20,1,1,16,48,798,1066.9261844935827,1067.5290623302571,"[57, 0, 197]",197,a,0.07945814589038491,colour,0.06
176,20,1,1,16,49,799,1068.0357226687483,1068.6810689782724,"[62, 0, 192]",192,a,0.12213850812986493,colour,0.06
176,20,1,1,16,50,800,1069.191905665677,1069.9130426221527,"[51, 0, 203]",203,a,0.1978980409912765,colour,0.06
