id,age,condition,counterbalance,block,trialinblock,trial,tstart,tend,trialstim,trialintensity,response,RT,trialtype,colourfreq
017,73,1,1,Practice,1,NA,5.513778887689114e-06,27.66817155305762,"[49, 0, 205]",205,a,27.004144050064497,colour,0.5
017,73,1,1,Practice,2,NA,28.17734068725258,30.26816084049642,"[91, 0, 163]",163,l,1.5746661563171074,colour,0.5
017,73,1,1,Practice,3,NA,30.778161383932456,31.844222393934615,"[36, 0, 218]",218,a,0.5460311721544713,colour,0.5
017,73,1,1,Practice,4,NA,32.35339152801316,33.2761425281642,"[15, 0, 239]",239,a,0.40457499655894935,colour,0.5
017,73,1,1,Practice,5,NA,33.785245102248155,35.5321382463444,"[26, 0, 228]",228,a,1.2294563899049535,colour,0.5
017,73,1,1,Practice,6,NA,36.04146964510437,36.90815190807916,"[56, 0, 198]",198,a,0.34799741010647267,colour,0.5
017,73,1,1,Practice,7,NA,37.41854196542408,39.27613386360463,"[94, 0, 160]",160,l,1.33795236190781,colour,0.5
017,73,1,1,Practice,8,NA,39.785304179182276,42.2522014034912,"[1, 0, 253]",253,a,1.9505726918578148,colour,0.5
017,73,1,1,Practice,9,NA,42.76130397757515,44.22811849415302,"[68, 0, 186]",186,a,0.9498740086564794,colour,0.5
017,73,1,1,Practice,10,NA,44.73729589895811,46.02012121013831,"[77, 0, 177]",177,l,0.7650612706784159,colour,0.5
017,73,1,1,1,1,1,5.140356556861661,6.823955460800789,"[48, 0, 206]",206,a,1.1645552570698783,colour,0.5
017,73,1,1,1,2,2,7.333251807256602,8.072026992682368,"[29, 0, 225]",225,a,0.219439304783009,colour,0.5
017,73,1,1,1,3,3,8.582341431640089,9.807961759157479,"[75, 0, 179]",179,l,0.7081666379235685,colour,0.5
017,73,1,1,1,4,4,10.317563336458988,11.831972594605759,"[80, 0, 174]",174,l,0.9968055131612346,colour,0.5
017,73,1,1,1,5,5,12.341188596445136,13.63196014915593,"[70, 0, 184]",184,a,0.7746486695250496,colour,0.5
017,73,1,1,1,6,6,14.141090292483568,15.384004408027977,"[91, 0, 163]",163,l,0.7266955277882516,colour,0.5
017,73,1,1,1,7,7,15.893919486901723,16.912023416603915,"[96, 0, 158]",158,l,0.4991618952481076,colour,0.5
017,73,1,1,1,8,8,17.422830557101406,18.400040251086466,"[90, 0, 164]",164,l,0.4562669205479324,colour,0.5
017,73,1,1,1,9,9,18.90961583459284,19.46485788852442,"[62, 0, 192]",192,a,0.03408975445199758,colour,0.5
017,73,1,1,1,10,10,19.97664019232616,21.02397578326054,"[52, 0, 202]",202,a,0.5268622821895406,colour,0.5
017,73,1,1,1,11,11,21.533390283584595,23.13594508531969,"[72, 0, 182]",182,a,1.0853449030546471,colour,0.5
017,73,1,1,1,12,12,23.645198502461426,25.399967389530502,"[16, 0, 238]",238,a,1.2368681819643825,colour,0.5
017,73,1,1,1,13,13,25.909644585335627,26.8799926902866,"[42, 0, 212]",212,a,0.45234578754752874,colour,0.5
017,73,1,1,1,14,14,27.389609233709052,28.5119559901068,"[19, 0, 235]",235,a,0.6047520699212328,colour,0.5
017,73,1,1,1,15,15,29.021565838134848,30.127962609869428,"[65, 0, 189]",189,l,0.5898753161309287,colour,0.5
017,73,1,1,1,16,16,30.63709787314292,31.703957997146063,"[94, 0, 160]",160,l,0.5503752960357815,colour,0.5
017,73,1,1,1,17,17,32.21398571599275,33.288020930602215,"[40, 0, 214]",214,a,0.5546221400145441,colour,0.5
017,73,1,1,1,18,18,33.7979998125229,34.5440154671669,"[93, 0, 161]",161,l,0.22846271574962884,colour,0.5
017,73,1,1,1,19,19,35.05458708771039,35.664991244790144,"[8, 0, 246]",246,a,0.0899194268276915,colour,0.5
017,73,1,1,1,20,20,36.17490435449872,37.06397795723751,"[98, 0, 156]",156,l,0.3721244301414117,colour,0.5
017,73,1,1,1,21,21,37.57311322062742,38.127995692892,"[2, 0, 252]",252,a,0.037357890396378934,colour,0.5
017,73,1,1,1,22,22,38.637697307160124,39.28000379668083,"[37, 0, 217]",217,a,0.12536086153704673,colour,0.5
017,73,1,1,1,23,23,39.7890587154543,40.68020198016893,"[64, 0, 190]",190,l,0.37454107066150755,colour,0.5
017,73,1,1,1,24,24,41.190481366822496,41.94402893667575,"[87, 0, 167]",167,l,0.23445705533958972,colour,0.5
017,73,1,1,1,25,25,42.453238636953756,43.023989961715415,"[17, 0, 237]",237,a,0.0526028904132545,colour,0.5
017,73,1,1,1,26,26,43.53306417888962,44.14395394839812,"[33, 0, 221]",221,a,0.09428639395628124,colour,0.5
017,73,1,1,1,27,27,44.65304864558857,45.32797190465499,"[25, 0, 229]",229,a,0.15589615376666188,colour,0.5
017,73,1,1,1,28,28,45.83731118030846,46.583990072016604,"[3, 0, 251]",251,a,0.22948159603402019,colour,0.5
017,73,1,1,1,29,29,47.094615649431944,47.83998106396757,"[18, 0, 236]",236,a,0.22564159519970417,colour,0.5
017,73,1,1,1,30,30,48.34972993971314,48.97596947220154,"[59, 0, 195]",195,l,0.1101524893892929,colour,0.5
017,73,1,1,1,31,31,49.48485306778457,50.1999907840509,"[13, 0, 241]",241,a,0.19826337439008057,colour,0.5
017,73,1,1,1,32,32,50.709356447448954,51.27215444133617,"[85, 0, 169]",169,l,0.04275555303320289,colour,0.5
017,73,1,1,1,33,33,51.78185329865664,52.42433662514668,"[83, 0, 171]",171,l,0.12514897237997502,colour,0.5
017,73,1,1,1,34,34,52.934260368696414,53.488379566930234,"[23, 0, 231]",231,a,0.03481718827970326,colour,0.5
017,73,1,1,1,35,35,53.99790591967758,54.67197177547496,"[41, 0, 213]",213,a,0.1569689909229055,colour,0.5
017,73,1,1,1,36,36,55.181476072757505,55.77601767901797,"[22, 0, 232]",232,a,0.07815996615681797,colour,0.5
017,73,1,1,1,37,37,56.28555781627074,56.80824099609163,"[35, 0, 219]",219,a,0.0012000494170933962,colour,0.5
017,73,1,1,1,38,38,57.31950933067128,60.04794880945701,"[97, 0, 157]",157,l,2.209550219704397,colour,0.5
017,73,1,1,1,39,39,60.558275063871406,61.64001666766126,"[30, 0, 224]",224,a,0.560477452003397,colour,0.5
017,73,1,1,1,40,40,62.14934097719379,63.05599942035042,"[26, 0, 228]",228,a,0.38968012598343194,colour,0.5
017,73,1,1,1,41,41,63.565107114380226,64.77594757440966,"[39, 0, 215]",215,a,0.6920665978686884,colour,0.5
017,73,1,1,1,42,42,65.28548337938264,66.42395065585151,"[74, 0, 180]",180,l,0.6175926385913044,colour,0.5
017,73,1,1,1,43,43,66.93392993160523,67.8400015438674,"[78, 0, 176]",176,l,0.38518437114544213,colour,0.5
017,73,1,1,1,44,44,68.34921912115533,69.51997273007873,"[55, 0, 199]",199,a,0.6525118330027908,colour,0.5
017,73,1,1,1,45,45,70.02852628263645,71.03213273256551,"[15, 0, 239]",239,a,0.48579120950307697,colour,0.5
017,73,1,1,1,46,46,71.54100884508807,72.55199794261716,"[66, 0, 188]",188,l,0.49251652776729316,colour,0.5
017,73,1,1,1,47,47,73.06194255989976,74.0479842555942,"[79, 0, 175]",175,l,0.4666857287520543,colour,0.5
017,73,1,1,1,48,48,74.55733180209063,75.75196548970416,"[6, 0, 248]",248,a,0.6758228038670495,colour,0.5
017,73,1,1,1,49,49,76.26067697443068,77.38396659877617,"[1, 0, 253]",253,a,0.6070170796010643,colour,0.5
017,73,1,1,1,50,50,77.89477531472221,79.31198332307395,"[76, 0, 178]",178,l,0.8973282260121778,colour,0.5
017,73,1,1,2,1,51,85.34835817327257,87.3920176033862,"[42, 0, 212]",212,a,1.5254314388148487,colour,0.5
017,73,1,1,2,2,52,87.9010807928862,88.59995541663375,"[46, 0, 208]",208,a,0.18214836821425706,colour,0.5
017,73,1,1,2,3,53,89.10938291391358,90.23999729042407,"[53, 0, 201]",201,a,0.613905844045803,colour,0.5
017,73,1,1,2,4,54,90.75052795093507,91.77599089744035,"[34, 0, 220]",220,a,0.5039278283948079,colour,0.5
017,73,1,1,2,5,55,92.28667870268691,93.12802641291637,"[78, 0, 176]",176,l,0.32035728148184717,colour,0.5
017,73,1,1,2,6,56,93.63765398412943,94.69599521404598,"[6, 0, 248]",248,a,0.5420627775602043,colour,0.5
017,73,1,1,2,7,57,95.20510763430502,96.18400574708357,"[33, 0, 221]",221,a,0.46221321111079305,colour,0.5
017,73,1,1,2,8,58,96.69329933659174,97.69599915249273,"[75, 0, 179]",179,l,0.4857380402972922,colour,0.5
017,73,1,1,2,9,59,98.20506588660646,99.52000541938469,"[30, 0, 224]",224,a,0.7985641942359507,colour,0.5
017,73,1,1,2,10,60,100.02887444267981,101.29596795991529,"[44, 0, 210]",210,a,0.7501715200487524,colour,0.5
017,73,1,1,2,11,61,101.80561167863198,103.43195912509691,"[63, 0, 191]",191,l,1.1085022736806422,colour,0.5
017,73,1,1,2,12,62,103.94132754544262,105.02400335250422,"[99, 0, 155]",155,l,0.5649263389641419,colour,0.5
017,73,1,1,2,13,63,105.5330941111315,106.47197587147821,"[56, 0, 198]",198,a,0.42072269215714186,colour,0.5
017,73,1,1,2,14,64,106.98261011356954,108.16001539153513,"[43, 0, 211]",211,a,0.6573203017469496,colour,0.5
017,73,1,1,2,15,65,108.66922391031403,109.76800448354334,"[84, 0, 170]",170,l,0.5806506497319788,colour,0.5
017,73,1,1,2,16,66,110.27808261476457,111.54395008867141,"[69, 0, 185]",185,l,0.7489864367526025,colour,0.5
017,73,1,1,2,17,67,112.05363791831769,112.7440208235057,"[11, 0, 243]",243,a,0.1715365753043443,colour,0.5
017,73,1,1,2,18,68,113.25321634532884,114.33604969084263,"[18, 0, 236]",236,a,0.5645435204496607,colour,0.5
017,73,1,1,2,19,69,114.84633419744205,115.98397597228177,"[95, 0, 159]",159,l,0.6182775371707976,colour,0.5
017,73,1,1,2,20,70,116.49348617717624,117.64800702000502,"[86, 0, 168]",168,l,0.6364625992719084,colour,0.5
017,73,1,1,2,21,71,118.15644281241111,119.40796955733094,"[10, 0, 244]",244,a,0.733817843021825,colour,0.5
017,73,1,1,2,22,72,119.91711230366491,121.072020691121,"[90, 0, 164]",164,l,0.6384133194806054,colour,0.5
017,73,1,1,2,23,73,121.58111381297931,122.76004721433856,"[89, 0, 165]",165,l,0.6603757608681917,colour,0.5
017,73,1,1,2,24,74,123.26919114228804,124.45597547444049,"[35, 0, 219]",219,a,0.6688855963293463,colour,0.5
017,73,1,1,2,25,75,124.96734620898496,126.36002468632068,"[57, 0, 197]",197,a,0.8710523807676509,colour,0.5
017,73,1,1,2,26,76,126.86919303273316,127.95203504292294,"[7, 0, 247]",247,a,0.5659507330274209,colour,0.5
017,73,1,1,2,27,77,128.461995807942,129.4802675161045,"[23, 0, 231]",231,a,0.5012000494170934,colour,0.5
017,73,1,1,2,28,78,129.98947406571824,130.64796763530467,"[81, 0, 173]",173,l,0.14253019413445145,colour,0.5
017,73,1,1,2,29,79,131.15697017253842,132.7520159019623,"[66, 0, 188]",188,l,1.0780225137714297,colour,0.5
017,73,1,1,2,30,80,133.26286045799498,134.22399256110657,"[45, 0, 209]",209,a,0.44106839457526803,colour,0.5
017,73,1,1,2,31,81,134.73290136281867,135.36796383862384,"[22, 0, 232]",232,l,0.11873636790551245,colour,0.5
017,73,1,1,2,32,82,135.87803094217088,137.64801371539943,"[24, 0, 230]",230,a,1.2503731693141162,colour,0.5
017,73,1,1,2,33,83,138.15719112020452,139.29601955367252,"[71, 0, 183]",183,l,0.6211632484337315,colour,0.5
017,73,1,1,2,34,84,139.80509731546044,140.87999229645357,"[48, 0, 206]",206,a,0.5581734514562413,colour,0.5
017,73,1,1,2,35,85,141.38984239066485,142.83198992384132,"[62, 0, 192]",192,l,0.9232255847891793,colour,0.5
017,73,1,1,2,36,86,143.3416942950571,144.14401499461383,"[36, 0, 218]",218,a,0.2812026647152379,colour,0.5
017,73,1,1,2,37,87,144.65283715014812,145.7280038848985,"[96, 0, 158]",158,l,0.5550888477591798,colour,0.5
017,73,1,1,2,38,88,146.23727423755918,147.8240090238396,"[65, 0, 189]",189,l,1.0687647643499076,colour,0.5
017,73,1,1,2,39,89,148.33324983797502,149.40001898340415,"[16, 0, 238]",238,a,0.5491638249950483,colour,0.5
017,73,1,1,2,40,90,149.91014870849904,151.60798909212463,"[61, 0, 193]",193,l,1.1776667919475585,colour,0.5
017,73,1,1,2,41,91,152.1176469894126,152.80800035607535,"[19, 0, 235]",235,a,0.17323602177202702,colour,0.5
017,73,1,1,2,42,92,153.31721675174776,154.51198119623587,"[98, 0, 156]",156,l,0.6764253885485232,colour,0.5
017,73,1,1,2,43,93,155.02125863812398,156.20001244556624,"[12, 0, 242]",242,a,0.662188634974882,colour,0.5
017,73,1,1,2,44,94,156.7098089767387,157.98402677848935,"[82, 0, 172]",172,l,0.756799164460972,colour,0.5
017,73,1,1,2,45,95,158.49258466321044,159.68799501552712,"[3, 0, 251]",251,a,0.6788310013944283,colour,0.5
017,73,1,1,2,46,96,160.19861035305075,161.42397901276127,"[8, 0, 246]",246,a,0.7054526435676962,colour,0.5
017,73,1,1,2,47,97,161.93477394408546,162.92800333350897,"[41, 0, 213]",213,a,0.4719420005567372,colour,0.5
017,73,1,1,2,48,98,163.43613665213343,164.53600069636013,"[72, 0, 182]",182,l,0.5808034620713443,colour,0.5
017,73,1,1,2,49,99,165.04581416293513,166.67999560467433,"[54, 0, 200]",200,l,1.1175146569730714,colour,0.5
017,73,1,1,2,50,100,167.18910211732145,168.30399809067603,"[97, 0, 157]",157,l,0.5970129914348945,colour,0.5
017,73,1,1,3,1,101,175.74055970285553,177.33598667546175,"[88, 0, 166]",166,l,1.0765857627848163,colour,0.5
017,73,1,1,3,2,102,177.84420467086602,178.83200095163193,"[98, 0, 156]",156,l,0.4702575203264132,colour,0.5
017,73,1,1,3,3,103,179.3419628981501,180.44801899290178,"[56, 0, 198]",198,a,0.5865319555159658,colour,0.5
017,73,1,1,3,4,104,180.9571522870101,181.96008250291925,"[45, 0, 209]",209,a,0.4842233075760305,colour,0.5
017,73,1,1,3,5,105,182.46969944017474,183.43996365589555,"[46, 0, 208]",208,a,0.4497219839831814,colour,0.5
017,73,1,1,3,6,106,183.9492958423216,184.99204627540894,"[48, 0, 206]",206,a,0.5241805831901729,colour,0.5
017,73,1,1,3,7,107,185.5014186342014,186.07232867891435,"[71, 0, 183]",183,l,0.051593462470918894,colour,0.5
017,73,1,1,3,8,108,186.58177035464905,187.64798614615574,"[4, 0, 250]",250,a,0.5492059666430578,colour,0.5
017,73,1,1,3,9,109,188.15843134198803,189.23201560263988,"[39, 0, 215]",215,a,0.5551219307817519,colour,0.5
017,73,1,1,3,10,110,189.74125484144315,190.81598283152562,"[13, 0, 241]",241,a,0.5568572173360735,colour,0.5
017,73,1,1,3,11,111,191.3261283104075,192.60801272280514,"[3, 0, 251]",251,a,0.763257454847917,colour,0.5
017,73,1,1,3,12,112,193.11837718030438,194.25600005046,"[1, 0, 253]",253,a,0.6159625089494511,colour,0.5
017,73,1,1,3,13,113,194.7643515598029,195.82410315307789,"[97, 0, 157]",157,l,0.5424369313986972,colour,0.5
017,73,1,1,3,14,114,196.3339244965464,197.59995896124747,"[28, 0, 226]",226,a,0.7465008731232956,colour,0.5
017,73,1,1,3,15,115,198.11070663109422,201.53603299171664,"[60, 0, 194]",194,l,2.9047014211537316,colour,0.5
017,73,1,1,3,16,116,202.04860889574047,203.3280030185124,"[14, 0, 240]",240,a,0.7599144881824031,colour,0.5
017,73,1,1,3,17,117,203.83729700185359,204.951995658339,"[6, 0, 248]",248,a,0.596715637599118,colour,0.5
017,73,1,1,3,18,118,205.46064176457003,207.24001619499177,"[80, 0, 174]",174,l,1.2625780701637268,colour,0.5
017,73,1,1,3,19,119,207.74960280617233,208.81597298535053,"[99, 0, 155]",155,l,0.5487731295870617,colour,0.5
017,73,1,1,3,20,120,209.3251133686863,210.43200362974312,"[93, 0, 161]",161,l,0.5897544054314494,colour,0.5
017,73,1,1,3,21,121,210.9425185364671,211.94401200127322,"[95, 0, 159]",159,l,0.4818342364160344,colour,0.5
017,73,1,1,3,22,122,212.45307400927413,213.54399301798549,"[59, 0, 195]",195,a,0.5725677435984835,colour,0.5
017,73,1,1,3,23,123,214.0531806627987,215.42400540050585,"[0, 0, 254]",254,a,0.8514742846600711,colour,0.5
017,73,1,1,3,24,124,215.9331225468777,217.15201794996392,"[36, 0, 218]",218,a,0.7016547842649743,colour,0.5
017,73,1,1,3,25,125,217.660935416352,218.79202752828132,"[35, 0, 219]",219,a,0.6133843915304169,colour,0.5
017,73,1,1,3,26,126,219.30179018864874,221.21604159334674,"[76, 0, 178]",178,l,1.3922113756416366,colour,0.5
017,73,1,1,3,27,127,221.7254415213829,222.71208186331205,"[19, 0, 235]",235,a,0.4682871075347066,colour,0.5
017,73,1,1,3,28,128,223.22125690511893,225.200040802476,"[49, 0, 205]",205,l,1.4613459615502506,colour,0.5
017,73,1,1,3,29,129,225.70918079197872,226.9280190874124,"[7, 0, 247]",247,a,0.7024629567749798,colour,0.5
017,73,1,1,3,30,130,227.43721303378697,228.55197470565327,"[65, 0, 189]",189,l,0.5979326223023236,colour,0.5
017,73,1,1,3,31,131,229.06112178438343,230.03201182174962,"[62, 0, 192]",192,l,0.45155888283625245,colour,0.5
017,73,1,1,3,32,132,230.54143301746808,231.2719705151394,"[90, 0, 164]",164,l,0.21288294647820294,colour,0.5
017,73,1,1,3,33,133,231.7807316245744,232.49634156236425,"[78, 0, 176]",176,l,0.19760604505427182,colour,0.5
017,73,1,1,3,34,134,233.00611643202137,233.90401022112928,"[53, 0, 201]",201,a,0.379937945632264,colour,0.5
017,73,1,1,3,35,135,234.41428960778285,235.43199417740107,"[57, 0, 197]",197,a,0.5006266093114391,colour,0.5
017,73,1,1,3,36,136,235.94182497321162,237.12001006677747,"[91, 0, 163]",163,l,0.6598224068293348,colour,0.5
017,73,1,1,3,37,137,237.6286715330789,238.40017100807745,"[32, 0, 222]",222,a,0.252570437383838,colour,0.5
017,73,1,1,3,38,138,238.90984387148637,240.33605126617476,"[41, 0, 213]",213,a,0.9085961665259674,colour,0.5
017,73,1,1,3,39,139,240.8453243757831,241.6324528506957,"[16, 0, 238]",238,a,0.2683573696995154,colour,0.5
017,73,1,1,3,40,140,242.14260778191965,243.3600227170391,"[81, 0, 173]",173,l,0.700069553218782,colour,0.5
017,73,1,1,3,41,141,243.86942067591008,245.28004042443354,"[70, 0, 184]",184,l,0.8904457630123943,colour,0.5
017,73,1,1,3,42,142,245.7892150724074,247.07998623116873,"[12, 0, 242]",242,a,0.774373764754273,colour,0.5
017,73,1,1,3,43,143,247.58932668843772,249.0400313186692,"[22, 0, 232]",232,a,0.9342257101088762,colour,0.5
017,73,1,1,3,44,144,249.54921344970353,250.85599642712623,"[61, 0, 193]",193,a,0.7888444630661979,colour,0.5
017,73,1,1,3,45,145,251.36555940739345,252.0480043417774,"[87, 0, 167]",167,l,0.1658553434535861,colour,0.5
017,73,1,1,3,46,146,252.55742750677746,253.73598714801483,"[8, 0, 246]",246,a,0.660796782351099,colour,0.5
017,73,1,1,3,47,147,254.2459301899653,255.4399742897367,"[69, 0, 185]",185,l,0.6740745203569531,colour,0.5
017,73,1,1,3,48,148,255.94954199623317,256.9679873907007,"[92, 0, 162]",162,l,0.5015269418945536,colour,0.5
017,73,1,1,3,49,149,257.47817894956097,258.8000190622406,"[40, 0, 214]",214,a,0.8023120349971578,colour,0.5
017,73,1,1,3,50,150,259.3100601718761,260.3679701401852,"[5, 0, 249]",249,a,0.5377863951725885,colour,0.5
017,73,1,1,4,1,151,265.48406025534496,266.2079862563405,"[1, 0, 253]",253,a,0.20583309896755964,colour,0.5
017,73,1,1,4,2,152,266.71726291056257,267.63214249990415,"[98, 0, 156]",156,l,0.3964743672404438,colour,0.5
017,73,1,1,4,3,153,268.1412419232074,269.31206799997017,"[86, 0, 168]",168,l,0.6542802026960999,colour,0.5
017,73,1,1,4,4,154,269.8210823525442,270.9840019660769,"[58, 0, 196]",196,a,0.6457219240255654,colour,0.5
017,73,1,1,4,5,155,271.4930860294262,272.52799459022935,"[9, 0, 245]",245,a,0.51733356656041,colour,0.5
017,73,1,1,4,6,156,273.0371507273521,273.9039995872881,"[7, 0, 247]",247,a,0.3472794283879921,colour,0.5
017,73,1,1,4,7,157,274.4134373245761,275.1680325254565,"[16, 0, 238]",238,a,0.23753535759169608,colour,0.5
017,73,1,1,4,8,158,275.67713588720653,276.2724714875221,"[96, 0, 158]",158,l,0.076670833514072,colour,0.5
017,73,1,1,4,9,159,276.7821660125628,277.40044315578416,"[99, 0, 155]",155,l,0.1004252751590684,colour,0.5
017,73,1,1,4,10,160,277.9109167086426,279.21601599338464,"[67, 0, 187]",187,l,0.7864735088078305,colour,0.5
017,73,1,1,4,11,161,279.7258656937629,280.7680375666823,"[0, 0, 254]",254,a,0.5239324601134285,colour,0.5
017,73,1,1,4,12,162,281.27774784551,282.38410523266066,"[62, 0, 192]",192,l,0.5899135193321854,colour,0.5
017,73,1,1,4,13,163,282.89341339445673,284.0404830602929,"[13, 0, 241]",241,a,0.6288282837485895,colour,0.5
017,73,1,1,4,14,164,284.55007203447167,285.49605523620266,"[59, 0, 195]",195,l,0.4271841333247721,colour,0.5
017,73,1,1,4,15,165,286.00730978604406,286.9440391766839,"[74, 0, 180]",180,l,0.4173694852506742,colour,0.5
017,73,1,1,4,16,166,287.4531204830855,288.4720388868591,"[25, 0, 229]",229,a,0.49969240615610033,colour,0.5
017,73,1,1,4,17,167,288.98087167623453,290.0960216805106,"[85, 0, 169]",169,l,0.5965120190521702,colour,0.5
017,73,1,1,4,18,168,290.6048973992001,291.60802493209485,"[72, 0, 182]",182,l,0.4859680464724079,colour,0.5
017,73,1,1,4,19,169,292.11754655861296,293.12802050530445,"[8, 0, 246]",246,a,0.4942006142809987,colour,0.5
017,73,1,1,4,20,170,293.63717388547957,294.82399366388563,"[82, 0, 172]",172,l,0.6674571160692722,colour,0.5
017,73,1,1,4,21,171,295.33334121026564,295.97692297399044,"[3, 0, 251]",251,a,0.12364959972910583,colour,0.5
017,73,1,1,4,22,172,296.48755721608177,297.5600402826676,"[37, 0, 217]",217,a,0.5544909891905263,colour,0.5
017,73,1,1,4,23,173,298.0691999644041,298.6401801138418,"[93, 0, 161]",161,l,0.052074742619879544,colour,0.5
017,73,1,1,4,24,174,299.14944298332557,300.24800654733554,"[28, 0, 226]",226,a,0.5805336773628369,colour,0.5
017,73,1,1,4,25,175,300.75723081990145,301.64001981844194,"[34, 0, 220]",220,a,0.36555743822827935,colour,0.5
017,73,1,1,4,26,176,302.1498951187823,303.07206992188003,"[46, 0, 208]",208,a,0.4034048793837428,colour,0.5
017,73,1,1,4,27,177,303.58127095759846,304.35207568784244,"[38, 0, 216]",216,a,0.25260194507427514,colour,0.5
017,73,1,1,4,28,178,304.8610380527098,305.7680170866661,"[42, 0, 212]",212,a,0.389955424470827,colour,0.5
017,73,1,1,4,29,179,306.27735833160114,307.2240776318358,"[64, 0, 190]",190,l,0.42916281684301794,colour,0.5
017,73,1,1,4,30,180,307.7336918122601,310.19201421632897,"[43, 0, 211]",211,a,1.9410999022657052,colour,0.5
017,73,1,1,4,31,181,310.7018410736928,312.000213070889,"[17, 0, 237]",237,a,0.7810065292287618,colour,0.5
017,73,1,1,4,32,182,312.5106606298359,313.7200241663959,"[79, 0, 175]",175,l,0.6905136620625854,colour,0.5
017,73,1,1,4,33,183,314.22962180525064,315.98400354152545,"[56, 0, 198]",198,l,1.2361671357648447,colour,0.5
017,73,1,1,4,34,184,316.4929974140832,317.9120364134433,"[54, 0, 200]",200,a,0.9018763621570542,colour,0.5
017,73,1,1,4,35,185,318.4212532029487,319.4880026561441,"[50, 0, 204]",204,a,0.5494978066999465,colour,0.5
017,73,1,1,4,36,186,319.99791143345647,321.6480968168471,"[61, 0, 193]",193,a,1.1322141798445955,colour,0.5
017,73,1,1,4,37,187,322.157851600321,323.352035515476,"[89, 0, 165]",165,l,0.6746692281449214,colour,0.5
017,73,1,1,4,38,188,323.8615815604571,324.9360184982652,"[75, 0, 179]",179,l,0.5561636541970074,colour,0.5
017,73,1,1,4,39,189,325.44490681996103,326.4720455822535,"[5, 0, 249]",249,a,0.5105145128909498,colour,0.5
017,73,1,1,4,40,190,326.9809654116398,328.1680167715531,"[76, 0, 178]",178,l,0.6698320087743923,colour,0.5
017,73,1,1,4,41,191,328.6790728230262,330.047997646383,"[20, 0, 234]",234,a,0.8476264069322497,colour,0.5
017,73,1,1,4,42,192,330.5577677899273,331.50405149627477,"[36, 0, 218]",218,a,0.4262648962903768,colour,0.5
017,73,1,1,4,43,193,332.0134057380492,333.1999955101637,"[39, 0, 215]",215,a,0.6677170544862747,colour,0.5
017,73,1,1,4,44,194,333.7089129765518,335.5760328026954,"[60, 0, 194]",194,l,1.3497976812068373,colour,0.5
017,73,1,1,4,45,195,336.0851747614797,337.12803153297864,"[2, 0, 252]",252,a,0.5249344049952924,colour,0.5
017,73,1,1,4,46,196,337.6372250855202,338.26407035358716,"[77, 0, 177]",177,l,0.1091934738215059,colour,0.5
017,73,1,1,4,47,197,338.7731985276332,339.7840163020883,"[18, 0, 236]",236,a,0.49402889725752175,colour,0.5
017,73,1,1,4,48,198,340.2947592458222,340.9841508399695,"[29, 0, 225]",225,a,0.17082410748116672,colour,0.5
017,73,1,1,4,49,199,341.4932415987132,342.3040256599197,"[27, 0, 227]",227,a,0.29310863616410643,colour,0.5
017,73,1,1,4,50,200,342.81346654787194,343.768007240491,"[94, 0, 160]",160,l,0.436357993632555,colour,0.5
017,73,1,1,5,1,201,349.2686066745082,349.8240302915219,"[35, 0, 219]",219,a,0.03899747226387262,colour,0.4
017,73,1,1,5,2,202,350.33332900109235,351.01604726479854,"[81, 0, 173]",173,l,0.16678363899700344,colour,0.4
017,73,1,1,5,3,203,351.5258560051443,352.28805598290637,"[88, 0, 166]",166,l,0.2434879494830966,colour,0.4
017,73,1,1,5,4,204,352.7979919356294,353.5200877332827,"[23, 0, 231]",231,a,0.20292848313692957,colour,0.4
017,73,1,1,5,5,205,354.0276976301102,354.7440220050048,"[86, 0, 168]",168,l,0.19988168857526034,colour,0.4
017,73,1,1,5,6,206,355.25252829596866,356.1041014359798,"[43, 0, 211]",211,a,0.3321340716211125,colour,0.4
017,73,1,1,5,7,207,356.61339463165496,357.73604858806357,"[70, 0, 184]",184,l,0.6034508019220084,colour,0.4
017,73,1,1,5,8,208,358.2447525897296,359.2880059644813,"[52, 0, 202]",202,a,0.5260671067517251,colour,0.4
017,73,1,1,5,9,209,359.79904389893636,360.776002712897,"[31, 0, 223]",223,a,0.455584385083057,colour,0.4
017,73,1,1,5,10,210,361.28558223473374,362.1120555544039,"[90, 0, 164]",164,l,0.30590666946955025,colour,0.4
017,73,1,1,5,11,211,362.6211983008543,363.6800574385561,"[33, 0, 221]",221,a,0.5413770911982283,colour,0.4
017,73,1,1,5,12,212,364.18963065894786,365.7360198373208,"[60, 0, 194]",194,l,1.0266893837833777,colour,0.4
017,73,1,1,5,13,213,366.2469104733318,367.49604381469544,"[57, 0, 197]",197,l,0.7294894729275256,colour,0.4
017,73,1,1,5,14,214,368.00561664113775,368.9521126305917,"[72, 0, 182]",182,l,0.4272790502291173,colour,0.4
017,73,1,1,5,15,215,369.4614704170963,370.3123535384657,"[63, 0, 191]",191,l,0.33272247784771025,colour,0.4
017,73,1,1,5,16,216,370.8223603835795,371.83202576392796,"[48, 0, 206]",206,a,0.49160516762640327,colour,0.4
017,73,1,1,5,17,217,372.3410850148648,373.28001521830447,"[45, 0, 209]",209,a,0.42022053815890104,colour,0.4
017,73,1,1,5,18,218,373.7907439834671,374.8160360007314,"[12, 0, 242]",242,a,0.5061932320240885,colour,0.4
017,73,1,1,5,19,219,375.32598652574234,376.448014660622,"[26, 0, 228]",228,a,0.6058312085224316,colour,0.4
017,73,1,1,5,20,220,376.95816959184594,378.368072146317,"[53, 0, 201]",201,l,0.8929746496723965,colour,0.4
017,73,1,1,5,21,221,378.87727121275384,379.8560094239656,"[29, 0, 225]",225,a,0.4618953770259395,colour,0.4
017,73,1,1,5,22,222,380.36553065665066,381.9521366552217,"[54, 0, 200]",200,l,1.069597355206497,colour,0.4
017,73,1,1,5,23,223,382.4611395862885,383.360045954003,"[66, 0, 188]",188,l,0.3812297611730173,colour,0.4
017,73,1,1,5,24,224,383.87072588223964,384.8320210376987,"[83, 0, 171]",171,l,0.440624923678115,colour,0.4
017,73,1,1,5,25,225,385.3417675504461,386.6320822414709,"[55, 0, 199]",199,a,0.7713856535265222,colour,0.4
017,73,1,1,5,26,226,387.14119348011445,389.5121068331646,"[96, 0, 158]",158,l,1.8536636757198721,colour,0.4
017,73,1,1,5,27,227,390.0219963120762,391.4240246989066,"[39, 0, 215]",215,a,0.8855738851707429,colour,0.4
017,73,1,1,5,28,228,391.93322179617826,393.06401852343697,"[82, 0, 172]",172,l,0.6137632715981454,colour,0.4
017,73,1,1,5,29,229,393.5745629685698,394.8400491992943,"[36, 0, 218]",218,a,0.7459498821990564,colour,0.4
017,73,1,1,5,30,230,395.3491907642456,396.6320456137182,"[16, 0, 238]",238,a,0.7648462306242436,colour,0.4
017,73,1,1,5,31,231,397.14121868635993,398.3200611092616,"[95, 0, 159]",159,l,0.6609200562816113,colour,0.4
017,73,1,1,5,32,232,398.8288080401253,399.95206733827945,"[50, 0, 204]",204,a,0.6055247961776331,colour,0.4
017,73,1,1,5,33,233,400.4619335802272,401.4960509039229,"[91, 0, 163]",163,l,0.5171720895450562,colour,0.4
017,73,1,1,5,34,234,402.00668357056566,403.19205832714215,"[58, 0, 196]",196,a,0.6651326356222853,colour,0.4
017,73,1,1,5,35,235,403.7012408520095,404.79202122683637,"[25, 0, 229]",229,a,0.5736957191256806,colour,0.4
017,73,1,1,5,36,236,405.3009804408066,406.28802998911124,"[47, 0, 207]",207,a,0.46987391414586455,colour,0.4
017,73,1,1,5,37,237,406.79667609534226,407.35205599549226,"[97, 0, 157]",157,l,0.038463022909127176,colour,0.4
017,73,1,1,5,38,238,407.86218572058715,408.944058475201,"[3, 0, 251]",251,a,0.5642343511572108,colour,0.4
017,73,1,1,5,39,239,409.4526907969266,410.42408850206994,"[2, 0, 252]",252,a,0.45190979982726276,colour,0.4
017,73,1,1,5,40,240,410.9330335375853,412.22407329955604,"[76, 0, 178]",178,l,0.7733615799807012,colour,0.4
017,73,1,1,5,41,241,412.73339839675464,413.63210153987166,"[77, 0, 177]",177,l,0.38168780435808003,colour,0.4
017,73,1,1,5,42,242,414.14098671090323,415.3360260600457,"[65, 0, 189]",189,l,0.6777597395703197,colour,0.4
017,73,1,1,5,43,243,415.84501993260346,416.8880622057477,"[75, 0, 179]",179,l,0.5263152298284695,colour,0.4
017,73,1,1,5,44,244,417.3979059983976,418.11213589902036,"[93, 0, 161]",161,l,0.1942146351793781,colour,0.4
017,73,1,1,5,45,245,418.62293279962614,419.7680470190244,"[61, 0, 193]",193,a,0.6247543384088203,colour,0.4
017,73,1,1,5,46,246,420.27886164269876,421.4321123312693,"[71, 0, 183]",183,l,0.6337300939485431,colour,0.4
017,73,1,1,5,47,247,421.94123696081806,423.392095191055,"[59, 0, 195]",195,a,0.9342032608110458,colour,0.4
017,73,1,1,5,48,248,423.9020197222708,425.2160096918233,"[1, 0, 253]",253,a,0.7938817563699558,colour,0.4
017,73,1,1,5,49,249,425.7256825552322,427.4880538561847,"[42, 0, 212]",212,a,1.2427679985994473,colour,0.4
017,73,1,1,5,50,250,427.99803549505305,428.9120442904532,"[32, 0, 222]",222,a,0.39554095175117254,colour,0.4
017,73,1,1,6,1,251,434.0127377748722,434.8080586453434,"[81, 0, 173]",173,l,0.2762772236019373,colour,0.28
017,73,1,1,6,2,252,435.31687253015116,436.3440514646936,"[90, 0, 164]",164,l,0.5094538849079981,colour,0.28
017,73,1,1,6,3,253,436.8533048819518,437.86404270562343,"[95, 0, 159]",159,l,0.49133380758576095,colour,0.28
017,73,1,1,6,4,254,438.37343475664966,439.25612174894195,"[99, 0, 155]",155,l,0.3640529455151409,colour,0.28
017,73,1,1,6,5,255,439.76578791695647,440.86401631787885,"[72, 0, 182]",182,l,0.5807365082437173,colour,0.28
017,73,1,1,6,6,256,441.3737470767228,442.53600975486916,"[71, 0, 183]",183,l,0.6459712288342416,colour,0.28
017,73,1,1,6,7,257,443.0449855104089,443.9124471951509,"[70, 0, 184]",184,l,0.34784538543317467,colour,0.28
017,73,1,1,6,8,258,444.4216604400426,445.0964104067534,"[98, 0, 156]",156,l,0.1566409170627594,colour,0.28
017,73,1,1,6,9,259,445.6061785808997,446.2160419871798,"[88, 0, 166]",166,l,0.09241168585140258,colour,0.28
017,73,1,1,6,10,260,446.72508824127726,447.4480847652303,"[83, 0, 171]",171,l,0.20559048978611827,colour,0.28
017,73,1,1,6,11,261,447.9579348594416,448.816038363846,"[73, 0, 181]",181,l,0.3389361898880452,colour,0.28
017,73,1,1,6,12,262,449.325092494837,450.18412232550327,"[67, 0, 187]",187,l,0.3414772857213393,colour,0.28
017,73,1,1,6,13,263,450.69326940423343,452.03207641246263,"[66, 0, 188]",188,a,0.8203486169222742,colour,0.28
017,73,1,1,6,14,264,452.5413979651639,453.1760287855286,"[43, 0, 211]",211,a,0.11765801708679646,colour,0.28
017,73,1,1,6,15,265,453.6850982764736,454.63204364455305,"[31, 0, 223]",223,a,0.43012222624383867,colour,0.28
017,73,1,1,6,16,266,455.14124231704045,456.2160179625498,"[62, 0, 192]",192,a,0.5577075313776731,colour,0.28
017,73,1,1,6,17,267,456.72485508432146,457.93609687360004,"[91, 0, 163]",163,l,0.6938676566351205,colour,0.28
017,73,1,1,6,18,268,458.4450785368681,459.74407123576384,"[51, 0, 203]",203,a,0.7813850153470412,colour,0.28
017,73,1,1,6,19,269,460.2540331823984,461.2321632950334,"[80, 0, 174]",174,l,0.45838896417990327,colour,0.28
017,73,1,1,6,20,270,461.7411721337121,462.5681121611269,"[6, 0, 248]",248,a,0.30981007940135896,colour,0.28
017,73,1,1,6,21,271,463.07812491385266,464.4720810283907,"[57, 0, 197]",197,a,0.8753894154215232,colour,0.28
017,73,1,1,6,22,272,464.9822544703493,466.1441382684279,"[56, 0, 198]",198,a,0.6430173820117489,colour,0.28
017,73,1,1,6,23,273,466.65358033799566,468.472062123823,"[87, 0, 167]",167,l,1.2992388528073207,colour,0.28
017,73,1,1,6,24,274,468.9812710363185,470.1120350743877,"[10, 0, 244]",244,a,0.6137494869763032,colour,0.28
017,73,1,1,6,25,275,470.6212317777099,472.1520565468818,"[84, 0, 170]",170,l,1.0138598426710814,colour,0.28
017,73,1,1,6,26,276,472.6616222842131,474.63209602609277,"[53, 0, 201]",201,l,1.452147682895884,colour,0.28
017,73,1,1,6,27,277,475.1411592155928,476.29605736292433,"[96, 0, 158]",158,l,0.6386866488028318,colour,0.28
017,73,1,1,6,28,278,476.8067254758207,477.848047822481,"[8, 0, 246]",246,a,0.5199266501003876,colour,0.28
017,73,1,1,6,29,279,478.3580763289938,479.50406449311413,"[85, 0, 169]",169,l,0.6275687635643408,colour,0.28
017,73,1,1,6,30,280,480.01345969503745,481.0480606617639,"[64, 0, 190]",190,l,0.5181882127653807,colour,0.28
017,73,1,1,6,31,281,481.55818250996526,482.8080322575988,"[69, 0, 185]",185,l,0.7322192210704088,colour,0.28
017,73,1,1,6,32,282,483.31773859797977,484.5040495269932,"[27, 0, 227]",227,a,0.6662228020140901,colour,0.28
017,73,1,1,6,33,283,485.01365819352213,486.09607445588335,"[23, 0, 231]",231,a,0.5630673847626895,colour,0.28
017,73,1,1,6,34,284,486.6069540642202,487.86404940101784,"[60, 0, 194]",194,l,0.7382399485213682,colour,0.28
017,73,1,1,6,35,285,488.3731287381379,489.6640239584958,"[75, 0, 179]",179,l,0.7726896783569828,colour,0.28
017,73,1,1,6,36,286,490.17334511724766,492.2400551857427,"[55, 0, 199]",199,a,1.5492752834688872,colour,0.28
017,73,1,1,6,37,287,492.74929796915967,494.04002422944177,"[42, 0, 212]",212,a,0.7742611247813329,colour,0.28
017,73,1,1,6,38,288,494.5491429512622,495.6000901120715,"[77, 0, 177]",177,l,0.5335407328093424,colour,0.28
017,73,1,1,6,39,289,496.1095755046699,497.2640711412532,"[89, 0, 165]",165,l,0.6360994728747755,colour,0.28
017,73,1,1,6,40,290,497.7731504784897,498.9360775751993,"[54, 0, 200]",200,a,0.6449070562375709,colour,0.28
017,73,1,1,6,41,291,499.44494265993126,500.9760391829768,"[22, 0, 232]",232,a,1.0129020086023957,colour,0.28
017,73,1,1,6,42,292,501.48528117872775,502.76819628675,"[9, 0, 245]",245,a,0.7656382553977892,colour,0.28
017,73,1,1,6,43,293,503.2773114638403,506.1680612761993,"[94, 0, 160]",160,l,2.3714615870267153,colour,0.28
017,73,1,1,6,44,294,506.6771000472363,507.6400757445954,"[97, 0, 157]",157,l,0.4450245799962431,colour,0.28
017,73,1,1,6,45,295,508.14912436169107,509.1441689884523,"[44, 0, 210]",210,a,0.4786555034806952,colour,0.28
017,73,1,1,6,46,296,509.65351023338735,510.6080973998178,"[26, 0, 228]",228,a,0.43314932845532894,colour,0.28
017,73,1,1,6,47,297,511.1172495984938,512.2080669949064,"[58, 0, 196]",196,l,0.5738902791636065,colour,0.28
017,73,1,1,6,48,298,512.7172766951844,514.0320527817821,"[61, 0, 193]",193,l,0.7985401696059853,colour,0.28
017,73,1,1,6,49,299,514.5411691404879,515.2960581507068,"[20, 0, 234]",234,a,0.23733882827218622,colour,0.28
017,73,1,1,6,50,300,515.8073221528903,516.8321068962105,"[17, 0, 237]",237,a,0.5027399882674217,colour,0.28
017,73,1,1,7,1,301,521.6601386654656,522.5360688318033,"[70, 0, 184]",184,l,0.3577470735181123,colour,0.14
017,73,1,1,7,2,302,523.0450418305118,523.9682961661601,"[88, 0, 166]",166,l,0.4038637103512883,colour,0.14
017,73,1,1,7,3,303,524.4782978912117,525.5600347687723,"[55, 0, 199]",199,l,0.565565551398322,colour,0.14
017,73,1,1,7,4,304,526.0695327644935,527.3040528353304,"[52, 0, 202]",202,a,0.7123914264375344,colour,0.14
017,73,1,1,7,5,305,527.8136004556436,528.8800616133958,"[79, 0, 175]",175,l,0.5462072214577347,colour,0.14
017,73,1,1,7,6,306,529.3892394120339,530.0165001879213,"[25, 0, 229]",229,a,0.10934352921321988,colour,0.14
017,73,1,1,7,7,307,530.5269233284052,531.3840599403484,"[61, 0, 193]",193,l,0.34045840555336326,colour,0.14
017,73,1,1,7,8,308,531.8932022928493,532.4484648267971,"[32, 0, 222]",222,a,0.03690457344055176,colour,0.14
017,73,1,1,7,9,309,532.960202232236,533.9760951091303,"[59, 0, 195]",195,l,0.4942785957828164,colour,0.14
017,73,1,1,7,10,310,534.4846782000968,535.288073705975,"[99, 0, 155]",155,l,0.28282097878400236,colour,0.14
017,73,1,1,7,11,311,535.7985208710888,537.5441241686931,"[54, 0, 200]",200,a,1.2252465673955157,colour,0.14
017,73,1,1,7,12,312,538.0547095738584,539.2480987074086,"[85, 0, 169]",169,l,0.6739760589553043,colour,0.14
017,73,1,1,7,13,313,539.7573068322381,540.7920740022091,"[7, 0, 247]",247,a,0.5173438065685332,colour,0.14
017,73,1,1,7,14,314,541.3015708163148,542.2640542058507,"[34, 0, 220]",220,a,0.4438457981450483,colour,0.14
017,73,1,1,7,15,315,542.7732158568688,544.6640865800437,"[60, 0, 194]",194,l,1.3732453165575862,colour,0.14
017,73,1,1,7,16,316,545.173268317245,546.1840703377966,"[98, 0, 156]",156,l,0.49264649697579443,colour,0.14
017,73,1,1,7,17,317,546.6942382659763,547.8000395422569,"[64, 0, 190]",190,l,0.586483906256035,colour,0.14
017,73,1,1,7,18,318,548.309144085506,549.336072140024,"[13, 0, 241]",241,a,0.5107063158648089,colour,0.14
017,73,1,1,7,19,319,549.8447800802533,550.9600442998344,"[63, 0, 191]",191,l,0.5972240929258987,colour,0.14
017,73,1,1,7,20,320,551.4692465170519,552.4241022866918,"[82, 0, 172]",172,l,0.43732567387633026,colour,0.14
017,73,1,1,7,21,321,552.9336810208624,554.8960584657034,"[57, 0, 197]",197,a,1.4429750040872023,colour,0.14
017,73,1,1,7,22,322,555.4051673413487,556.8240716453874,"[68, 0, 186]",186,l,0.9014529775595292,colour,0.14
017,73,1,1,7,23,323,557.3331178994849,558.2160979133332,"[91, 0, 163]",163,l,0.36606156127527356,colour,0.14
017,73,1,1,7,24,324,558.7256439583143,560.0000626215478,"[66, 0, 188]",188,l,0.7565534042660147,colour,0.14
017,73,1,1,7,25,325,560.509887115797,561.4801103714854,"[73, 0, 181]",181,l,0.45124931959435344,colour,0.14
017,73,1,1,7,26,326,561.9894256226253,563.12005102681,"[53, 0, 201]",201,a,0.6127731422893703,colour,0.14
017,73,1,1,7,27,327,563.6306734534446,564.8960620103171,"[48, 0, 206]",206,a,0.7449684174498543,colour,0.14
017,73,1,1,7,28,328,565.4056226275861,566.5280390947592,"[96, 0, 158]",158,l,0.6056622484466061,colour,0.14
017,73,1,1,7,29,329,567.0372487950372,567.7760444605956,"[81, 0, 173]",173,l,0.21822822757530957,colour,0.14
017,73,1,1,7,30,330,568.2866909118602,569.4802281315206,"[62, 0, 192]",192,l,0.6740516773425043,colour,0.14
017,73,1,1,7,31,331,569.9889778194483,571.0560774018522,"[80, 0, 174]",174,l,0.549346569692716,colour,0.14
017,73,1,1,7,32,332,571.565177612938,572.4640481406823,"[69, 0, 185]",185,l,0.382291964488104,colour,0.14
017,73,1,1,7,33,333,572.97418259189,573.8081015745411,"[83, 0, 171]",171,l,0.31439641886390746,colour,0.14
017,73,1,1,7,34,334,574.3173463271232,575.4161970050773,"[71, 0, 183]",183,l,0.5813922621309757,colour,0.14
017,73,1,1,7,35,335,575.9256682192208,577.1040537805529,"[75, 0, 179]",179,l,0.659326160675846,colour,0.14
017,73,1,1,7,36,336,577.612873573089,578.6002370166825,"[87, 0, 167]",167,l,0.471419760491699,colour,0.14
017,73,1,1,7,37,337,579.108801202965,580.0960744558834,"[72, 0, 182]",182,l,0.4695316617144272,colour,0.14
017,73,1,1,7,38,338,580.6048903099727,581.4960729592713,"[89, 0, 165]",165,l,0.37408105831127614,colour,0.14
017,73,1,1,7,39,339,582.0051353611052,582.6480700353859,"[41, 0, 213]",213,a,0.1258240247843787,colour,0.14
017,73,1,1,7,40,340,583.1588421235792,584.104054568219,"[77, 0, 177]",177,l,0.4252783114789054,colour,0.14
017,73,1,1,7,41,341,584.6127936223056,585.7840895574773,"[56, 0, 198]",198,a,0.6535563132492825,colour,0.14
017,73,1,1,7,42,342,586.2933815716533,587.1441323606996,"[78, 0, 176]",176,l,0.3340761272702366,colour,0.14
017,73,1,1,7,43,343,587.6534137410345,588.8800474349409,"[90, 0, 164]",164,l,0.707798785646446,colour,0.14
017,73,1,1,7,44,344,589.3899554244708,590.4720802407246,"[93, 0, 161]",161,l,0.5629543508403003,colour,0.14
017,73,1,1,7,45,345,590.9818629872752,592.1441776530119,"[58, 0, 196]",196,a,0.6445974929956719,colour,0.14
017,73,1,1,7,46,346,592.6533345779171,593.6240800736705,"[94, 0, 160]",160,l,0.4521071166964248,colour,0.14
017,73,1,1,7,47,347,594.1334295894485,595.2000703410013,"[67, 0, 187]",187,l,0.5488463849760592,colour,0.14
017,73,1,1,7,48,348,595.7097944044508,597.0321177663282,"[92, 0, 162]",162,l,0.8046168229775503,colour,0.14
017,73,1,1,7,49,349,597.542523971526,599.4080558096757,"[84, 0, 170]",170,l,1.3449966956395656,colour,0.14
017,73,1,1,7,50,350,599.9164088943508,600.9280730444007,"[95, 0, 159]",159,l,0.4951789283659309,colour,0.14
017,73,1,1,8,1,351,605.5573022636818,607.320098524564,"[60, 0, 194]",194,a,1.2435927125625312,colour,0.06
017,73,1,1,8,2,352,607.8292341817869,608.3684258202557,"[98, 0, 156]",156,l,0.022168422816321254,colour,0.06
017,73,1,1,8,3,353,608.8796760379337,609.8720826825593,"[69, 0, 185]",185,l,0.47327989630866796,colour,0.06
017,73,1,1,8,4,354,610.3815570474835,611.4080664435169,"[51, 0, 203]",203,a,0.5076772446045652,colour,0.06
017,73,1,1,8,5,355,611.9173163160449,612.8000927114626,"[89, 0, 165]",165,l,0.3644066194538027,colour,0.06
017,73,1,1,8,6,356,613.3090873716865,614.344081790885,"[76, 0, 178]",178,l,0.5183481143321842,colour,0.06
017,73,1,1,8,7,357,614.8531071711332,615.9120616196888,"[57, 0, 197]",197,a,0.5419737682677805,colour,0.06
017,73,1,1,8,8,358,616.4199243658222,617.62407259061,"[87, 0, 167]",167,l,0.6835477037820965,colour,0.06
017,73,1,1,8,9,359,618.1331767401425,620.960168361431,"[62, 0, 192]",192,l,2.3090869777370244,colour,0.06
017,73,1,1,8,10,360,621.4693178032758,623.008092358592,"[79, 0, 175]",175,l,1.020452040946111,colour,0.06
017,73,1,1,8,11,361,623.517172089545,624.776100780582,"[90, 0, 164]",164,l,0.7432150141103193,colour,0.06
017,73,1,1,8,12,362,625.2847673669457,626.5040436192648,"[0, 0, 254]",254,a,0.7014169011963531,colour,0.06
017,73,1,1,8,13,363,627.0125034363009,629.6561356122838,"[77, 0, 177]",177,l,2.127310794312507,colour,0.06
017,73,1,1,8,14,364,630.1656107649906,631.3121337722987,"[59, 0, 195]",195,l,0.6282201852882281,colour,0.06
017,73,1,1,8,15,365,631.8212686417392,633.0320760186296,"[30, 0, 224]",224,a,0.693370622699149,colour,0.06
017,73,1,1,8,16,366,633.5408501250204,635.8081224483903,"[55, 0, 199]",199,a,1.7509359755786136,colour,0.06
017,73,1,1,8,17,367,636.3172096625203,637.4808531654999,"[92, 0, 162]",162,l,0.6462189579615369,colour,0.06
017,73,1,1,8,18,368,637.9903913335875,639.000115397037,"[71, 0, 183]",183,l,0.49039133358746767,colour,0.06
017,73,1,1,8,19,369,639.5090785495704,640.1201038021827,"[78, 0, 176]",176,l,0.09480469557456672,colour,0.06
017,73,1,1,8,20,370,640.6289161115419,641.2641223412938,"[83, 0, 171]",171,l,0.11866153718438,colour,0.06
017,73,1,1,8,21,371,641.7730937645538,645.3920908587752,"[96, 0, 158]",158,l,3.1025693740230054,colour,0.06
017,73,1,1,8,22,372,645.9012194267707,647.1600693485234,"[80, 0, 174]",174,l,0.7416341153439134,colour,0.06
017,73,1,1,8,23,373,647.6702156150714,648.3680433955742,"[91, 0, 163]",163,l,0.17880658293142915,colour,0.06
017,73,1,1,8,24,374,648.8793369362829,649.5370810165768,"[64, 0, 190]",190,a,0.13708211935590953,colour,0.06
017,73,1,1,8,25,375,650.0482583725825,650.5764809997054,"[88, 0, 166]",166,l,0.009881995734758675,colour,0.06
017,73,1,1,8,26,376,651.0878714266,652.2560654289555,"[63, 0, 191]",191,a,0.6514496298041195,colour,0.06
017,73,1,1,8,27,377,652.7655563354492,654.5200684347656,"[67, 0, 187]",187,a,1.2357925879769027,colour,0.06
017,73,1,1,8,28,378,655.0282450764207,656.9281581151299,"[72, 0, 182]",182,a,1.3829256631433964,colour,0.06
017,73,1,1,8,29,379,657.4372449354269,658.208100865595,"[82, 0, 172]",172,l,0.2509123447816819,colour,0.06
017,73,1,1,8,30,380,658.7171762643848,659.4400948067196,"[99, 0, 155]",155,l,0.20561333280056715,colour,0.06
017,73,1,1,8,31,381,659.9491820208495,661.9921136230696,"[70, 0, 184]",184,l,1.5245082632172853,colour,0.06
017,73,1,1,8,32,382,662.5018065726617,664.0401435649255,"[54, 0, 200]",200,a,1.0182681636651978,colour,0.06
017,73,1,1,8,33,383,664.5497857083101,665.4400644805282,"[75, 0, 179]",179,l,0.37211734091397375,colour,0.06
017,73,1,1,8,34,384,665.9493186854525,666.9200696951011,"[86, 0, 168]",168,l,0.4533969631884247,colour,0.06
017,73,1,1,8,35,385,667.429016306065,668.7520844312385,"[84, 0, 170]",170,l,0.8061540048802271,colour,0.06
017,73,1,1,8,36,386,669.261229146854,670.5520692287246,"[58, 0, 196]",196,a,0.7744395370827988,colour,0.06
017,73,1,1,8,37,387,671.0611339936731,672.2321412395686,"[43, 0, 211]",211,a,0.6540501964045689,colour,0.06
017,73,1,1,8,38,388,672.7419330446282,674.6560745661845,"[66, 0, 188]",188,l,1.3933405329007655,colour,0.06
017,73,1,1,8,39,389,675.1652106172405,677.1760669886135,"[68, 0, 186]",186,l,1.4929832356283441,colour,0.06
017,73,1,1,8,40,390,677.685162867303,679.1442130992655,"[94, 0, 160]",160,l,0.9419750286033377,colour,0.06
017,73,1,1,8,41,391,679.6529631809099,681.9121431458043,"[73, 0, 181]",181,l,1.7422764784423634,colour,0.06
017,73,1,1,8,42,392,682.4211736461148,683.5121403101366,"[93, 0, 161]",161,l,0.5719639773014933,colour,0.06
017,73,1,1,8,43,393,684.0214201150229,685.1841569839744,"[53, 0, 201]",201,a,0.6444734315155074,colour,0.06
017,73,1,1,8,44,394,685.6932355334284,688.3201343646506,"[95, 0, 159]",159,l,2.1103789509506896,colour,0.06
017,73,1,1,8,45,395,688.8285162000684,690.0561128479894,"[50, 0, 204]",204,a,0.7099854197585955,colour,0.06
017,73,1,1,8,46,396,690.5661563207395,691.9840909753693,"[74, 0, 180]",180,l,0.8964070195797831,colour,0.06
017,73,1,1,8,47,397,692.4937067311257,694.8561764147598,"[56, 0, 198]",198,a,1.843752141459845,colour,0.06
017,73,1,1,8,48,398,695.3657023735577,696.3680709648179,"[81, 0, 173]",173,l,0.484971615485847,colour,0.06
017,73,1,1,8,49,399,696.8772696374217,697.6960791032761,"[85, 0, 169]",169,l,0.3007271976675838,colour,0.06
017,73,1,1,8,50,400,698.2051678927382,699.1681270485278,"[52, 0, 202]",202,a,0.44551334308926016,colour,0.06
017,73,1,1,9,1,401,703.8364659863291,704.8889790796675,"[67, 0, 187]",187,l,0.5341488312697038,colour,0.06
017,73,1,1,9,2,402,705.3992529525422,706.3201213676948,"[26, 0, 228]",228,a,0.40283813467249274,colour,0.06
017,73,1,1,9,3,403,706.8309867975768,708.0561207249993,"[87, 0, 167]",167,l,0.7050485573709011,colour,0.06
017,73,1,1,9,4,404,708.5668305854779,709.6640999708325,"[75, 0, 179]",179,l,0.5781772953923792,colour,0.06
017,73,1,1,9,5,405,710.1730773018207,711.3040945830289,"[79, 0, 175]",175,l,0.6138503117254004,colour,0.06
017,73,1,1,9,6,406,711.8141463265056,713.0481201326475,"[37, 0, 217]",217,a,0.7138959191506729,colour,0.06
017,73,1,1,9,7,407,713.5580072484445,714.6240836182842,"[63, 0, 191]",191,l,0.5468665199587122,colour,0.06
017,73,1,1,9,8,408,715.1332306970144,716.8961183303036,"[50, 0, 204]",204,a,1.2458352729445323,colour,0.06
017,73,1,1,9,9,409,717.4074823695701,718.6721234061988,"[93, 0, 161]",161,l,0.7432937832782045,colour,0.06
017,73,1,1,9,10,410,719.1816777220229,720.3521158602089,"[80, 0, 174]",174,l,0.6541801658459008,colour,0.06
017,73,1,1,9,11,411,720.8612365511945,722.0001181538682,"[97, 0, 157]",157,l,0.6198627682169899,colour,0.06
017,73,1,1,9,12,412,722.50991941127,724.9601124352776,"[59, 0, 195]",195,a,1.932235605083406,colour,0.06
017,73,1,1,9,13,413,725.4695623817388,727.8560779532418,"[70, 0, 184]",184,a,1.8686566140968353,colour,0.06
017,73,1,1,9,14,414,728.3654688227689,729.616110595176,"[12, 0, 242]",242,a,0.7319915778934956,colour,0.06
017,73,1,1,9,15,415,730.1260650587501,731.8721137964167,"[57, 0, 197]",197,a,1.2295272821793333,colour,0.06
017,73,1,1,9,16,416,732.3817417613463,733.4320863374742,"[58, 0, 196]",196,a,0.5327140495646745,colour,0.06
017,73,1,1,9,17,417,733.941578031634,734.5841066504363,"[91, 0, 163]",163,l,0.12455032602883875,colour,0.06
017,73,1,1,9,18,418,735.0931103691692,736.0960748497164,"[81, 0, 173]",173,l,0.4852335231844336,colour,0.06
017,73,1,1,9,19,419,736.6050033437787,738.4721243514214,"[72, 0, 182]",182,l,1.3502765981247649,colour,0.06
017,73,1,1,9,20,420,738.9815116764512,739.9361370459665,"[71, 0, 183]",183,l,0.43468099634628743,colour,0.06
017,73,1,1,9,21,421,740.4460631525144,741.8161053176736,"[62, 0, 192]",192,a,0.8515278476988897,colour,0.06
017,73,1,1,9,22,422,742.3260645073606,743.6562033538939,"[68, 0, 186]",186,l,0.8122609845595434,colour,0.06
017,73,1,1,9,23,423,744.1655509003904,746.4320930328686,"[55, 0, 199]",199,a,1.7492093537002802,colour,0.06
017,73,1,1,9,24,424,746.9414953239029,748.1280906099128,"[66, 0, 188]",188,a,0.6694964518537745,colour,0.06
017,73,1,1,9,25,425,748.6378985625925,750.3361138877226,"[54, 0, 200]",200,a,1.1785616105189547,colour,0.06
017,73,1,1,9,26,426,750.8452070095809,751.8561153686605,"[92, 0, 162]",162,l,0.49401590041816235,colour,0.06
017,73,1,1,9,27,427,752.36529946886,753.5282604363747,"[96, 0, 158]",158,l,0.6467754627810791,colour,0.06
017,73,1,1,9,28,428,754.03824168141,755.8081122083822,"[65, 0, 189]",189,a,1.2519808495417237,colour,0.06
017,73,1,1,9,29,429,756.3184735151008,757.4880845762091,"[73, 0, 181]",181,l,0.6519561160821468,colour,0.06
017,73,1,1,9,30,430,757.9971083810087,759.1521175930975,"[83, 0, 171]",171,l,0.6370131962466985,colour,0.06
017,73,1,1,9,31,431,759.6614273303421,760.6321527399123,"[82, 0, 172]",172,l,0.4526817384175956,colour,0.06
017,73,1,1,9,32,432,761.1413340832805,762.0721349065425,"[89, 0, 165]",165,l,0.41219080111477524,colour,0.06
017,73,1,1,9,33,433,762.5819377392763,763.6321007522056,"[52, 0, 202]",202,a,0.5296629227232188,colour,0.06
017,73,1,1,9,34,434,764.1413616525242,766.9121045488864,"[69, 0, 185]",185,a,2.2528484928188846,colour,0.06
017,73,1,1,9,35,435,767.4218451539055,768.5041873732116,"[98, 0, 156]",156,l,0.5660346222575754,colour,0.06
017,73,1,1,9,36,436,769.0125885071466,769.912145902752,"[76, 0, 178]",178,l,0.3812313366215676,colour,0.06
017,73,1,1,9,37,437,770.4214249199722,771.8321250131121,"[85, 0, 169]",169,l,0.892828926560469,colour,0.06
017,73,1,1,9,38,438,772.3418923997087,773.5201113639632,"[74, 0, 180]",180,l,0.6592674774583429,colour,0.06
017,73,1,1,9,39,439,774.0313726093154,774.9364812675631,"[88, 0, 166]",166,l,0.3838275709422305,colour,0.06
017,73,1,1,9,40,440,775.446081269416,776.3681040479569,"[78, 0, 176]",176,l,0.40534890443086624,colour,0.06
017,73,1,1,9,41,441,776.8773027204443,777.5526292781578,"[90, 0, 164]",164,l,0.1555625661276281,colour,0.06
017,73,1,1,9,42,442,778.0624124185415,778.8801336871693,"[56, 0, 198]",198,a,0.29998834209982306,colour,0.06
017,73,1,1,9,43,443,779.3893630797975,780.0721262419829,"[51, 0, 203]",203,a,0.16574546042829752,colour,0.06
017,73,1,1,9,44,444,780.5814930868801,781.2721481397748,"[61, 0, 193]",193,a,0.1720277015119791,colour,0.06
017,73,1,1,9,45,445,781.7812298400095,782.3761105479207,"[84, 0, 170]",170,l,0.07795713527593762,colour,0.06
017,73,1,1,9,46,446,782.8852851958945,783.632180309156,"[94, 0, 160]",160,l,0.22986362676601857,colour,0.06
017,73,1,1,9,47,447,784.1419874741696,785.2721426259959,"[77, 0, 177]",177,l,0.6113352096872404,colour,0.06
017,73,1,1,9,48,448,785.7820840924978,786.7762126328889,"[53, 0, 201]",201,a,0.474282628740184,colour,0.06
017,73,1,1,9,49,449,787.2853967332048,788.4481186360354,"[99, 0, 155]",155,l,0.6408512277994305,colour,0.06
017,73,1,1,9,50,450,788.9585071180481,790.5521223980468,"[64, 0, 190]",190,a,1.072932445211336,colour,0.06
017,73,1,1,10,1,451,797.6204113960266,798.5281249532709,"[83, 0, 171]",171,l,0.3887419842649251,colour,0.06
017,73,1,1,10,2,452,799.0379588998621,800.0160834986018,"[78, 0, 176]",176,l,0.45898997341282666,colour,0.06
017,73,1,1,10,3,453,800.5258028359385,801.5361200317275,"[97, 0, 157]",157,l,0.493375112535432,colour,0.06
017,73,1,1,10,4,454,802.0459780029487,802.8481246224837,"[50, 0, 204]",204,a,0.28412342828232795,colour,0.06
017,73,1,1,10,5,455,803.3574008827563,804.4241574250627,"[53, 0, 201]",201,a,0.5483162679011002,colour,0.06
017,73,1,1,10,6,456,804.933104036143,806.2801306152251,"[63, 0, 191]",191,a,0.8281794615322724,colour,0.06
017,73,1,1,10,7,457,806.7898724017432,808.7681939236354,"[67, 0, 187]",187,a,1.4585563488071784,colour,0.06
017,73,1,1,10,8,458,809.277372116223,810.5360893118195,"[79, 0, 175]",175,l,0.7420724661787972,colour,0.06
017,73,1,1,10,9,459,811.0464336830191,812.1201715436764,"[92, 0, 162]",162,l,0.5550329216057435,colour,0.06
017,73,1,1,10,10,460,812.6287924438948,813.6162641952978,"[94, 0, 160]",160,l,0.4673670828342438,colour,0.06
017,73,1,1,10,11,461,814.1251422769856,815.1281473237323,"[74, 0, 180]",180,l,0.4849818554939702,colour,0.06
017,73,1,1,10,12,462,815.6371337132296,816.9601600907044,"[66, 0, 188]",188,a,0.8048661277862266,colour,0.06
017,73,1,1,10,13,463,817.4699668617686,818.4321221774444,"[96, 0, 158]",158,l,0.44390211813151836,colour,0.06
017,73,1,1,10,14,464,818.9420215025311,820.0242002755404,"[93, 0, 161]",161,l,0.564740443485789,colour,0.06
017,73,1,1,10,15,465,820.5336348620476,821.8561015840387,"[65, 0, 189]",189,a,0.805165450903587,colour,0.06
017,73,1,1,10,16,466,822.3668071122374,823.5841247673379,"[89, 0, 165]",165,l,0.6964465617202222,colour,0.06
017,73,1,1,10,17,467,824.0929922153009,825.2801187997684,"[80, 0, 174]",174,l,0.6703566119540483,colour,0.06
017,73,1,1,10,18,468,825.789388364763,826.7281484265113,"[57, 0, 197]",197,a,0.42227799084503204,colour,0.06
017,73,1,1,10,19,469,827.2367740528425,828.2401993335225,"[59, 0, 195]",195,a,0.482995689031668,colour,0.06
017,73,1,1,10,20,470,828.7485094889998,829.6241340306588,"[62, 0, 192]",192,a,0.3574749258114025,colour,0.06
017,73,1,1,10,21,471,830.1333035585703,830.7761181098176,"[85, 0, 169]",169,l,0.12572438165079802,colour,0.06
017,73,1,1,10,22,472,831.2851352192229,832.2321597504197,"[5, 0, 249]",249,a,0.42972719855606556,colour,0.06
017,73,1,1,10,23,473,832.742629364715,833.7283733127406,"[61, 0, 193]",193,a,0.4652651255019009,colour,0.06
017,73,1,1,10,24,474,834.2375333883101,835.480113128433,"[77, 0, 177]",177,l,0.7229138162219897,colour,0.06
017,73,1,1,10,25,475,835.9892436655937,836.9041480673477,"[98, 0, 156]",156,l,0.3976098260609433,colour,0.06
017,73,1,1,10,26,476,837.4126023704885,838.4401408866979,"[87, 0, 167]",167,l,0.5085752139566466,colour,0.06
017,73,1,1,10,27,477,838.9496605439344,840.0481071356917,"[60, 0, 194]",194,a,0.5781075846171007,colour,0.06
017,73,1,1,10,28,478,840.557166780578,841.4801556637976,"[84, 0, 170]",170,l,0.4052598951384425,colour,0.06
017,73,1,1,10,29,479,841.9894173517823,842.9361291689565,"[88, 0, 166]",166,l,0.4286082813050598,colour,0.06
017,73,1,1,10,30,480,843.4457126293564,844.4321406881791,"[54, 0, 200]",200,a,0.46889756922610104,colour,0.06
017,73,1,1,10,31,481,844.9405433975626,845.9361910028383,"[99, 0, 155]",155,l,0.47939081443473697,colour,0.06
017,73,1,1,10,32,482,846.4458670170279,847.464189531398,"[76, 0, 178]",178,l,0.500419839983806,colour,0.06
017,73,1,1,10,33,483,847.973368117935,849.2481187934754,"[68, 0, 186]",186,a,0.7570421674754471,colour,0.06
017,73,1,1,10,34,484,849.7573812692426,850.8241508085048,"[55, 0, 199]",199,a,0.5498577820835635,colour,0.06
017,73,1,1,10,35,485,851.3332884348929,852.3041213646065,"[72, 0, 182]",182,l,0.45275066152680665,colour,0.06
017,73,1,1,10,36,486,852.8131636801409,853.6641539277043,"[81, 0, 173]",173,l,0.33123216358944774,colour,0.06
017,73,1,1,10,37,487,854.1732966741547,855.4001276850468,"[75, 0, 179]",179,l,0.7087089641718194,colour,0.06
017,73,1,1,10,38,488,855.9092310467968,857.0241289894329,"[69, 0, 185]",185,l,0.5985399333294481,colour,0.06
017,73,1,1,10,39,489,857.5342803760432,858.4641615683213,"[82, 0, 172]",172,l,0.40965994528960437,colour,0.06
017,73,1,1,10,40,490,858.9736650779378,860.1601422100794,"[58, 0, 196]",196,a,0.6669317252235487,colour,0.06
017,73,1,1,10,41,491,860.669272353407,861.7361112096114,"[73, 0, 181]",181,l,0.5482241079444066,colour,0.06
017,73,1,1,10,42,492,862.2460570085095,863.9121478720335,"[14, 0, 240]",240,a,1.1458881272701547,colour,0.06
017,73,1,1,10,43,493,864.4204202182591,865.6241044921335,"[90, 0, 164]",164,l,0.6837379315402359,colour,0.06
017,73,1,1,10,44,494,866.1338825125713,867.8641600717092,"[70, 0, 184]",184,l,1.2122846940765157,colour,0.06
017,73,1,1,10,45,495,868.374303975259,869.912155355094,"[71, 0, 183]",183,a,1.0190499484306201,colour,0.06
017,73,1,1,10,46,496,870.4219526739325,871.744138977374,"[4, 0, 250]",250,a,0.8039657953195274,colour,0.06
017,73,1,1,10,47,497,872.253528665402,873.1921304009156,"[52, 0, 202]",202,a,0.42143909831065685,colour,0.06
017,73,1,1,10,48,498,873.7019478059374,874.8081929468317,"[51, 0, 203]",203,a,0.5880443250061944,colour,0.06
017,73,1,1,10,49,499,875.3171911517857,876.7921578914393,"[64, 0, 190]",190,a,0.9558254190487787,colour,0.06
017,73,1,1,10,50,500,877.3024357026443,877.8883977626683,"[86, 0, 168]",168,l,0.06497911433689296,colour,0.06
017,73,1,1,11,1,501,882.4206647967221,883.1122213636991,"[81, 0, 173]",173,l,0.17291109869256616,colour,0.06
017,73,1,1,11,2,502,883.6213782886043,884.9921384353656,"[57, 0, 197]",197,a,0.8515573861077428,colour,0.06
017,73,1,1,11,3,503,885.5012504617916,886.728127158829,"[89, 0, 165]",165,l,0.7099680906394497,colour,0.06
017,73,1,1,11,4,504,887.2374483175809,889.6802157647908,"[65, 0, 189]",189,a,1.9244122436502948,colour,0.06
017,73,1,1,11,5,505,890.1908342529787,891.6641121800058,"[62, 0, 192]",192,a,0.9536072770133615,colour,0.06
017,73,1,1,11,6,506,892.1745640713489,893.4081873542164,"[91, 0, 163]",163,l,0.7140566082671285,colour,0.06
017,73,1,1,11,7,507,893.9172643283382,895.2401304104133,"[97, 0, 157]",157,l,0.8061937834136188,colour,0.06
017,73,1,1,11,8,508,895.7492160490947,897.0321843264392,"[80, 0, 174]",174,l,0.7645721137523651,colour,0.06
017,73,1,1,11,9,509,897.5422640329925,898.7601401620777,"[55, 0, 199]",199,a,0.6988383899442852,colour,0.06
017,73,1,1,11,10,510,899.2693451361265,900.2321172149386,"[77, 0, 177]",177,l,0.4458461431786418,colour,0.06
017,73,1,1,11,11,511,900.7415785830235,901.9842177939136,"[98, 0, 156]",156,l,0.7239846842130646,colour,0.06
017,73,1,1,11,12,512,902.4950643191114,903.6001964505995,"[74, 0, 180]",180,l,0.5849762629950419,colour,0.06
017,73,1,1,11,13,513,904.1099996770499,905.5521448472282,"[52, 0, 202]",202,a,0.9241373388795182,colour,0.06
017,73,1,1,11,14,514,906.0611796798185,907.4481714114081,"[88, 0, 166]",166,l,0.8684136110823601,colour,0.06
017,73,1,1,11,15,515,907.9573330624262,909.1681286239764,"[82, 0, 172]",172,l,0.6938499335665256,colour,0.06
017,73,1,1,11,16,516,909.6784796905704,912.2481270643184,"[71, 0, 183]",183,l,2.0509727608878165,colour,0.06
017,73,1,1,11,17,517,912.7571418107254,914.1681290178094,"[56, 0, 198]",198,a,0.8947126931743696,colour,0.06
017,73,1,1,11,18,518,914.6773166626226,915.6801751985913,"[8, 0, 246]",246,a,0.48497004015371203,colour,0.06
017,73,1,1,11,19,519,916.1892998281401,917.2321656580316,"[51, 0, 203]",203,a,0.5254460111027583,colour,0.06
017,73,1,1,11,20,520,917.741366299917,918.7201395634329,"[99, 0, 155]",155,l,0.46069887233898044,colour,0.06
017,73,1,1,11,21,521,919.2291243774816,920.2401465581497,"[94, 0, 160]",160,l,0.4930241955444217,colour,0.06
017,73,1,1,11,22,522,920.749188873684,922.2001207532594,"[76, 0, 178]",178,l,0.9314538203179836,colour,0.06
017,73,1,1,11,23,523,922.7092213581782,923.7281822973164,"[75, 0, 179]",179,l,0.5008518893737346,colour,0.06
017,73,1,1,11,24,524,924.2372336713597,924.9921396169811,"[85, 0, 169]",169,l,0.23487965238746256,colour,0.06
017,73,1,1,11,25,525,925.501641157316,926.5121399163036,"[66, 0, 188]",188,a,0.491609106073156,colour,0.06
017,73,1,1,11,26,526,927.0216595735401,928.0001988924341,"[73, 0, 181]",181,a,0.4615302816964686,colour,0.06
017,73,1,1,11,27,527,928.5098646666156,929.4241101635853,"[68, 0, 186]",186,a,0.39793199219275266,colour,0.06
017,73,1,1,11,28,528,929.934074079385,930.7363132527098,"[67, 0, 187]",187,a,0.28353462810628116,colour,0.06
017,73,1,1,11,29,529,931.2457513838308,932.0961398343788,"[60, 0, 194]",194,a,0.33165791153442115,colour,0.06
017,73,1,1,11,30,530,932.6055145561695,933.2881516875932,"[79, 0, 175]",175,a,0.16586203884799033,colour,0.06
017,73,1,1,11,31,531,933.7980892156484,934.7121405464131,"[69, 0, 185]",185,a,0.3946083238115534,colour,0.06
017,73,1,1,11,32,532,935.2212710835738,935.8484723886941,"[86, 0, 168]",168,l,0.1071734365541488,colour,0.06
017,73,1,1,11,33,533,936.358129892149,936.9125763766933,"[92, 0, 162]",162,l,0.03648315800819546,colour,0.06
017,73,1,1,11,34,534,937.4225414739922,938.6401781445602,"[78, 0, 176]",176,l,0.6999450977891684,colour,0.06
017,73,1,1,11,35,535,939.1492606324609,940.2881178167881,"[53, 0, 201]",201,a,0.6210549407405779,colour,0.06
017,73,1,1,11,36,536,940.7989092034986,941.9201555534964,"[11, 0, 243]",243,a,0.6019463092088699,colour,0.06
017,73,1,1,11,37,537,942.4290509645361,943.7761681282427,"[72, 0, 182]",182,l,0.8308970005018637,colour,0.06
017,73,1,1,11,38,538,944.2855830223998,946.200172347133,"[64, 0, 190]",190,l,1.396523991948925,colour,0.06
017,73,1,1,11,39,539,946.7109621585114,947.7201324742055,"[83, 0, 171]",171,l,0.48919010255485773,colour,0.06
017,73,1,1,11,40,540,948.2287525866413,949.1842589902226,"[90, 0, 164]",164,l,0.43862260947935283,colour,0.06
017,73,1,1,11,41,541,949.6937825859059,950.7601637927582,"[50, 0, 204]",204,a,0.5492961573181674,colour,0.06
017,73,1,1,11,42,542,951.2700253085932,952.2241138657555,"[96, 0, 158]",158,l,0.4371283568907529,colour,0.06
017,73,1,1,11,43,543,952.7332081689965,953.7124217526289,"[95, 0, 159]",159,l,0.46110492770094424,colour,0.06
017,73,1,1,11,44,544,954.2219949730206,955.5601395318517,"[63, 0, 191]",191,a,0.8205049738753587,colour,0.06
017,73,1,1,11,45,545,956.0692933059763,957.1041475159582,"[59, 0, 195]",195,a,0.5176250126678497,colour,0.06
017,73,1,1,11,46,546,957.6140196655178,958.6321283214493,"[70, 0, 184]",184,l,0.49889132287353277,colour,0.06
017,73,1,1,11,47,547,959.1413892217679,960.168171159341,"[22, 0, 232]",232,a,0.5096519896760583,colour,0.06
017,73,1,1,11,48,548,960.677405671915,961.7521494159009,"[87, 0, 167]",167,l,0.5579808606998995,colour,0.06
017,73,1,1,11,49,549,962.2628573072143,963.3201619338943,"[84, 0, 170]",170,l,0.536238185595721,colour,0.06
017,73,1,1,11,50,550,963.8295354741858,965.2241528565064,"[61, 0, 193]",193,a,0.8772656989749521,colour,0.06
017,73,1,1,12,1,551,970.3404749471229,971.4161473804852,"[66, 0, 188]",188,l,0.5577020175987855,colour,0.06
017,73,1,1,12,2,552,971.9257217823761,972.8961703180103,"[76, 0, 178]",178,l,0.4521236582659185,colour,0.06
017,73,1,1,12,3,553,973.4053162152413,974.3121715815505,"[57, 0, 197]",197,a,0.3892512274906039,colour,0.06
017,73,1,1,12,4,554,974.821242254111,975.7844054221641,"[53, 0, 201]",201,a,0.44501945993397385,colour,0.06
017,73,1,1,12,5,555,976.293515873258,977.3841383156832,"[41, 0, 213]",213,a,0.5702700446126983,colour,0.06
017,73,1,1,12,6,556,977.8932885451941,978.8241740454687,"[10, 0, 244]",244,a,0.4136220384389162,colour,0.06
017,73,1,1,12,7,557,979.3333175795851,980.304397844593,"[69, 0, 185]",185,l,0.4529460092308,colour,0.06
017,73,1,1,12,8,558,980.8146441481076,981.9282475182554,"[75, 0, 179]",179,l,0.5956762772984803,colour,0.06
017,73,1,1,12,9,559,982.4374406769639,983.6881501909811,"[82, 0, 172]",172,l,0.7317005256190896,colour,0.06
017,73,1,1,12,10,560,984.1974926174153,985.5361416933592,"[58, 0, 196]",196,a,0.8205388446804136,colour,0.06
017,73,1,1,12,11,561,986.0460603168467,987.0561561711365,"[83, 0, 171]",171,l,0.49372642335947603,colour,0.06
017,73,1,1,12,12,562,987.5658743268577,988.5041751639219,"[96, 0, 158]",158,l,0.4187692147679627,colour,0.06
017,73,1,1,12,13,563,989.0126956333406,989.968204006087,"[93, 0, 161]",161,l,0.43835006782319397,colour,0.06
017,73,1,1,12,14,564,990.4781167218462,991.4481631405652,"[86, 0, 168]",168,l,0.45103427954018116,colour,0.06
017,73,1,1,12,15,565,991.9572113639442,993.0881920173997,"[79, 0, 175]",175,l,0.6128731791395694,colour,0.06
017,73,1,1,12,16,566,993.5981224563438,994.8001714807469,"[72, 0, 182]",182,l,0.6820258820662275,colour,0.06
017,73,1,1,12,17,567,995.3100436303066,996.4401523082051,"[74, 0, 180]",180,l,0.6093120215227827,colour,0.06
017,73,1,1,12,18,568,996.9492340085562,997.9121864689514,"[89, 0, 165]",165,l,0.44544166314881295,colour,0.06
017,73,1,1,12,19,569,998.4216616215417,999.384453392704,"[97, 0, 157]",157,l,0.4446315214736387,colour,0.06
017,73,1,1,12,20,570,999.8941494930768,1001.1041297928896,"[77, 0, 177]",177,l,0.6932410473236814,colour,0.06
017,73,1,1,12,21,571,1001.613926324062,1002.6321617984213,"[51, 0, 203]",203,a,0.499278079951182,colour,0.06
017,73,1,1,12,22,572,1003.1413163602119,1004.1921745117288,"[54, 0, 200]",200,a,0.5333721665665507,colour,0.06
017,73,1,1,12,23,573,1004.7015137873823,1005.9601423676359,"[70, 0, 184]",184,a,0.7405411920044571,colour,0.06
017,73,1,1,12,24,574,1006.4692020124057,1007.7521309050499,"[60, 0, 194]",194,a,0.7648458367912099,colour,0.06
017,73,1,1,12,25,575,1008.2611976391636,1009.3841328017879,"[65, 0, 189]",189,a,0.6048387159826234,colour,0.06
017,73,1,1,12,26,576,1009.89320544363,1010.9521721013589,"[80, 0, 174]",174,l,0.5404834541259333,colour,0.06
017,73,1,1,12,27,577,1011.4628012235044,1012.5521499672905,"[52, 0, 202]",202,a,0.5703299093293026,colour,0.06
017,73,1,1,12,28,578,1013.0619004183682,1014.4801745684817,"[55, 0, 199]",199,a,0.901960251503624,colour,0.06
017,73,1,1,12,29,579,1014.9904129951028,1016.1601300007896,"[99, 0, 155]",155,l,0.6495855555403978,colour,0.06
017,73,1,1,12,30,580,1016.6691876763944,1017.7441452789353,"[50, 0, 204]",204,a,0.5576539683388546,colour,0.06
017,73,1,1,12,31,581,1018.253358523827,1020.2721792536322,"[95, 0, 159]",159,l,1.5000957045704126,colour,0.06
017,73,1,1,12,32,582,1020.7812262953958,1022.0482359234011,"[64, 0, 190]",190,l,0.7508658709703013,colour,0.06
017,73,1,1,12,33,583,1022.5572817836655,1023.752208492835,"[62, 0, 192]",192,a,0.6771016225684434,colour,0.06
017,73,1,1,12,34,584,1024.2608569621807,1025.9921998754144,"[71, 0, 183]",183,l,1.2135138881858438,colour,0.06
017,73,1,1,12,35,585,1026.5029971698532,1027.4322115805699,"[59, 0, 195]",195,a,0.4081716004293412,colour,0.06
017,73,1,1,12,36,586,1027.9414831147296,1028.864148256369,"[94, 0, 160]",160,l,0.4054619383532554,colour,0.06
017,73,1,1,12,37,587,1029.373406793573,1030.4403996437322,"[98, 0, 156]",156,l,0.549442274379544,colour,0.06
017,73,1,1,12,38,588,1030.9496341563063,1031.952206365997,"[88, 0, 166]",166,l,0.48515278473496437,colour,0.06
017,73,1,1,12,39,589,1032.4610237954184,1033.5601702518761,"[13, 0, 241]",241,a,0.5803560527274385,colour,0.06
017,73,1,1,12,40,590,1034.0687793366378,1035.9364253414096,"[91, 0, 163]",163,l,1.3509985184064135,colour,0.06
017,73,1,1,12,41,591,1036.4453443831299,1037.4801509376848,"[84, 0, 170]",170,l,0.5182457143673673,colour,0.06
017,73,1,1,12,42,592,1037.989265327109,1039.0642067819135,"[67, 0, 187]",187,l,0.5586452792631462,colour,0.06
017,73,1,1,12,43,593,1039.5734160883585,1040.6401805076748,"[56, 0, 198]",198,a,0.5497156037017703,colour,0.06
017,73,1,1,12,44,594,1041.1495934325503,1042.088179414277,"[63, 0, 191]",191,a,0.4214288583025336,colour,0.06
017,73,1,1,12,45,595,1042.5978680315893,1043.728248463478,"[87, 0, 167]",167,l,0.6102875786600634,colour,0.06
017,73,1,1,12,46,596,1044.2375629268354,1045.688163975603,"[73, 0, 181]",181,l,0.9314613034948707,colour,0.06
017,73,1,1,12,47,597,1046.1970865619369,1047.6482149707153,"[61, 0, 193]",193,a,0.9335163929499686,colour,0.06
017,73,1,1,12,48,598,1048.1570725725032,1049.2241268625949,"[92, 0, 162]",162,l,0.5484521448379382,colour,0.06
017,73,1,1,12,49,599,1049.7341148030246,1051.5521527241217,"[85, 0, 169]",169,l,1.3000182744581252,colour,0.06
017,73,1,1,12,50,600,1052.0615467444295,1053.4801725992002,"[78, 0, 176]",176,l,0.899962269468233,colour,0.06
017,73,1,1,13,1,601,1058.3886029565474,1060.0001925908728,"[86, 0, 168]",168,l,1.0925408675102517,colour,0.06
017,73,1,1,13,2,602,1060.511625946965,1061.7921886114636,"[75, 0, 179]",179,l,0.7607321129180491,colour,0.06
017,73,1,1,13,3,603,1062.3036270875018,1064.4481934667565,"[66, 0, 188]",188,a,1.6235586212715134,colour,0.06
017,73,1,1,13,4,604,1064.957746994798,1066.024153407896,"[80, 0, 174]",174,l,0.5464762183837593,colour,0.06
017,73,1,1,13,5,605,1066.5341815205757,1067.760185060557,"[79, 0, 175]",175,l,0.7089984412305057,colour,0.06
017,73,1,1,13,6,606,1068.2709717211546,1069.1681691900594,"[71, 0, 183]",183,l,0.37670289259403944,colour,0.06
017,73,1,1,13,7,607,1069.6789448229829,1070.8722063502064,"[85, 0, 169]",169,l,0.6742793204030022,colour,0.06
017,73,1,1,13,8,608,1071.3813467336586,1072.304183198372,"[99, 0, 155]",155,l,0.4049857781501487,colour,0.06
017,73,1,1,13,9,609,1072.8137859571725,1073.7363853265997,"[55, 0, 199]",199,a,0.4049739628098905,colour,0.06
017,73,1,1,13,10,610,1074.2471353594447,1075.1761804162525,"[64, 0, 190]",190,a,0.4083795511396602,colour,0.06
017,73,1,1,13,11,611,1075.6862758767093,1076.6165150753222,"[59, 0, 195]",195,a,0.41107306559570134,colour,0.06
017,73,1,1,13,12,612,1077.1260418217862,1078.040215638699,"[69, 0, 185]",185,a,0.39740699518006295,colour,0.06
017,73,1,1,13,13,613,1078.549311517505,1079.3046774754766,"[51, 0, 203]",203,a,0.23684691439848393,colour,0.06
017,73,1,1,13,14,614,1079.814547262038,1080.440183816012,"[83, 0, 171]",171,l,0.1073841443285346,colour,0.06
017,73,1,1,13,15,615,1080.9514533319743,1081.9841658062069,"[94, 0, 160]",160,l,0.511939448537305,colour,0.06
017,73,1,1,13,16,616,1082.494551137439,1083.480170630035,"[97, 0, 157]",157,l,0.46560540865175426,colour,0.06
017,73,1,1,13,17,617,1083.9896379057318,1084.9522225137334,"[98, 0, 156]",156,l,0.4446051337290555,colour,0.06
017,73,1,1,13,18,618,1085.4615031062858,1086.38414225413,"[88, 0, 166]",166,l,0.4056765844579786,colour,0.06
017,73,1,1,13,19,619,1086.8935622683493,1087.8001592714572,"[90, 0, 164]",164,l,0.387966894893907,colour,0.06
017,73,1,1,13,20,620,1088.310908122803,1089.6722577078035,"[91, 0, 163]",163,l,0.840006269980222,colour,0.06
017,73,1,1,13,21,621,1090.1826268914156,1091.1522010884946,"[68, 0, 186]",186,a,0.44970780552830547,colour,0.06
017,73,1,1,13,22,622,1091.6612678226084,1092.736161621986,"[60, 0, 194]",194,a,0.558133673039265,colour,0.06
017,73,1,1,13,23,623,1093.2451066575013,1094.2642231659265,"[58, 0, 196]",196,a,0.5018112987745553,colour,0.06
017,73,1,1,13,24,624,1094.773220189265,1095.752165563521,"[81, 0, 173]",173,l,0.4626893710810691,colour,0.06
017,73,1,1,13,25,625,1096.261179916095,1097.4161296574166,"[92, 0, 162]",162,l,0.637540556374006,colour,0.06
017,73,1,1,13,26,626,1097.925229474553,1099.3041757153114,"[62, 0, 192]",192,a,0.8610486864345148,colour,0.06
017,73,1,1,13,27,627,1099.812521316926,1101.1681676147273,"[56, 0, 198]",198,a,0.8395155376056209,colour,0.06
017,73,1,1,13,28,628,1101.6774950750405,1102.9681650153361,"[57, 0, 197]",197,a,0.7713927426375449,colour,0.06
017,73,1,1,13,29,629,1103.4773920448497,1104.5441651287256,"[52, 0, 202]",202,a,0.548832600354217,colour,0.06
017,73,1,1,13,30,630,1105.054108958342,1106.224196179537,"[93, 0, 161]",161,l,0.6506276726722717,colour,0.06
017,73,1,1,13,31,631,1106.7332806367194,1107.9841701384867,"[40, 0, 214]",214,a,0.7326158243231475,colour,0.06
017,73,1,1,13,32,632,1108.4939044419443,1109.640167116886,"[30, 0, 224]",224,a,0.6269705111626536,colour,0.06
017,73,1,1,13,33,633,1110.1489601278445,1111.4722098161,"[89, 0, 165]",165,l,0.8046101276995614,colour,0.06
017,73,1,1,13,34,634,1111.9815601195442,1113.3282680769917,"[78, 0, 176]",176,l,0.8271684582578018,colour,0.06
017,73,1,1,13,35,635,1113.8395190823358,1115.2641530613182,"[65, 0, 189]",189,l,0.9039515380281955,colour,0.06
017,73,1,1,13,36,636,1115.7740701093571,1118.2721603490645,"[53, 0, 201]",201,l,1.9802521561505273,colour,0.06
017,73,1,1,13,37,637,1118.7809372122865,1119.8401464793133,"[50, 0, 204]",204,a,0.5404137433506548,colour,0.06
017,73,1,1,13,38,638,1120.3492671704153,1121.5602017595666,"[0, 0, 254]",254,a,0.6933859826531261,colour,0.06
017,73,1,1,13,39,639,1122.0693590783048,1123.400197395822,"[95, 0, 159]",159,l,0.8135413787094876,colour,0.06
017,73,1,1,13,40,640,1123.9093621976208,1125.94428769371,"[61, 0, 193]",193,l,1.5173556219087914,colour,0.06
017,73,1,1,13,41,641,1126.4543429818004,1127.744148429716,"[72, 0, 182]",182,l,0.7715034135617316,colour,0.06
017,73,1,1,13,42,642,1128.2535857730545,1129.5681850226829,"[82, 0, 172]",172,l,0.7983282802160829,colour,0.06
017,73,1,1,13,43,643,1130.0771777137415,1131.264206624357,"[67, 0, 187]",187,l,0.6708437997149304,colour,0.06
017,73,1,1,13,44,644,1131.7735459000105,1132.9762258661212,"[70, 0, 184]",184,l,0.6857579689240083,colour,0.06
017,73,1,1,13,45,645,1133.4853059910238,1134.5282261717366,"[77, 0, 177]",177,l,0.524906441802159,colour,0.06
017,73,1,1,13,46,646,1135.0372424934758,1135.952191399876,"[76, 0, 178]",178,l,0.3977299490943551,colour,0.06
017,73,1,1,13,47,647,1136.4611703061964,1137.6562226522947,"[96, 0, 158]",158,l,0.6779850196326151,colour,0.06
017,73,1,1,13,48,648,1138.1656198233832,1139.328250747756,"[63, 0, 191]",191,a,0.6437905021011829,colour,0.06
017,73,1,1,13,49,649,1139.8372099618427,1140.928256970481,"[84, 0, 170]",170,l,0.5738410482881591,colour,0.06
017,73,1,1,13,50,650,1141.4377632370451,1142.7441799374064,"[73, 0, 181]",181,l,0.7879713060101494,colour,0.06
017,73,1,1,14,1,651,1147.8365329401568,1148.9601463060826,"[81, 0, 173]",173,l,0.6044968575006351,colour,0.06
017,73,1,1,14,2,652,1149.4691992555745,1150.5361932871165,"[79, 0, 175]",175,l,0.550008625141345,colour,0.06
017,73,1,1,14,3,653,1151.0454230735777,1152.0322445848724,"[53, 0, 201]",201,a,0.4687754769111052,colour,0.06
017,73,1,1,14,4,654,1152.5417914175196,1153.5921883750707,"[91, 0, 163]",163,l,0.5332965480629355,colour,0.06
017,73,1,1,14,5,655,1154.1014055585256,1155.2402265089331,"[90, 0, 164]",164,l,0.6206607007188722,colour,0.06
017,73,1,1,14,6,656,1155.749924578471,1156.984207159956,"[98, 0, 156]",156,l,0.7145532483700663,colour,0.06
017,73,1,1,14,7,657,1157.4932589279488,1158.7122161649168,"[80, 0, 174]",174,l,0.6981456143548712,colour,0.06
017,73,1,1,14,8,658,1159.2214101112913,1160.4802088331198,"[51, 0, 203]",203,a,0.7392517394619063,colour,0.06
017,73,1,1,14,9,659,1160.9893279486569,1162.2801873290446,"[14, 0, 240]",240,a,0.772157198167406,colour,0.06
017,73,1,1,14,10,660,1162.7892190108541,1163.8403217409505,"[75, 0, 179]",179,l,0.5322961787460372,colour,0.06
017,73,1,1,14,11,661,1164.3494991457555,1165.464198196074,"[94, 0, 160]",160,l,0.5973276745062321,colour,0.06
017,73,1,1,14,12,662,1165.9733035271056,1167.0481851171935,"[60, 0, 194]",194,a,0.5584400852676481,colour,0.06
017,73,1,1,14,13,663,1167.557338103652,1169.760186635889,"[69, 0, 185]",185,a,1.6861336982110515,colour,0.06
017,73,1,1,14,14,664,1170.2693656161427,1171.4242373758461,"[50, 0, 204]",204,a,0.6359509929316118,colour,0.06
017,73,1,1,14,15,665,1171.9335471130908,1173.1842444178183,"[58, 0, 196]",196,a,0.7333708273945376,colour,0.06
017,73,1,1,14,16,666,1173.6950665246695,1175.0162725447444,"[84, 0, 170]",170,l,0.8011620038887486,colour,0.06
017,73,1,1,14,17,667,1175.525318798842,1176.7601803343277,"[86, 0, 168]",168,l,0.7173223812133074,colour,0.06
017,73,1,1,14,18,668,1177.2693750684848,1178.3842564695515,"[74, 0, 180]",180,l,0.5977136438013986,colour,0.06
017,73,1,1,14,19,669,1178.8943377515534,1180.8641797640594,"[67, 0, 187]",187,l,1.4521059351973236,colour,0.06
017,73,1,1,14,20,670,1181.3732134150341,1182.9841965261148,"[85, 0, 169]",169,l,1.0946952062658966,colour,0.06
017,73,1,1,14,21,671,1183.4928579925327,1185.1041802051477,"[52, 0, 202]",202,a,1.0950240679085255,colour,0.06
017,73,1,1,14,22,672,1185.6142079241108,1187.0242144539952,"[61, 0, 193]",193,a,0.8896813074825332,colour,0.06
017,73,1,1,14,23,673,1187.5327821850078,1188.728175601922,"[89, 0, 165]",165,l,0.6776352842571214,colour,0.06
017,73,1,1,14,24,674,1189.2370458067162,1190.5602246026974,"[57, 0, 197]",197,a,0.805188687867485,colour,0.06
017,73,1,1,14,25,675,1191.069900223054,1192.3042048600037,"[63, 0, 191]",191,a,0.7178485598415136,colour,0.06
017,73,1,1,14,26,676,1192.8125189539278,1193.9361921844538,"[97, 0, 157]",157,l,0.6054637500783429,colour,0.06
017,73,1,1,14,27,677,1194.4470201988006,1195.4881924900692,"[93, 0, 161]",161,l,0.5198478808160871,colour,0.06
017,73,1,1,14,28,678,1195.997756651952,1197.464197408408,"[71, 0, 183]",183,a,0.9502713994588703,colour,0.06
017,73,1,1,14,29,679,1197.9734457056038,1200.0242081525503,"[73, 0, 181]",181,a,1.533513163565658,colour,0.06
017,73,1,1,14,30,680,1200.5337352928473,1201.7362443296006,"[92, 0, 162]",162,l,0.6829663867829368,colour,0.06
017,73,1,1,14,31,681,1202.2454051929526,1204.5122021440184,"[70, 0, 184]",184,l,1.7499048861209303,colour,0.06
017,73,1,1,14,32,682,1205.0216548474273,1206.4001985773211,"[64, 0, 190]",190,a,0.8600479231681675,colour,0.06
017,73,1,1,14,33,683,1206.9094094590982,1208.2722229706123,"[87, 0, 167]",167,l,0.8451577788218856,colour,0.06
017,73,1,1,14,34,684,1208.7812751323218,1210.2561914597172,"[99, 0, 155]",155,l,0.9571967915399,colour,0.06
017,73,1,1,14,35,685,1210.7653913138201,1211.9602349214256,"[76, 0, 178]",178,l,0.6786006012698635,colour,0.06
017,73,1,1,14,36,686,1212.4699700125493,1213.8001789638074,"[82, 0, 172]",172,l,0.8128265477716923,colour,0.06
017,73,1,1,14,37,687,1214.3100542641478,1215.4881948530674,"[88, 0, 166]",166,l,0.6586621358292177,colour,0.06
017,73,1,1,14,38,688,1215.9987152736867,1217.37624721264,"[95, 0, 159]",159,l,0.857855775160715,colour,0.06
017,73,1,1,14,39,689,1217.8854112266563,1220.5202389701735,"[72, 0, 182]",182,l,2.1175993338692933,colour,0.06
017,73,1,1,14,40,690,1221.0291095688008,1222.480293903849,"[78, 0, 176]",176,l,0.9332863868912682,colour,0.06
017,73,1,1,14,41,691,1222.9897363672499,1224.2161818025634,"[77, 0, 177]",177,l,0.7098771120654419,colour,0.06
017,73,1,1,14,42,692,1224.7256987029687,1226.0322264679708,"[96, 0, 158]",158,l,0.7889834907837212,colour,0.06
017,73,1,1,14,43,693,1226.54151099897,1227.8321915731067,"[55, 0, 199]",199,a,0.7723041027784348,colour,0.06
017,73,1,1,14,44,694,1228.3419443874154,1229.6802141893422,"[56, 0, 198]",198,a,0.8180733672343194,colour,0.06
017,73,1,1,14,45,695,1230.1892730465624,1231.648177555413,"[68, 0, 186]",186,a,0.9406887268414721,colour,0.06
017,73,1,1,14,46,696,1232.1577834649943,1233.4881842192262,"[83, 0, 171]",171,l,0.8132782893953845,colour,0.06
017,73,1,1,14,47,697,1233.9972281103255,1236.440208628308,"[65, 0, 189]",189,a,1.9248017575591803,colour,0.06
017,73,1,1,14,48,698,1236.950812938041,1237.9682252737693,"[12, 0, 242]",242,a,0.497191482456401,colour,0.06
017,73,1,1,14,49,699,1238.4795526852831,1239.744178755791,"[66, 0, 188]",188,l,0.7439999495400116,colour,0.06
017,73,1,1,14,50,700,1240.2533569483785,1240.94435189059,"[25, 0, 229]",229,a,0.17318600334692746,colour,0.06
017,73,1,1,15,1,701,1245.7253505429253,1247.0642426218837,"[64, 0, 190]",190,l,0.8197369737317786,colour,0.06
017,73,1,1,15,2,702,1247.5734109682962,1248.600214173668,"[99, 0, 155]",155,l,0.5101915589766577,colour,0.06
017,73,1,1,15,3,703,1249.109390396974,1250.3442204247694,"[49, 0, 205]",205,a,0.7176476982422173,colour,0.06
017,73,1,1,15,4,704,1250.8533356019761,1252.0001851078123,"[92, 0, 162]",162,l,0.6299310532631353,colour,0.06
017,73,1,1,15,5,705,1252.5103018359514,1253.9442506721243,"[63, 0, 191]",191,l,0.91749157756567,colour,0.06
017,73,1,1,15,6,706,1254.4523308214266,1255.752238425077,"[79, 0, 175]",175,l,0.7817828000988811,colour,0.06
017,73,1,1,15,7,707,1256.2631070057396,1257.5922549351817,"[77, 0, 177]",177,l,0.8095308425836265,colour,0.06
017,73,1,1,15,8,708,1258.101983724744,1259.2562316320837,"[88, 0, 166]",166,l,0.6363617746392265,colour,0.06
017,73,1,1,15,9,709,1259.7654102185043,1260.8642242687056,"[89, 0, 165]",165,l,0.5800417634891346,colour,0.06
017,73,1,1,15,10,710,1261.3740054398077,1262.432187949773,"[46, 0, 208]",208,a,0.5380144320661202,colour,0.06
017,73,1,1,15,11,711,1262.9423263394274,1263.9842303969199,"[78, 0, 176]",176,l,0.5248387003084645,colour,0.06
017,73,1,1,15,12,712,1264.4932975248666,1265.6322263891343,"[95, 0, 159]",159,l,0.6182724171085283,colour,0.06
017,73,1,1,15,13,713,1266.1421024772571,1267.304193832213,"[81, 0, 173]",173,l,0.6432170619955286,colour,0.06
017,73,1,1,15,14,714,1267.8130049601896,1269.0402120940853,"[70, 0, 184]",184,l,0.7081221332773566,colour,0.06
017,73,1,1,15,15,715,1269.5494210066972,1270.56824449345,"[10, 0, 244]",244,a,0.5000078768935055,colour,0.06
017,73,1,1,15,16,716,1271.0764617013047,1272.34417985857,"[80, 0, 174]",174,l,0.7486028304556385,colour,0.06
017,73,1,1,15,17,717,1272.8533832572866,1273.8962664165301,"[57, 0, 197]",197,a,0.5254755496280268,colour,0.06
017,73,1,1,15,18,718,1274.4058041907847,1275.3922535172896,"[86, 0, 168]",168,l,0.4684060491854325,colour,0.06
017,73,1,1,15,19,719,1275.9015069345478,1277.184412590228,"[59, 0, 195]",195,a,0.7650577260646969,colour,0.06
017,73,1,1,15,20,720,1277.6925537856296,1279.1442264899379,"[85, 0, 169]",169,l,0.9342962085502222,colour,0.06
017,73,1,1,15,21,721,1279.653513778001,1280.8642183609772,"[98, 0, 156]",156,l,0.6923824624391273,colour,0.06
017,73,1,1,15,22,722,1281.3737474705558,1282.6482252107235,"[97, 0, 157]",157,l,0.7572453921893612,colour,0.06
017,73,1,1,15,23,723,1283.158187551191,1284.464270269964,"[50, 0, 204]",204,a,0.7873533612582833,colour,0.06
017,73,1,1,15,24,724,1284.9749281428521,1286.3442444493994,"[83, 0, 171]",171,l,0.8498047704342753,colour,0.06
017,73,1,1,15,25,725,1286.8540445251856,1289.0722136758268,"[67, 0, 187]",187,a,1.7000640394398943,colour,0.06
017,73,1,1,15,26,726,1289.5816191176418,1290.8162313484354,"[60, 0, 194]",194,a,0.7177634889958426,colour,0.06
017,73,1,1,15,27,727,1291.3249837933108,1292.5922127935337,"[54, 0, 200]",200,a,0.7487717904150486,colour,0.06
017,73,1,1,15,28,728,1293.1013141861185,1294.1921788440086,"[90, 0, 164]",164,l,0.5726981066400185,colour,0.06
017,73,1,1,15,29,729,1294.701092765783,1295.8241878300905,"[93, 0, 161]",161,l,0.6053751346189529,colour,0.06
017,73,1,1,15,30,730,1296.3335739733884,1297.6002949121175,"[62, 0, 192]",192,a,0.7492180183762684,colour,0.06
017,73,1,1,15,31,731,1298.1100780525012,1299.2402048473014,"[94, 0, 160]",160,l,0.6092458553612232,colour,0.06
017,73,1,1,15,32,732,1299.749256221461,1300.8562630609376,"[58, 0, 196]",196,a,0.5896870576543733,colour,0.06
017,73,1,1,15,33,733,1301.3658016228583,1302.3362139246892,"[72, 0, 182]",182,l,0.4511252579977736,colour,0.06
017,73,1,1,15,34,734,1302.8453082280466,1304.0882286451524,"[65, 0, 189]",189,a,0.7237302594585344,colour,0.06
017,73,1,1,15,35,735,1304.5977616931777,1305.5201901332475,"[76, 0, 178]",178,l,0.40278614696580917,colour,0.06
017,73,1,1,15,36,736,1306.0292871935526,1307.2242146903882,"[68, 0, 186]",186,l,0.6761934132082388,colour,0.06
017,73,1,1,15,37,737,1307.7333629506174,1308.88025262882,"[52, 0, 202]",202,a,0.6292804193217307,colour,0.06
017,73,1,1,15,38,738,1309.3893969506025,1310.4801883531036,"[73, 0, 181]",181,l,0.5744298485806212,colour,0.06
017,73,1,1,15,39,739,1310.9902964165667,1312.6162326876074,"[84, 0, 170]",170,l,1.1082529691047966,colour,0.06
017,73,1,1,15,40,740,1313.126527434215,1314.3042036783881,"[75, 0, 179]",179,l,0.6576432556612417,colour,0.06
017,73,1,1,15,41,741,1314.8137887141202,1316.104186506709,"[74, 0, 180]",180,l,0.7734395614825189,colour,0.06
017,73,1,1,15,42,742,1316.612537622219,1317.9282120721182,"[82, 0, 172]",172,l,0.799503123620525,colour,0.06
017,73,1,1,15,43,743,1318.437378449249,1319.5842295305338,"[53, 0, 201]",201,a,0.6296604810049757,colour,0.06
017,73,1,1,15,44,744,1320.093703501625,1322.016283966368,"[69, 0, 185]",185,l,1.405597027624026,colour,0.06
017,73,1,1,15,45,745,1322.5268583437428,1324.0322315879166,"[56, 0, 198]",198,a,0.9844529200345278,colour,0.06
017,73,1,1,15,46,746,1324.5412971405312,1325.7282311342424,"[55, 0, 199]",199,a,0.669038014835678,colour,0.06
017,73,1,1,15,47,747,1326.237419960671,1327.1602394900983,"[66, 0, 188]",188,l,0.4054320059949532,colour,0.06
017,73,1,1,15,48,748,1327.6715542984894,1329.888270156458,"[71, 0, 183]",183,l,1.6967592756263912,colour,0.06
017,73,1,1,15,49,749,1330.3983199307695,1331.432213549735,"[51, 0, 203]",203,a,0.5145175658399239,colour,0.06
017,73,1,1,15,50,750,1331.9414401854156,1333.200279473327,"[96, 0, 158]",158,l,0.7407613520044833,colour,0.06
017,73,1,1,16,1,751,1338.796214901493,1340.0962705912534,"[55, 0, 199]",199,a,0.7828296433435753,colour,0.06
017,73,1,1,16,2,752,1340.605832783971,1341.7281988388859,"[77, 0, 177]",177,l,0.6047564022010192,colour,0.06
017,73,1,1,16,3,753,1342.2374703729292,1343.576255719643,"[93, 0, 161]",161,l,0.8222327772527933,colour,0.06
017,73,1,1,16,4,754,1344.0854705399834,1345.424227135838,"[71, 0, 183]",183,l,0.8206790538970381,colour,0.06
017,73,1,1,16,5,755,1345.9343505593715,1347.072186106583,"[76, 0, 178]",178,l,0.6216413778020069,colour,0.06
017,73,1,1,16,6,756,1347.5811618622392,1348.8242008269299,"[79, 0, 175]",175,l,0.7254415212664753,colour,0.06
017,73,1,1,16,7,757,1349.3332797703333,1350.384258438833,"[99, 0, 155]",155,l,0.5339432436740026,colour,0.06
017,73,1,1,16,8,758,1350.8949474254623,1351.9362492921064,"[88, 0, 166]",166,l,0.5216579980915412,colour,0.06
017,73,1,1,16,9,759,1352.4463156079873,1354.840231943992,"[65, 0, 189]",189,l,1.8766796557465568,colour,0.06
017,73,1,1,16,10,760,1355.3494345550425,1356.8082268176368,"[98, 0, 156]",156,l,0.9416520746890455,colour,0.06
017,73,1,1,16,11,761,1357.31745817943,1358.6562478585402,"[84, 0, 170]",170,l,0.8218554726336151,colour,0.06
017,73,1,1,16,12,762,1359.1656938665546,1360.5522334626876,"[83, 0, 171]",171,l,0.8702158514643088,colour,0.06
017,73,1,1,16,13,763,1361.0621717784088,1362.2642432521097,"[75, 0, 179]",179,l,0.6824224852025509,colour,0.06
017,73,1,1,16,14,764,1362.773245395394,1363.97623925691,"[73, 0, 181]",181,l,0.685533870360814,colour,0.06
017,73,1,1,16,15,765,1364.486515886616,1366.0162225263193,"[69, 0, 185]",185,l,1.0096866480307654,colour,0.06
017,73,1,1,16,16,766,1366.5267504298827,1367.6482196969446,"[58, 0, 196]",196,a,0.6024583093822002,colour,0.06
017,73,1,1,16,17,767,1368.1574246709934,1369.5922454828396,"[51, 0, 203]",203,a,0.9185809562914073,colour,0.06
017,73,1,1,16,18,768,1370.1006174721988,1371.4082070465665,"[81, 0, 173]",173,l,0.7882087952457368,colour,0.06
017,73,1,1,16,19,769,1371.9166774974437,1373.2804905906087,"[80, 0, 174]",174,l,0.8474688683636487,colour,0.06
017,73,1,1,16,20,770,1373.7895399954868,1375.2322467904305,"[97, 0, 157]",157,l,0.9251211668597534,colour,0.06
017,73,1,1,16,21,771,1375.741274533677,1376.9842469384894,"[57, 0, 197]",197,a,0.7260602538008243,colour,0.06
017,73,1,1,16,22,772,1377.4932144233026,1378.952287498396,"[48, 0, 206]",206,a,0.9423712379066274,colour,0.06
017,73,1,1,16,23,773,1379.461035217042,1380.8402705409098,"[56, 0, 198]",198,a,0.8632680099690333,colour,0.06
017,73,1,1,16,24,774,1381.3493238842348,1382.7922646238003,"[78, 0, 176]",176,l,0.9260549762984738,colour,0.06
017,73,1,1,16,25,775,1383.3018094871659,1386.664253570838,"[62, 0, 192]",192,l,2.844223575433716,colour,0.06
017,73,1,1,16,26,776,1387.1726145325229,1388.2882481798297,"[68, 0, 186]",186,a,0.5984954285668209,colour,0.06
017,73,1,1,16,27,777,1388.7976630741032,1390.072258574306,"[60, 0, 194]",194,a,0.7538882469525561,colour,0.06
017,73,1,1,16,28,778,1390.5814017145894,1393.1682306301082,"[72, 0, 182]",182,l,2.0689045797334984,colour,0.06
017,73,1,1,16,29,779,1393.6776108657941,1394.81625773618,"[41, 0, 213]",213,a,0.6209718391764909,colour,0.06
017,73,1,1,16,30,780,1395.3257959041512,1396.4322848359589,"[82, 0, 172]",172,l,0.5880266019375995,colour,0.06
017,73,1,1,16,31,781,1396.9414827207802,1398.2082245333586,"[61, 0, 193]",193,a,0.7491727259475738,colour,0.06
017,73,1,1,16,32,782,1398.7172770890174,1399.8082303622505,"[96, 0, 158]",158,l,0.5745046793017536,colour,0.06
017,73,1,1,16,33,783,1400.3174463640898,1401.6562391938642,"[86, 0, 168]",168,l,0.8209866478573531,colour,0.06
017,73,1,1,16,34,784,1402.1662917251233,1403.3602621755563,"[59, 0, 195]",195,a,0.6758893638616428,colour,0.06
017,73,1,1,16,35,785,1403.869449820486,1405.2242497426923,"[52, 0, 202]",202,a,0.8378708357922733,colour,0.06
017,73,1,1,16,36,786,1405.733370827511,1406.8962368781213,"[89, 0, 165]",165,l,0.6455084594199434,colour,0.06
017,73,1,1,16,37,787,1407.4053705660626,1408.5682149550412,"[70, 0, 184]",184,l,0.6438779360614717,colour,0.06
017,73,1,1,16,38,788,1409.0778504030313,1410.5362622102257,"[87, 0, 167]",167,l,0.9413984376005828,colour,0.06
017,73,1,1,16,39,789,1411.0470925878035,1412.1285175392404,"[28, 0, 226]",226,a,0.5602190888021141,colour,0.06
017,73,1,1,16,40,790,1412.6389879413182,1413.7602161744144,"[74, 0, 180]",180,l,0.6037946296855807,colour,0.06
017,73,1,1,16,41,791,1414.2696932962863,1415.400237961905,"[85, 0, 169]",169,l,0.6113777449354529,colour,0.06
017,73,1,1,16,42,792,1415.9092960314592,1418.2962503476301,"[67, 0, 187]",187,a,1.8683281464036554,colour,0.06
017,73,1,1,16,43,793,1418.805351346382,1420.0162934185937,"[54, 0, 200]",200,a,0.691572320763953,colour,0.06
017,73,1,1,16,44,794,1420.5254338019295,1421.6242064983817,"[95, 0, 159]",159,l,0.5815360160777345,colour,0.06
017,73,1,1,16,45,795,1422.1333141924115,1423.1842530824943,"[50, 0, 204]",204,a,0.5344536682823673,colour,0.06
017,73,1,1,16,46,796,1423.6934155211784,1424.5282482272014,"[91, 0, 163]",163,l,0.31700249935965985,colour,0.06
017,73,1,1,16,47,797,1425.0377403151942,1426.1362491345499,"[63, 0, 191]",191,a,0.5762781688245013,colour,0.06
017,73,1,1,16,48,798,1426.6459956472972,1427.6322594722733,"[64, 0, 190]",190,a,0.4677345413947478,colour,0.06
017,73,1,1,16,49,799,1428.1417094187345,1429.2402765273582,"[66, 0, 188]",188,a,0.5798409018898383,colour,0.06
017,73,1,1,16,50,800,1429.7493649229873,1430.8962089150446,"[53, 0, 201]",201,a,0.6294470162829384,colour,0.06
