id,age,condition,counterbalance,block,trialinblock,trial,tstart,tend,trialstim,trialintensity,response,RT,trialtype,colourfreq
045,62,1,1,Practice,1,NA,5.9076864999951795e-06,1.4642791736328036,"[30, 0, 224]",224,a,0.8773985699460809,colour,0.5
045,62,1,1,Practice,2,NA,1.9854131343624886,4.3202407185322045,"[81, 0, 173]",173,l,1.8119024128961883,colour,0.5
045,62,1,1,Practice,3,NA,4.829338752650983,5.8322953528168,"[90, 0, 164]",164,l,0.4798022106563167,colour,0.5
045,62,1,1,Practice,4,NA,6.345001801844319,6.960245996065396,"[10, 0, 244]",244,a,0.09170698662683208,colour,0.5
045,62,1,1,Practice,5,NA,7.4701199063433705,8.000296172016078,"[35, 0, 219]",219,a,0.006893088597507813,colour,0.5
045,62,1,1,Practice,6,NA,8.517300266042866,14.74427948870948,"[78, 0, 176]",176,l,5.702957978626046,colour,0.5
045,62,1,1,Practice,7,NA,15.251967161139873,15.99223493687623,"[52, 0, 202]",202,a,0.21681445729018378,colour,0.5
045,62,1,1,Practice,8,NA,16.502126176367938,17.24024670498784,"[19, 0, 235]",235,a,0.21466366556205685,colour,0.5
045,62,1,1,Practice,9,NA,17.75222847780583,18.29623778831956,"[99, 0, 155]",155,l,0.020550872072817583,colour,0.5
045,62,1,1,Practice,10,NA,18.81477473006794,19.448221687904834,"[18, 0, 236]",236,a,0.10983964569641103,colour,0.5
045,62,1,1,1,1,1,5.3643482935649445,6.271961922991522,"[33, 0, 221]",221,a,0.38339073635393106,colour,0.5
045,62,1,1,1,2,2,6.787114548071941,9.999950375433627,"[95, 0, 159]",159,l,2.6900914312946043,colour,0.5
045,62,1,1,1,3,3,10.506204055429862,11.072000126030844,"[11, 0, 243]",243,a,0.042493595083442415,colour,0.5
045,62,1,1,1,4,4,11.58437298769445,12.11196011130096,"[38, 0, 216]",216,a,0.004223601995363424,colour,0.5
045,62,1,1,1,5,5,12.63137099680398,13.591981694048854,"[54, 0, 200]",200,a,0.43727435099140166,colour,0.5
045,62,1,1,1,6,6,14.100215236711165,17.239953289892128,"[27, 0, 227]",227,l,2.617321730637059,colour,0.5
045,62,1,1,1,7,7,17.756545421247665,18.38397441577922,"[7, 0, 247]",247,a,0.1048992444070791,colour,0.5
045,62,1,1,1,8,8,18.89726218115743,19.455932006467037,"[86, 0, 168]",168,l,0.03608611831509734,colour,0.5
045,62,1,1,1,9,9,19.975464590311958,21.91194278208718,"[82, 0, 172]",172,l,1.4133923314291224,colour,0.5
045,62,1,1,1,10,10,22.428973657626102,22.98393778812283,"[99, 0, 155]",155,l,0.03171797492382211,colour,0.5
045,62,1,1,1,11,11,23.49151518373901,24.023909982611713,"[84, 0, 170]",170,a,0.009297910845134538,colour,0.5
045,62,1,1,1,12,12,24.538448208297268,25.06393928473676,"[10, 0, 244]",244,a,0.002538335962299243,colour,0.5
045,62,1,1,1,13,13,25.585446611252564,26.5199091003974,"[67, 0, 187]",187,l,0.4110627337229289,colour,0.5
045,62,1,1,1,14,14,27.03865202348129,27.6479349681872,"[65, 0, 189]",189,a,0.08591706002016508,colour,0.5
045,62,1,1,1,15,15,28.163772491054942,30.911929391331114,"[75, 0, 179]",179,l,2.2248213417142324,colour,0.5
045,62,1,1,1,16,16,31.429640832353698,32.039983616016116,"[15, 0, 239]",239,a,0.08698556358331189,colour,0.5
045,62,1,1,1,17,17,32.55469985998798,34.15192442887451,"[96, 0, 158]",158,l,1.073802364256153,colour,0.5
045,62,1,1,1,18,18,34.66426145057335,35.79195018638757,"[59, 0, 195]",195,a,0.6043389988046783,colour,0.5
045,62,1,1,1,19,19,36.305025668898,36.89599990547708,"[14, 0, 240]",240,a,0.06757093654550772,colour,0.5
045,62,1,1,1,20,20,37.41452424416093,38.13587757698224,"[53, 0, 201]",201,a,0.198010685035797,colour,0.5
045,62,1,1,1,21,21,38.648937305661775,40.5039000576985,"[34, 0, 220]",220,l,1.3315303074164149,colour,0.5
045,62,1,1,1,22,22,41.024165194668285,41.607894638380685,"[26, 0, 228]",228,a,0.06028085141565498,colour,0.5
045,62,1,1,1,23,23,42.1179733484571,42.647966475848534,"[3, 0, 251]",251,a,0.0065563504676902085,colour,0.5
045,62,1,1,1,24,24,43.164948908358156,45.23193222702071,"[68, 0, 186]",186,l,1.5435611140321726,colour,0.5
045,62,1,1,1,25,25,45.74330826505047,46.311927028256605,"[83, 0, 171]",171,l,0.045272570808492674,colour,0.5
045,62,1,1,1,26,26,46.821510674205,48.7759293283159,"[31, 0, 223]",223,l,1.4311122401356897,colour,0.5
045,62,1,1,1,27,27,49.29046676630969,49.90388351617639,"[60, 0, 194]",194,l,0.09003511135006192,colour,0.5
045,62,1,1,1,28,28,50.41552973240164,52.223930462591625,"[80, 0, 174]",174,l,1.2850671408568815,colour,0.5
045,62,1,1,1,29,29,52.74380254148673,53.29591089633391,"[8, 0, 246]",246,a,0.028820845468544576,colour,0.5
045,62,1,1,1,30,30,53.80634800605753,55.32787620639897,"[64, 0, 190]",190,l,0.9981091464771907,colour,0.5
045,62,1,1,1,31,31,55.83786866425248,56.383925578904154,"[81, 0, 173]",173,l,0.022839903665271777,colour,0.5
045,62,1,1,1,32,32,56.90038695346516,58.38399410806733,"[47, 0, 207]",207,l,0.9602184268617293,colour,0.5
045,62,1,1,1,33,33,58.90054409792583,59.463870361727686,"[46, 0, 208]",208,a,0.040071443621854996,colour,0.5
045,62,1,1,1,34,34,59.978996599141965,60.503909116151135,"[13, 0, 241]",241,a,0.002369769974393421,colour,0.5
045,62,1,1,1,35,35,61.02595128521739,62.55195278576957,"[87, 0, 167]",167,l,1.0027238373179443,colour,0.5
045,62,1,1,1,36,36,63.07296071585415,65.01589561511832,"[49, 0, 205]",205,l,1.4195426269118343,colour,0.5
045,62,1,1,1,37,37,65.52638550017446,66.15986514720976,"[72, 0, 182]",182,l,0.11027130065599522,colour,0.5
045,62,1,1,1,38,38,66.6670514539801,67.27994438897804,"[93, 0, 161]",161,l,0.08954162260533849,colour,0.5
045,62,1,1,1,39,39,67.7921349000519,68.52795694478095,"[69, 0, 185]",185,l,0.2125018461520085,colour,0.5
045,62,1,1,1,40,40,69.04215961387376,69.695863634842,"[40, 0, 214]",214,a,0.13035152703832864,colour,0.5
045,62,1,1,1,41,41,70.21417411527477,70.81591255048625,"[5, 0, 249]",249,a,0.07843477815663391,colour,0.5
045,62,1,1,1,42,42,71.32364354595097,71.84790424821745,"[41, 0, 213]",213,a,0.0010078513153075619,colour,0.5
045,62,1,1,1,43,43,72.37052576440556,72.94386595065521,"[0, 0, 254]",254,a,0.049871507818807004,colour,0.5
045,62,1,1,1,44,44,73.46443356117311,73.99194546023841,"[36, 0, 218]",218,a,0.00418736818483012,colour,0.5
045,62,1,1,1,45,45,74.51136304111947,75.06387863248892,"[21, 0, 233]",233,a,0.02932181728328942,colour,0.5
045,62,1,1,1,46,46,75.57396561332621,76.28792370419819,"[24, 0, 230]",230,a,0.190612292320111,colour,0.5
045,62,1,1,1,47,47,76.80841057633438,78.20786785686869,"[66, 0, 188]",188,l,0.876068552794095,colour,0.5
045,62,1,1,1,48,48,78.71490686532252,79.27189811997732,"[79, 0, 175]",175,l,0.03366160377936467,colour,0.5
045,62,1,1,1,49,49,79.79300096689144,80.32789196022964,"[6, 0, 248]",248,a,0.011377022644182944,colour,0.5
045,62,1,1,1,50,50,80.8400588405575,82.27198594758306,"[74, 0, 180]",180,l,0.9086206930503522,colour,0.5
045,62,1,1,2,1,51,87.99602373314588,88.71988940810888,"[88, 0, 166]",166,l,0.19973809256543973,colour,0.5
045,62,1,1,2,2,52,89.23127253536245,89.7598675102845,"[30, 0, 224]",224,a,0.005498086894249354,colour,0.5
045,62,1,1,2,3,53,90.27821225529874,91.84786407594925,"[51, 0, 203]",203,l,1.0464907357629727,colour,0.5
045,62,1,1,2,4,54,92.3564957966812,93.89587584406081,"[96, 0, 158]",158,l,1.015937362769364,colour,0.5
045,62,1,1,2,5,55,94.4035650918745,94.93583898009706,"[95, 0, 159]",159,l,0.008887129711183661,colour,0.5
045,62,1,1,2,6,56,95.45045833801032,96.05585599423421,"[98, 0, 156]",156,l,0.08200262695117999,colour,0.5
045,62,1,1,2,7,57,96.5755748671263,97.18391770198878,"[78, 0, 176]",176,l,0.08494426097786345,colour,0.5
045,62,1,1,2,8,58,97.70073629465969,99.29587663175244,"[42, 0, 212]",212,l,1.0718449507990044,colour,0.5
045,62,1,1,2,9,59,99.81025377451942,101.43985600998803,"[11, 0, 243]",243,l,1.1063111814783042,colour,0.5
045,62,1,1,2,10,60,101.9511623373171,102.52789235407522,"[54, 0, 200]",200,a,0.0534988273241197,colour,0.5
045,62,1,1,2,11,61,103.04487281735601,104.45582212349836,"[84, 0, 170]",170,l,0.887744504374723,colour,0.5
045,62,1,1,2,12,62,104.96693625409353,106.80784028766493,"[47, 0, 207]",207,l,1.3181690898027227,colour,0.5
045,62,1,1,2,13,63,107.32640834322888,107.95185274894516,"[58, 0, 196]",196,a,0.10205449643876818,colour,0.5
045,62,1,1,2,14,64,108.46717630308808,109.76784643165888,"[82, 0, 172]",172,l,0.7772963669697219,colour,0.5
045,62,1,1,2,15,65,110.2798762536604,110.87187409538569,"[49, 0, 205]",205,a,0.06877452920662108,colour,0.5
045,62,1,1,2,16,66,111.38926652133773,111.9358338601021,"[9, 0, 245]",245,a,0.023154192586616773,colour,0.5
045,62,1,1,2,17,67,112.45183167819664,112.99185408802077,"[25, 0, 229]",229,a,0.016628168243187247,colour,0.5
045,62,1,1,2,18,68,113.49878400119746,114.78384956667128,"[79, 0, 175]",175,l,0.7616417854603696,colour,0.5
045,62,1,1,2,19,69,115.2958155856586,115.83183494711648,"[85, 0, 169]",169,l,0.012746424372835463,colour,0.5
045,62,1,1,2,20,70,116.34279823478346,116.903932746897,"[35, 0, 219]",219,a,0.03781943353146744,colour,0.5
045,62,1,1,2,21,71,117.42097504396315,117.98383184361182,"[33, 0, 221]",221,a,0.039519271857898275,colour,0.5
045,62,1,1,2,22,72,118.49925070843005,119.03987688381358,"[65, 0, 189]",189,l,0.017220906120883228,colour,0.5
045,62,1,1,2,23,73,119.54618412683408,120.19188402029886,"[64, 0, 190]",190,a,0.12236984874357404,colour,0.5
045,62,1,1,2,24,74,120.70250505599506,121.23186054709117,"[93, 0, 161]",161,l,0.0059974833254727855,colour,0.5
045,62,1,1,2,25,75,121.74947943435882,122.3918473926426,"[39, 0, 215]",215,a,0.11903397510491232,colour,0.5
045,62,1,1,2,26,76,122.90580430197747,123.5678999946831,"[59, 0, 195]",195,a,0.13875068184529482,colour,0.5
045,62,1,1,2,27,77,124.07785346180594,125.01581802750229,"[67, 0, 187]",187,l,0.4148117515699141,colour,0.5
045,62,1,1,2,28,78,125.53098483103031,126.11981300203047,"[6, 0, 248]",248,a,0.06547843399062003,colour,0.5
045,62,1,1,2,29,79,126.6404333878811,127.18387398510868,"[4, 0, 250]",250,a,0.020176718595166676,colour,0.5
045,62,1,1,2,30,80,127.70301154165031,129.24783808212874,"[90, 0, 164]",164,l,1.02140512353958,colour,0.5
045,62,1,1,2,31,81,129.7657279352834,130.38384090206455,"[3, 0, 251]",251,a,0.09474944516978212,colour,0.5
045,62,1,1,2,32,82,130.8908168951957,132.679823084482,"[2, 0, 252]",252,l,1.2656395169087773,colour,0.5
045,62,1,1,2,33,83,133.1878459196596,133.71191403134617,"[13, 0, 241]",241,a,0.0006557532003625965,colour,0.5
045,62,1,1,2,34,84,134.23476200884988,134.83179516869404,"[23, 0, 231]",231,a,0.0735707829455805,colour,0.5
045,62,1,1,2,35,85,135.3442995748435,137.27990067209794,"[50, 0, 204]",204,l,1.412431347760048,colour,0.5
045,62,1,1,2,36,86,137.79751128860426,140.99980386480865,"[92, 0, 162]",162,l,2.6790542975465996,colour,0.5
045,62,1,1,2,37,87,141.51661576210154,142.07181462467497,"[45, 0, 209]",209,a,0.031943648547894554,colour,0.5
045,62,1,1,2,38,88,142.57920297432338,143.9278415479714,"[29, 0, 225]",225,l,0.8257492423390431,colour,0.5
045,62,1,1,2,39,89,144.43874378954456,145.08780594431414,"[7, 0, 247]",247,a,0.12568366701907507,colour,0.5
045,62,1,1,2,40,90,145.5949036357872,147.46384042944942,"[37, 0, 217]",217,l,1.3455949335680089,colour,0.5
045,62,1,1,2,41,91,147.97026464466262,148.52783288336468,"[5, 0, 249]",249,a,0.03477736883473881,colour,0.5
045,62,1,1,2,42,92,149.04845641998145,150.63981111157068,"[34, 0, 220]",220,l,1.067945090023386,colour,0.5
045,62,1,1,2,43,93,151.15811450277965,151.88776065205116,"[60, 0, 194]",194,l,0.20633855375899657,colour,0.5
045,62,1,1,2,44,94,152.40809510587565,153.0638364909919,"[56, 0, 198]",198,a,0.13238692195750446,colour,0.5
045,62,1,1,2,45,95,153.58004068426771,155.10383586083867,"[86, 0, 168]",168,l,1.0004446518698842,colour,0.5
045,62,1,1,2,46,96,155.6114904502249,156.18379167134367,"[15, 0, 239]",239,a,0.049121231634444484,colour,0.5
045,62,1,1,2,47,97,156.68969994860322,157.24779633447747,"[68, 0, 186]",186,l,0.03502391628398982,colour,0.5
045,62,1,1,2,48,98,157.76788739161861,158.33588348466856,"[36, 0, 218]",218,a,0.04457152534496345,colour,0.5
045,62,1,1,2,49,99,158.8461020099919,160.99985585244963,"[73, 0, 181]",181,l,1.6305108376507178,colour,0.5
045,62,1,1,2,50,100,161.51818444978767,162.12779231725062,"[27, 0, 227]",227,a,0.0861986597426494,colour,0.5
045,62,1,1,3,1,101,167.252194803993,167.92776789881327,"[99, 0, 155]",155,l,0.15144078627372437,colour,0.5
045,62,1,1,3,2,102,168.440632279993,168.975789119223,"[80, 0, 174]",174,l,0.01186932985160638,colour,0.5
045,62,1,1,3,3,103,169.48756884916315,171.25578982814545,"[54, 0, 200]",200,l,1.2449066880917599,colour,0.5
045,62,1,1,3,4,104,171.76902245511656,172.35179170285141,"[91, 0, 163]",163,l,0.05942975071548062,colour,0.5
045,62,1,1,3,5,105,172.86282706429347,174.45577958815556,"[88, 0, 166]",166,l,1.0695760053404229,colour,0.5
045,62,1,1,3,6,106,174.97236029798387,176.33581850011728,"[26, 0, 228]",228,l,0.8408827659000053,colour,0.5
045,62,1,1,3,7,107,176.8474651101883,177.4237934042651,"[77, 0, 177]",177,l,0.052965560156962965,colour,0.5
045,62,1,1,3,8,108,177.94134258083204,178.48775947051377,"[32, 0, 222]",222,a,0.023061638831450182,colour,0.5
045,62,1,1,3,9,109,179.00395736225755,180.4957533580275,"[65, 0, 189]",189,l,0.9684285357011504,colour,0.5
045,62,1,1,3,10,110,181.00406803291776,182.73584370624621,"[13, 0, 241]",241,l,1.2084188470951176,colour,0.5
045,62,1,1,3,11,111,183.25427588502066,183.81575107372214,"[39, 0, 215]",215,a,0.03801084257406728,colour,0.5
045,62,1,1,3,12,112,184.33249522954316,184.99178319578277,"[96, 0, 158]",158,l,0.1359512261403779,colour,0.5
045,62,1,1,3,13,113,185.5044234787215,186.18383656976107,"[97, 0, 157]",157,l,0.15605862788083869,colour,0.5
045,62,1,1,3,14,114,186.6920921677863,188.13573697404377,"[46, 0, 208]",208,l,0.9203462691975801,colour,0.5
045,62,1,1,3,15,115,188.6453296784448,189.98379836672166,"[33, 0, 221]",221,l,0.8154044894479284,colour,0.5
045,62,1,1,3,16,116,190.5048374106218,191.73576769401348,"[20, 0, 234]",234,l,0.7078412722794383,colour,0.5
045,62,1,1,3,17,117,192.25492888130088,192.8477857006419,"[84, 0, 170]",170,l,0.06945036854131104,colour,0.5
045,62,1,1,3,18,118,193.36442863810112,194.2557303574349,"[10, 0, 244]",244,a,0.3679011762205846,colour,0.5
045,62,1,1,3,19,119,194.7708361148691,196.8717713016406,"[83, 0, 171]",171,l,1.5775251913596549,colour,0.5
045,62,1,1,3,20,120,197.38041759466591,198.99176586656904,"[86, 0, 168]",168,l,1.0880816363503527,colour,0.5
045,62,1,1,3,21,121,199.50557587143317,200.6717520031982,"[95, 0, 159]",159,l,0.6428059147758631,colour,0.5
045,62,1,1,3,22,122,201.1931439329046,219.895762810326,"[3, 0, 251]",251,l,18.179276623481428,colour,0.5
045,62,1,1,3,23,123,220.41354278051176,221.51974604825023,"[85, 0, 169]",169,l,0.582961444468765,colour,0.5
045,62,1,1,3,24,124,222.0385575004973,222.60773355546235,"[48, 0, 206]",206,a,0.04607365309652778,colour,0.5
045,62,1,1,3,25,125,223.11684694956625,223.97584268224728,"[57, 0, 197]",197,a,0.33570113407881763,colour,0.5
045,62,1,1,3,26,126,224.49393654750884,227.6237867088871,"[63, 0, 191]",191,l,2.60647206747376,colour,0.5
045,62,1,1,3,27,127,228.13484609492093,229.25572838820608,"[2, 0, 252]",252,l,0.5974455163614039,colour,0.5
045,62,1,1,3,28,128,229.77564418398129,230.9757044423834,"[58, 0, 196]",196,l,0.6767144598504728,colour,0.5
045,62,1,1,3,29,129,231.49447060236753,234.86376087260487,"[49, 0, 205]",205,a,2.846031117754137,colour,0.5
045,62,1,1,3,30,130,235.38546315277495,235.95972296888817,"[22, 0, 232]",232,a,0.050953402138020465,colour,0.5
045,62,1,1,3,31,131,236.4792567342704,237.35175192442898,"[55, 0, 199]",199,a,0.3492352499838489,colour,0.5
045,62,1,1,3,32,132,237.86998599878302,239.1357692693964,"[68, 0, 186]",186,a,0.7430664437499672,colour,0.5
045,62,1,1,3,33,133,239.6512196418762,240.62370203204728,"[24, 0, 230]",230,a,0.448871927264463,colour,0.5
045,62,1,1,3,34,134,241.13590672156897,242.0957998318279,"[16, 0, 238]",238,a,0.4365445547869058,colour,0.5
045,62,1,1,3,35,135,242.60471551535716,243.5357539094116,"[4, 0, 250]",250,a,0.407582318688128,colour,0.5
045,62,1,1,3,36,136,244.0423195152548,245.03171167339178,"[43, 0, 211]",211,a,0.4659301750841678,colour,0.5
045,62,1,1,3,37,137,245.54240832747496,246.35172435522531,"[14, 0, 240]",240,a,0.28588200774697725,colour,0.5
045,62,1,1,3,38,138,246.87069570885365,247.711715926926,"[8, 0, 246]",246,a,0.31759446883006603,colour,0.5
045,62,1,1,3,39,139,248.23022451177894,249.10373897478007,"[40, 0, 214]",214,a,0.3501820552053232,colour,0.5
045,62,1,1,3,40,140,249.6208651609943,250.5758261407252,"[36, 0, 218]",218,a,0.4314103813806014,colour,0.5
045,62,1,1,3,41,141,251.09100554731776,252.15173892751864,"[90, 0, 164]",164,l,0.5377633105099449,colour,0.5
045,62,1,1,3,42,142,252.66927156256338,253.99178910346927,"[51, 0, 203]",203,l,0.7982332078934178,colour,0.5
045,62,1,1,3,43,143,254.49919478233141,255.49570097654077,"[44, 0, 210]",210,a,0.47331517704355974,colour,0.5
045,62,1,1,3,44,144,256.0148633453655,257.13570428484513,"[78, 0, 176]",176,l,0.5976038423593764,colour,0.5
045,62,1,1,3,45,145,257.65556769913337,258.6237197551068,"[15, 0, 239]",239,a,0.44478932205356614,colour,0.5
045,62,1,1,3,46,146,259.14009920974854,260.1596772827793,"[93, 0, 161]",161,l,0.49623345601617075,colour,0.5
045,62,1,1,3,47,147,260.6715184526588,261.6797005984488,"[18, 0, 236]",236,l,0.4849009379438485,colour,0.5
045,62,1,1,3,48,148,262.18715511418577,263.47968523846384,"[29, 0, 225]",225,a,0.7690405720215949,colour,0.5
045,62,1,1,3,49,149,263.99988854164826,265.27169135095005,"[70, 0, 184]",184,l,0.7483234970352441,colour,0.5
045,62,1,1,3,50,150,265.78123640001354,266.9838117574777,"[67, 0, 187]",187,l,0.679605681619023,colour,0.5
045,62,1,1,4,1,151,272.20282584337156,273.3516483429926,"[71, 0, 183]",183,l,0.6246003942396783,colour,0.5
045,62,1,1,4,2,152,273.8599078794755,274.94367926776204,"[95, 0, 159]",159,l,0.5603688759445049,colour,0.5
045,62,1,1,4,3,153,275.4539107899957,276.4637171557247,"[23, 0, 231]",231,a,0.4864609610228854,colour,0.5
045,62,1,1,4,4,154,276.98529104217505,278.03966538863733,"[16, 0, 238]",238,a,0.5318020609950054,colour,0.5
045,62,1,1,4,5,155,278.5478520636534,279.5837416529314,"[60, 0, 194]",194,l,0.5125008615375464,colour,0.5
045,62,1,1,4,6,156,280.0948026143483,281.0957372103512,"[69, 0, 185]",185,l,0.4777286126980016,colour,0.5
045,62,1,1,4,7,157,281.6105897249579,282.5596816150828,"[48, 0, 206]",206,a,0.4257067069963796,colour,0.5
045,62,1,1,4,8,158,283.0794371156312,284.0316525965268,"[67, 0, 187]",187,l,0.4288247839263022,colour,0.5
045,62,1,1,4,9,159,284.5483282231846,285.5917044266296,"[59, 0, 195]",195,l,0.519941789595805,colour,0.5
045,62,1,1,4,10,160,286.1110231522234,287.0957620226345,"[19, 0, 235]",235,a,0.4615407640214926,colour,0.5
045,62,1,1,4,11,161,287.6111052690658,288.58374440985176,"[55, 0, 199]",199,a,0.4494099205810471,colour,0.5
045,62,1,1,4,12,162,289.0955524966869,290.031657322676,"[2, 0, 252]",252,a,0.4129252303505382,colour,0.5
045,62,1,1,4,13,163,290.54882919499914,291.5036865932932,"[68, 0, 186]",186,l,0.4315478335527132,colour,0.5
045,62,1,1,4,14,164,292.01775220405943,293.00769771549767,"[28, 0, 226]",226,a,0.46675646350126954,colour,0.5
045,62,1,1,4,15,165,293.5178351085933,294.55967649508784,"[54, 0, 200]",200,a,0.5185589971110858,colour,0.5
045,62,1,1,4,16,166,295.080404006987,296.0636974634365,"[98, 0, 156]",156,l,0.4600500577969342,colour,0.5
045,62,1,1,4,17,167,296.5805408683907,297.5837298375584,"[61, 0, 193]",193,l,0.47980811834281667,colour,0.5
045,62,1,1,4,18,168,298.09623424370784,299.071656298677,"[92, 0, 162]",162,l,0.4520766502630522,colour,0.5
045,62,1,1,4,19,169,299.5807692989349,300.5916650420529,"[12, 0, 242]",242,a,0.4875137107555929,colour,0.5
045,62,1,1,4,20,170,301.1121341911296,302.1516818198827,"[58, 0, 196]",196,a,0.5163514915925589,colour,0.5
045,62,1,1,4,21,171,302.6590611110785,303.599661686487,"[77, 0, 177]",177,l,0.4172197245836742,colour,0.5
045,62,1,1,4,22,172,304.11236577243994,305.11968185139017,"[30, 0, 224]",224,a,0.4840332957210194,colour,0.5
045,62,1,1,4,23,173,305.6281958122381,306.6316557472928,"[37, 0, 217]",217,a,0.48027088711774013,colour,0.5
045,62,1,1,4,24,174,307.1438667383468,308.19965459726336,"[29, 0, 225]",225,a,0.532464903419168,colour,0.5
045,62,1,1,4,25,175,308.7065746642959,309.7596540458792,"[87, 0, 167]",167,l,0.5298013245032962,colour,0.5
045,62,1,1,4,26,176,310.26907070122274,311.3036283041199,"[43, 0, 211]",211,a,0.5111783274551271,colour,0.5
045,62,1,1,4,27,177,311.81616106716456,312.8076662078365,"[44, 0, 210]",210,a,0.46818218517455534,colour,0.5
045,62,1,1,4,28,178,313.3162593316831,314.31163400700666,"[31, 0, 223]",223,a,0.47208992286527973,colour,0.5
045,62,1,1,4,29,179,314.83197673159225,315.87164448330395,"[40, 0, 214]",214,a,0.5163940269351315,colour,0.5
045,62,1,1,4,30,180,316.3789272822871,317.32762847741196,"[66, 0, 188]",188,l,0.4253884796173679,colour,0.5
045,62,1,1,4,31,181,317.8478396575117,319.0076713278313,"[88, 0, 166]",166,l,0.636410253380518,colour,0.5
045,62,1,1,4,32,182,319.51984962968663,320.5276465943173,"[65, 0, 189]",189,l,0.4843696400052977,colour,0.5
045,62,1,1,4,33,183,321.0356398910624,322.04765139923575,"[6, 0, 248]",248,a,0.4887047003524003,colour,0.5
045,62,1,1,4,34,184,322.56701423555523,323.51965113142046,"[25, 0, 229]",229,a,0.4295435524493314,colour,0.5
045,62,1,1,4,35,185,324.03584666008965,325.0556673421122,"[72, 0, 182]",182,l,0.49649575729654316,colour,0.5
045,62,1,1,4,36,186,325.5672292753436,326.55166764143496,"[81, 0, 173]",173,l,0.46096811227744183,colour,0.5
045,62,1,1,4,37,187,327.0673188752553,327.97564379013534,"[82, 0, 172]",172,l,0.38496257480596796,colour,0.5
045,62,1,1,4,38,188,328.4892714444097,329.0236461059485,"[17, 0, 237]",237,a,0.01107651832467127,colour,0.5
045,62,1,1,4,39,189,329.5362560627634,330.80763154940905,"[45, 0, 209]",209,a,0.7481994356189716,colour,0.5
045,62,1,1,4,40,190,331.31772010562963,332.3036523287117,"[74, 0, 180]",180,l,0.46263211063910603,colour,0.5
045,62,1,1,4,41,191,332.8177624440493,333.79963214805457,"[33, 0, 221]",221,a,0.4585747115572758,colour,0.5
045,62,1,1,4,42,192,334.31785677011044,335.26363799272576,"[20, 0, 234]",234,a,0.4224169133126452,colour,0.5
045,62,1,1,4,43,193,335.77112086535794,336.83171127954597,"[13, 0, 241]",241,a,0.5373068432670607,colour,0.5
045,62,1,1,4,44,194,337.3494317790212,338.35961584283996,"[79, 0, 175]",175,l,0.4868792252266303,colour,0.5
045,62,1,1,4,45,195,338.8807442897287,339.8476596699968,"[27, 0, 227]",227,a,0.4436054216807861,colour,0.5
045,62,1,1,4,46,196,340.3651647358379,341.47962616159884,"[9, 0, 245]",245,a,0.5910400088221195,colour,0.5
045,62,1,1,4,47,197,341.9903196649161,342.9996301788258,"[52, 0, 202]",202,l,0.48661259164305193,colour,0.5
045,62,1,1,4,48,198,343.50609811091886,344.6076504540058,"[49, 0, 205]",205,a,0.5781809445602448,colour,0.5
045,62,1,1,4,49,199,345.1155870369605,346.11163715777275,"[53, 0, 201]",201,a,0.4726495776988031,colour,0.5
045,62,1,1,4,50,200,346.6313213722376,347.655612203705,"[24, 0, 230]",230,a,0.5009867805667909,colour,0.5
045,62,1,1,5,1,201,352.8966639294388,353.7756370947575,"[91, 0, 163]",163,l,0.3548436136925375,colour,0.4
045,62,1,1,5,2,202,354.2882033346923,355.1996293911343,"[24, 0, 230]",230,a,0.38806647328851795,colour,0.4
045,62,1,1,5,3,203,355.7101039162055,356.6716035233444,"[95, 0, 159]",159,l,0.43800139027553087,colour,0.4
045,62,1,1,5,4,204,357.1790828513647,358.1356101557071,"[69, 0, 185]",185,l,0.43336346253454394,colour,0.4
045,62,1,1,5,5,205,358.64793181742107,359.63959252717063,"[66, 0, 188]",188,l,0.46868512621790615,colour,0.4
045,62,1,1,5,6,206,360.14797573122405,361.18365736993746,"[99, 0, 155]",155,l,0.5122799140629013,colour,0.4
045,62,1,1,5,7,207,361.69501095875853,362.7756500916678,"[88, 0, 166]",166,l,0.5574583557333881,colour,0.4
045,62,1,1,5,8,208,363.2888334879178,364.36762193957225,"[30, 0, 224]",224,a,0.5553248932185397,colour,0.4
045,62,1,1,5,9,209,364.8827072170268,366.02360278291417,"[56, 0, 198]",198,a,0.6174741489485314,colour,0.4
045,62,1,1,5,10,210,366.53915949375073,367.53561527570196,"[19, 0, 235]",235,a,0.47311470954855395,colour,0.4
045,62,1,1,5,11,211,368.0549068259379,369.11161116395215,"[62, 0, 192]",192,l,0.533335696407903,colour,0.4
045,62,1,1,5,12,212,369.6332157703723,370.66360727275605,"[98, 0, 156]",156,l,0.5070378269165303,colour,0.4
045,62,1,1,5,13,213,371.1801281180278,372.2395543241312,"[85, 0, 169]",169,l,0.5359713122743415,colour,0.4
045,62,1,1,5,14,214,372.7584197332483,373.759613873611,"[79, 0, 175]",175,l,0.4778050187765075,colour,0.4
045,62,1,1,5,15,215,374.27411429010294,375.2715873756679,"[80, 0, 174]",174,l,0.47412216701809484,colour,0.4
045,62,1,1,5,16,216,375.78988604072765,376.8156277999974,"[14, 0, 240]",240,a,0.5024349514487767,colour,0.4
045,62,1,1,5,17,217,377.3368850344518,378.3115599640025,"[83, 0, 171]",171,l,0.45135276174482897,colour,0.4
045,62,1,1,5,18,218,378.82135943743083,379.8315990335027,"[93, 0, 161]",161,l,0.48688119445546363,colour,0.4
045,62,1,1,5,19,219,380.35270936348616,381.3676097303535,"[7, 0, 247]",247,a,0.49158213751911717,colour,0.4
045,62,1,1,5,20,220,381.88414239099825,382.83157973506013,"[74, 0, 180]",180,l,0.4241561362155153,colour,0.4
045,62,1,1,5,21,221,383.35291573866766,384.37557407943495,"[97, 0, 157]",157,l,0.4993810713788207,colour,0.4
045,62,1,1,5,22,222,384.88439366459716,385.8395488102906,"[9, 0, 245]",245,a,0.43187157477268556,colour,0.4
045,62,1,1,5,23,223,386.35321191068374,387.42363586595866,"[29, 0, 225]",225,a,0.5471907966120853,colour,0.4
045,62,1,1,5,24,224,387.9314424798106,388.8955788843532,"[5, 0, 249]",249,a,0.44077721523467517,colour,0.4
045,62,1,1,5,25,225,389.41602440268366,390.3836234992016,"[84, 0, 170]",170,l,0.44427299025437605,colour,0.4
045,62,1,1,5,26,226,390.9004712364592,391.87955920781883,"[54, 0, 200]",200,a,0.45576186509606487,colour,0.4
045,62,1,1,5,27,227,392.40059116249495,393.32754734518426,"[72, 0, 182]",182,l,0.40356981802347036,colour,0.4
045,62,1,1,5,28,228,393.8381668054974,394.85559093603365,"[47, 0, 207]",207,a,0.4940066520550772,colour,0.4
045,62,1,1,5,29,229,395.3695009777223,396.3596249012926,"[31, 0, 223]",223,a,0.4667804880930362,colour,0.4
045,62,1,1,5,30,230,396.86969337137884,397.85561929292885,"[68, 0, 186]",186,l,0.462643926012106,colour,0.4
045,62,1,1,5,31,231,398.369735315953,399.3836790314547,"[0, 0, 254]",254,a,0.49055262468664296,colour,0.4
045,62,1,1,5,32,232,399.9011069035257,400.80764809093125,"[76, 0, 178]",178,l,0.383119770466692,colour,0.4
045,62,1,1,5,33,233,401.32310634032615,402.3756248855386,"[42, 0, 212]",212,a,0.5291625066706729,colour,0.4
045,62,1,1,5,34,234,402.8857630663256,403.8715661079966,"[39, 0, 215]",215,a,0.46251435075510017,colour,0.4
045,62,1,1,5,35,235,404.38588653697343,405.3755662025196,"[59, 0, 195]",195,a,0.466358285431852,colour,0.4
045,62,1,1,5,36,236,405.885920604632,406.89558321665663,"[87, 0, 167]",167,l,0.4863597426610795,colour,0.4
045,62,1,1,5,37,237,407.4016691183567,408.3675415950361,"[44, 0, 210]",210,a,0.44240301055697273,colour,0.4
045,62,1,1,5,38,238,408.8861781797632,409.81559511079877,"[94, 0, 160]",160,l,0.4061093355230696,colour,0.4
045,62,1,1,5,39,239,410.3238522842071,411.3355546234541,"[86, 0, 168]",168,l,0.48838450374455533,colour,0.4
045,62,1,1,5,40,240,411.85517739797933,412.82356969986995,"[2, 0, 252]",252,a,0.4450358695032719,colour,0.4
045,62,1,1,5,41,241,413.3397230870419,414.2635647374134,"[28, 0, 226]",226,a,0.4005155441079751,colour,0.4
045,62,1,1,5,42,242,414.7773747422773,415.759637504357,"[60, 0, 194]",194,l,0.45904023725256593,colour,0.4
045,62,1,1,5,43,243,416.2774088099361,417.2635210205333,"[61, 0, 193]",193,l,0.4628597534920118,colour,0.4
045,62,1,1,5,44,244,417.7775539421009,418.76754277657346,"[37, 0, 217]",217,a,0.46667060512436365,colour,0.4
045,62,1,1,5,45,245,419.2776896219673,420.19953408045876,"[45, 0, 209]",209,a,0.39865068440531104,colour,0.4
045,62,1,1,5,46,246,420.71526132651206,421.65559605602857,"[58, 0, 196]",196,a,0.4168585680160959,colour,0.4
045,62,1,1,5,47,247,422.1684143572536,423.12754695133845,"[26, 0, 228]",228,a,0.43571669098651,colour,0.4
045,62,1,1,5,48,248,423.6374775754068,424.6475647531672,"[63, 0, 191]",191,a,0.48685716986392436,colour,0.4
045,62,1,1,5,49,249,425.1686644493152,426.1755791994299,"[81, 0, 173]",173,l,0.48347324704172934,colour,0.4
045,62,1,1,5,50,250,426.6844657383722,427.67953478938125,"[3, 0, 251]",251,a,0.47167126481599553,colour,0.4
045,62,1,1,6,1,251,433.3716911540273,434.27154759724544,"[74, 0, 180]",180,l,0.37567608548806675,colour,0.28
045,62,1,1,6,2,252,434.7788185808556,435.7355408388521,"[11, 0, 243]",243,a,0.43352060699498907,colour,0.28
045,62,1,1,6,3,253,436.2476510053898,437.35954731367656,"[57, 0, 197]",197,a,0.5885205774566202,colour,0.28
045,62,1,1,6,4,254,437.8727381929964,438.7755662025195,"[16, 0, 238]",238,a,0.3793270357393794,colour,0.28
045,62,1,1,6,5,255,439.2949195865408,440.2635253528367,"[95, 0, 159]",159,l,0.4457802380011344,colour,0.28
045,62,1,1,6,6,256,440.7793459403365,441.75154436771027,"[71, 0, 183]",183,l,0.4488506595932904,colour,0.28
045,62,1,1,6,7,257,442.26381758639513,443.23952281646984,"[24, 0, 230]",230,a,0.45235667460246987,colour,0.28
045,62,1,1,6,8,258,443.748300653981,444.6954961767424,"[82, 0, 172]",172,l,0.4237902534989644,colour,0.28
045,62,1,1,6,9,259,445.21724177994656,446.1595477075223,"[75, 0, 179]",179,l,0.4189876982275109,colour,0.28
045,62,1,1,6,10,260,446.6707709333948,447.5195963868591,"[85, 0, 169]",169,l,0.32611374659586545,colour,0.28
045,62,1,1,6,11,261,448.02988934903215,448.959543375219,"[73, 0, 181]",181,l,0.4064397721208479,colour,0.28
045,62,1,1,6,12,262,449.46753037043163,450.3995128127874,"[23, 0, 231]",231,a,0.4087043852755414,colour,0.28
045,62,1,1,6,13,263,450.9207361765061,451.84749858707846,"[20, 0, 234]",234,a,0.4034189750952919,colour,0.28
045,62,1,1,6,14,264,452.35825786263854,453.2715680772253,"[77, 0, 177]",177,l,0.3898557146035273,colour,0.28
045,62,1,1,6,15,265,453.7803648193333,454.6715125449723,"[70, 0, 184]",184,l,0.36780113939585135,colour,0.28
045,62,1,1,6,16,266,455.1868754836919,456.1275095359906,"[40, 0, 214]",214,a,0.41737883827295263,colour,0.28
045,62,1,1,6,17,267,456.6399769206382,457.4954776659913,"[80, 0, 174]",174,l,0.3321683375572775,colour,0.28
045,62,1,1,6,18,268,458.01505790517376,458.93549042659424,"[65, 0, 189]",189,l,0.39724150425467997,colour,0.28
045,62,1,1,6,19,269,459.45275721574694,460.38346320397477,"[66, 0, 188]",188,l,0.4073676727457496,colour,0.28
045,62,1,1,6,20,270,460.8903383725899,461.8555031084279,"[54, 0, 200]",200,a,0.4418331157337434,colour,0.28
045,62,1,1,6,21,271,462.3747848125197,463.3035452026634,"[72, 0, 182]",182,l,0.405483120755207,colour,0.28
045,62,1,1,6,22,272,463.8123907816462,464.7435189725352,"[32, 0, 222]",222,a,0.4078568291870397,colour,0.28
045,62,1,1,6,23,273,465.2499711507978,466.151501044676,"[50, 0, 204]",204,a,0.3779820524484876,colour,0.28
045,62,1,1,6,24,274,466.6719638922202,467.5675207212105,"[68, 0, 186]",186,l,0.372137381280254,colour,0.28
045,62,1,1,6,25,275,468.0691569534456,468.9675648319362,"[78, 0, 176]",176,l,0.37522355670284924,colour,0.28
045,62,1,1,6,26,276,469.46582659364776,470.40748661416706,"[53, 0, 201]",201,a,0.4183126465843543,colour,0.28
045,62,1,1,6,27,277,470.919061150463,471.78351125315817,"[52, 0, 202]",202,a,0.34111887643666705,colour,0.28
045,62,1,1,6,28,278,472.29413977192394,473.2234700568911,"[69, 0, 185]",185,l,0.406049864812303,colour,0.28
045,62,1,1,6,29,279,473.73353261929105,474.61547695706895,"[86, 0, 168]",168,l,0.35856269926125606,colour,0.28
045,62,1,1,6,30,280,475.12427409302245,476.0554767207616,"[61, 0, 193]",193,l,0.40785249688383374,colour,0.28
045,62,1,1,6,31,281,476.56194583439196,477.4395176964749,"[76, 0, 178]",178,l,0.3544261371803259,colour,0.28
045,62,1,1,6,32,282,477.95276292651033,478.84745290096953,"[84, 0, 170]",170,l,0.3714430311945307,colour,0.28
045,62,1,1,6,33,283,479.35902074188743,480.3034376827691,"[56, 0, 198]",198,a,0.42104987465859267,colour,0.28
045,62,1,1,6,34,284,480.8122749909908,481.7115091578987,"[28, 0, 226]",226,a,0.37598919287211174,colour,0.28
045,62,1,1,6,35,285,482.2186017293768,483.1114630779441,"[99, 0, 155]",155,l,0.3694190578028156,colour,0.28
045,62,1,1,6,36,286,483.6400068529165,484.48781263969227,"[91, 0, 163]",163,l,0.32382235192881126,colour,0.28
045,62,1,1,6,37,287,484.9907914921439,485.86347887903617,"[87, 0, 167]",167,l,0.34933371142506076,colour,0.28
045,62,1,1,6,38,288,486.38152154434806,487.31947902082084,"[5, 0, 249]",249,a,0.4145455118321024,colour,0.28
045,62,1,1,6,39,289,487.83252023874934,488.7115190040429,"[51, 0, 203]",203,a,0.35562972984143926,colour,0.28
045,62,1,1,6,40,290,489.22330976166427,490.03974770240234,"[55, 0, 199]",199,a,0.29204372475692253,colour,0.28
045,62,1,1,6,41,291,490.55256127747816,491.4076169771156,"[15, 0, 239]",239,a,0.33225537747148337,colour,0.28
045,62,1,1,6,42,292,491.92774466191304,492.7594996583389,"[89, 0, 165]",165,l,0.3085694931007765,colour,0.28
045,62,1,1,6,43,293,493.271531843415,494.12746345603614,"[49, 0, 205]",205,a,0.3325676971642224,colour,0.28
045,62,1,1,6,44,294,494.64666008944255,495.43146867055407,"[93, 0, 161]",161,l,0.2614844440768138,colour,0.28
045,62,1,1,6,45,295,495.9437162892641,496.79947539743966,"[90, 0, 164]",164,l,0.33241291577792254,colour,0.28
045,62,1,1,6,46,296,497.31280963661834,498.11146032102374,"[47, 0, 207]",207,a,0.27543958110550193,colour,0.28
045,62,1,1,6,47,297,498.62796304939025,499.3914500022647,"[22, 0, 232]",232,a,0.2409083658749296,colour,0.28
045,62,1,1,6,48,298,499.9085887915435,500.67145819425673,"[38, 0, 216]",216,a,0.2518025336098617,colour,0.28
045,62,1,1,6,49,299,501.17758348053326,501.94347958795856,"[60, 0, 194]",194,a,0.2432092128401564,colour,0.28
045,62,1,1,6,50,300,502.45896737578596,503.18343209015916,"[58, 0, 196]",196,a,0.2012536110732981,colour,0.28
045,62,1,1,7,1,301,509.36491149301037,509.9914653622495,"[99, 0, 155]",155,l,0.10234397307658583,colour,0.14
045,62,1,1,7,2,302,510.50652976587844,511.2794733494418,"[64, 0, 190]",190,l,0.24967852339341334,colour,0.14
045,62,1,1,7,3,303,511.78778290433684,512.5674494351267,"[82, 0, 172]",172,l,0.25628213535287614,colour,0.14
045,62,1,1,7,4,304,513.0847205565829,513.7514392108908,"[78, 0, 176]",176,l,0.14330865889610322,colour,0.14
045,62,1,1,7,5,305,514.272403817941,515.0795418786049,"[55, 0, 199]",199,a,0.28389702508593473,colour,0.14
045,62,1,1,7,6,306,515.6006195193902,516.3354778235296,"[60, 0, 194]",194,a,0.21152392711474022,colour,0.14
045,62,1,1,7,7,307,516.8507352115839,517.6394397150134,"[70, 0, 184]",184,l,0.26540320944923224,colour,0.14
045,62,1,1,7,8,308,518.1535230488389,518.9514919862233,"[89, 0, 165]",165,l,0.2745849357932002,colour,0.14
045,62,1,1,7,9,309,519.4661200087435,520.2634513098326,"[79, 0, 175]",175,l,0.27392878874707094,colour,0.14
045,62,1,1,7,10,310,520.7807413358855,521.487445969284,"[71, 0, 183]",183,l,0.1835057393172974,colour,0.14
045,62,1,1,7,11,311,521.9995510158267,522.7274540037376,"[54, 0, 200]",200,a,0.2045193801654932,colour,0.14
045,62,1,1,7,12,312,523.2341684832804,524.0554645115428,"[97, 0, 157]",157,l,0.29808492496272265,colour,0.14
045,62,1,1,7,13,313,524.5622069541348,525.15142345706,"[76, 0, 178]",178,l,0.06607589801751601,colour,0.14
045,62,1,1,7,14,314,525.6716637817465,526.3674592812711,"[39, 0, 215]",215,a,0.17246072865418682,colour,0.14
045,62,1,1,7,15,315,526.8750776368468,527.5514230632143,"[85, 0, 169]",169,l,0.15322569528552776,colour,0.14
045,62,1,1,7,16,316,528.0624848123227,528.9274236776137,"[86, 0, 168]",168,l,0.34172500507065706,colour,0.14
045,62,1,1,7,17,317,529.4378521227304,530.0875121353727,"[75, 0, 179]",179,l,0.12483650477634001,colour,0.14
045,62,1,1,7,18,318,530.5955814443507,531.4874034339414,"[56, 0, 198]",198,l,0.3686057662960138,colour,0.14
045,62,1,1,7,19,319,532.0018648597024,532.527463456036,"[9, 0, 245]",245,a,0.002072810266781744,colour,0.14
045,62,1,1,7,20,320,533.0489069795378,533.8794698048298,"[94, 0, 160]",160,l,0.30715479910918475,colour,0.14
045,62,1,1,7,21,321,534.3927804132625,535.191417313066,"[72, 0, 182]",182,l,0.2752757412667961,colour,0.14
045,62,1,1,7,22,322,535.7054494469421,536.5034557996744,"[83, 0, 171]",171,l,0.27470033260283344,colour,0.14
045,62,1,1,7,23,323,537.0178758716299,537.7354325312665,"[57, 0, 197]",197,a,0.1941234273244845,colour,0.14
045,62,1,1,7,24,324,538.2524500160494,539.199393871366,"[77, 0, 177]",177,l,0.4236579213213645,colour,0.14
045,62,1,1,7,25,325,539.7057767327738,540.5034097197197,"[98, 0, 156]",156,l,0.2744045544322944,colour,0.14
045,62,1,1,7,26,326,541.0182779881573,541.8714231419835,"[0, 0, 254]",254,a,0.32978911528471144,colour,0.14
045,62,1,1,7,27,327,542.3777721326553,543.1754263872726,"[87, 0, 167]",167,l,0.2745108927892943,colour,0.14
045,62,1,1,7,28,328,543.6903505818088,544.4713904527848,"[65, 0, 189]",189,l,0.2577003739565953,colour,0.14
045,62,1,1,7,29,329,544.9873681847453,545.679439478706,"[66, 0, 188]",188,l,0.16879087380607416,colour,0.14
045,62,1,1,7,30,330,546.1906311969171,546.8473835841148,"[53, 0, 201]",201,a,0.1334593639785453,colour,0.14
045,62,1,1,7,31,331,547.362524787668,548.143441778765,"[88, 0, 166]",166,l,0.2576779247478953,colour,0.14
045,62,1,1,7,32,332,548.6594915845008,549.3994241974901,"[93, 0, 161]",161,l,0.21655491293063278,colour,0.14
045,62,1,1,7,33,333,549.9096206674506,550.7195018638752,"[50, 0, 204]",204,a,0.2862262289463615,colour,0.14
045,62,1,1,7,34,334,551.238047864076,551.9354478912514,"[8, 0, 246]",246,a,0.17517511367373118,colour,0.14
045,62,1,1,7,35,335,552.4566763749649,553.2074436849787,"[62, 0, 192]",192,l,0.2275065821474982,colour,0.14
045,62,1,1,7,36,336,553.722448224051,554.4633859314356,"[68, 0, 186]",186,l,0.23007681961667004,colour,0.14
045,62,1,1,7,37,337,554.9756737224136,555.7753897596162,"[84, 0, 170]",170,l,0.28239095887647636,colour,0.14
045,62,1,1,7,38,338,556.2825583433273,556.9754149657454,"[95, 0, 159]",159,l,0.1694344177876701,colour,0.14
045,62,1,1,7,39,339,557.4857583401765,558.1753783380891,"[22, 0, 232]",232,a,0.1662316640181416,colour,0.14
045,62,1,1,7,40,340,558.6890548292383,559.4314533105692,"[59, 0, 195]",195,a,0.21909561196753202,colour,0.14
045,62,1,1,7,41,341,559.9390929338163,560.7193738640012,"[91, 0, 163]",163,l,0.25695836853333276,colour,0.14
045,62,1,1,7,42,342,561.2361310167325,562.0233739585242,"[92, 0, 162]",162,l,0.26473839779600894,colour,0.14
045,62,1,1,7,43,343,562.5331710688779,563.2474036702488,"[51, 0, 203]",203,a,0.1907623475569835,colour,0.14
045,62,1,1,7,44,344,563.767708191795,564.4314048675399,"[21, 0, 233]",233,a,0.1411665317743882,colour,0.14
045,62,1,1,7,45,345,564.940777018312,565.6554148869761,"[61, 0, 193]",193,a,0.19134720851957354,colour,0.14
045,62,1,1,7,46,346,566.17522198132,566.871381788178,"[73, 0, 181]",181,l,0.17280455600780442,colour,0.14
045,62,1,1,7,47,347,567.3785767595552,568.1434272064719,"[19, 0, 235]",235,a,0.2419508756177038,colour,0.14
045,62,1,1,7,48,348,568.6597960272779,569.4633926268134,"[67, 0, 187]",187,l,0.28023780407352206,colour,0.14
045,62,1,1,7,49,349,569.97245088251,570.9354207158935,"[96, 0, 158]",158,l,0.4400048836876067,colour,0.14
045,62,1,1,7,50,350,571.4569063808922,572.0873912247225,"[81, 0, 173]",173,l,0.10717685447207259,colour,0.14
045,62,1,1,8,1,351,580.0504902395173,580.7113815518705,"[92, 0, 162]",162,l,0.1367148930808071,colour,0.06
045,62,1,1,8,2,352,581.2232987339828,581.8394160842674,"[51, 0, 203]",203,a,0.09273059177303367,colour,0.06
045,62,1,1,8,3,353,582.3483297985676,583.3433897911241,"[93, 0, 161]",161,l,0.47166968943292886,colour,0.06
045,62,1,1,8,4,354,583.8641586568285,584.7033616705362,"[72, 0, 182]",182,l,0.3158946305036352,colour,0.06
045,62,1,1,8,5,355,585.22360317676,586.031433224435,"[50, 0, 204]",204,a,0.2844334430192248,colour,0.06
045,62,1,1,8,6,356,586.5501954459614,587.543356314234,"[67, 0, 187]",187,l,0.469717395970747,colour,0.06
045,62,1,1,8,7,357,588.0503523934992,588.9034187781724,"[91, 0, 163]",163,l,0.32966032771901155,colour,0.06
045,62,1,1,8,8,358,589.4097870672867,590.2713526435914,"[59, 0, 195]",195,a,0.3381268301520777,colour,0.06
045,62,1,1,8,9,359,590.7848672641308,591.6473741318164,"[94, 0, 160]",160,l,0.339045672324346,colour,0.06
045,62,1,1,8,10,360,592.1600234732077,593.0233637185343,"[82, 0, 172]",172,l,0.3400263482817536,colour,0.06
045,62,1,1,8,11,361,593.5325515494878,594.3913472085198,"[58, 0, 196]",196,a,0.3354317435748726,colour,0.06
045,62,1,1,8,12,362,594.9076360786353,595.7993765421525,"[65, 0, 189]",189,a,0.36836394499550806,colour,0.06
045,62,1,1,8,13,363,596.3140498569355,597.2873624739816,"[62, 0, 192]",192,a,0.4499766646383705,colour,0.06
045,62,1,1,8,14,364,597.7984959030196,598.679358346478,"[57, 0, 197]",197,a,0.3575351556576152,colour,0.06
045,62,1,1,8,15,365,599.1893850689132,600.1273571176791,"[77, 0, 177]",177,l,0.4146676040195416,colour,0.06
045,62,1,1,8,16,366,600.6457731487774,601.5433220496523,"[76, 0, 178]",178,l,0.37433307142600825,colour,0.06
045,62,1,1,8,17,367,602.0520542010545,603.0154233940448,"[53, 0, 201]",201,a,0.43985994844570087,colour,0.06
045,62,1,1,8,18,368,603.5366648746685,604.5513659555781,"[71, 0, 183]",183,a,0.4941862457242223,colour,0.06
045,62,1,1,8,19,369,605.0651361820198,605.991341694679,"[13, 0, 241]",241,a,0.40283332644094116,colour,0.06
045,62,1,1,8,20,370,606.5027732649619,607.4793843402986,"[89, 0, 165]",165,l,0.45328693830197153,colour,0.06
045,62,1,1,8,21,371,607.9872811448311,608.8953693584056,"[63, 0, 191]",191,l,0.38471169505305625,colour,0.06
045,62,1,1,8,22,372,609.4093877076798,610.2393975735163,"[20, 0, 234]",234,a,0.30675071335303983,colour,0.06
045,62,1,1,8,23,373,610.7531804030225,611.5833344164093,"[55, 0, 199]",199,a,0.3067928548500731,colour,0.06
045,62,1,1,8,24,374,612.0970487167522,613.0233889246633,"[78, 0, 176]",176,l,0.4030097693441803,colour,0.06
045,62,1,1,8,25,375,613.5346546858786,614.4713912404764,"[74, 0, 180]",180,l,0.41340178372752234,colour,0.06
045,62,1,1,8,26,376,614.9879069657532,615.9673809059634,"[90, 0, 164]",164,l,0.45622896617442166,colour,0.06
045,62,1,1,8,27,377,616.4880524917637,617.4073779127357,"[84, 0, 170]",170,l,0.39599301317616664,colour,0.06
045,62,1,1,8,28,378,617.9256241963085,618.7593937138279,"[96, 0, 158]",158,l,0.3186972369751402,colour,0.06
045,62,1,1,8,29,379,619.2769066565843,620.1593157323662,"[79, 0, 175]",175,l,0.35913732023414013,colour,0.06
045,62,1,1,8,30,380,620.6675642411676,621.6074440788243,"[64, 0, 190]",190,l,0.4165474298608842,colour,0.06
045,62,1,1,8,31,381,622.1207948595252,623.0473682241297,"[54, 0, 200]",200,a,0.4035564272674037,colour,0.06
045,62,1,1,8,32,382,623.5586288653501,624.5353549436506,"[69, 0, 185]",185,a,0.4533609813061048,colour,0.06
045,62,1,1,8,33,383,625.0307061851508,626.0233680508377,"[81, 0, 173]",173,l,0.46931646098073543,colour,0.06
045,62,1,1,8,34,384,626.5308316250275,627.407350343532,"[85, 0, 169]",169,l,0.35310360309790667,colour,0.06
045,62,1,1,8,35,385,627.9213746004928,629.0793016326877,"[68, 0, 186]",186,a,0.6344327537892696,colour,0.06
045,62,1,1,8,36,386,629.5935602278792,630.4713357082235,"[87, 0, 167]",167,l,0.35445922022495324,colour,0.06
045,62,1,1,8,37,387,630.9842670431833,631.8073503435321,"[80, 0, 174]",174,l,0.3000502153352045,colour,0.06
045,62,1,1,8,38,388,632.3281692276489,633.2952913769441,"[66, 0, 188]",188,a,0.4445104792512211,colour,0.06
045,62,1,1,8,39,389,633.8126188183446,634.7433330773338,"[70, 0, 184]",184,a,0.4074767680228888,colour,0.06
045,62,1,1,8,40,390,635.2502594458986,636.1593208523611,"[99, 0, 155]",155,l,0.38565416797132457,colour,0.06
045,62,1,1,8,41,391,636.6722450980972,637.6792949373098,"[88, 0, 166]",166,l,0.4836831668351351,colour,0.06
045,62,1,1,8,42,392,638.1889471124214,639.1113205057768,"[52, 0, 202]",202,a,0.39907367475825595,colour,0.06
045,62,1,1,8,43,393,639.6265239369611,640.5273748407387,"[61, 0, 193]",193,a,0.37615421424811757,colour,0.06
045,62,1,1,8,44,394,641.0345473629072,641.9833096041261,"[97, 0, 157]",157,l,0.4255200241034345,colour,0.06
045,62,1,1,8,45,395,642.5033699412975,643.3993926898288,"[83, 0, 171]",171,l,0.3727635960481166,colour,0.06
045,62,1,1,8,46,396,643.9097041627529,644.7352895652534,"[75, 0, 179]",179,l,0.3022462993267254,colour,0.06
045,62,1,1,8,47,397,645.253841079295,646.0793158111353,"[86, 0, 168]",168,l,0.3024444037471312,colour,0.06
045,62,1,1,8,48,398,646.5983738108321,647.383302908748,"[98, 0, 156]",156,l,0.261606536264253,colour,0.06
045,62,1,1,8,49,399,647.8953662076394,648.6553554162656,"[95, 0, 159]",159,l,0.2369443082395719,colour,0.06
045,62,1,1,8,50,400,649.1766709398933,650.0313166460885,"[0, 0, 254]",254,a,0.3312873045788365,colour,0.06
045,62,1,1,9,1,401,655.61717915847,656.575314928921,"[93, 0, 161]",161,l,0.4340416649438339,colour,0.06
045,62,1,1,9,2,402,657.0868374775757,657.9673679090531,"[60, 0, 194]",194,a,0.3571570637222976,colour,0.06
045,62,1,1,9,3,403,658.4658718859107,659.3833178748871,"[87, 0, 167]",167,l,0.3940667135343574,colour,0.06
045,62,1,1,9,4,404,659.9035097565445,660.7112858473495,"[76, 0, 178]",178,l,0.28437594153774626,colour,0.06
045,62,1,1,9,5,405,661.2317935933108,662.0873226955594,"[78, 0, 176]",176,l,0.33224119902433813,colour,0.06
045,62,1,1,9,6,406,662.6069155378061,663.55129230642,"[57, 0, 197]",197,a,0.4210144285398201,colour,0.06
045,62,1,1,9,7,407,664.0601981438051,664.9833021210563,"[85, 0, 169]",169,l,0.39977156945542447,colour,0.06
045,62,1,1,9,8,408,665.4977737868073,666.3433444988607,"[89, 0, 165]",165,l,0.32221388582001964,colour,0.06
045,62,1,1,9,9,409,666.8573155866432,667.5913298793059,"[79, 0, 175]",175,l,0.21068858024500514,colour,0.06
045,62,1,1,9,10,410,668.1073414820023,668.8873037909627,"[82, 0, 172]",172,l,0.2565330151060152,colour,0.06
045,62,1,1,9,11,411,669.4043433311083,670.2873124555692,"[67, 0, 187]",187,l,0.35990019948258123,colour,0.06
045,62,1,1,9,12,412,670.7950225772086,671.5432885727621,"[81, 0, 173]",173,l,0.22511672603877741,colour,0.06
045,62,1,1,9,13,413,672.0626380183255,672.8712786005874,"[80, 0, 174]",174,l,0.2853621313356598,colour,0.06
045,62,1,1,9,14,414,673.3925157489077,674.3112893919613,"[52, 0, 202]",202,a,0.39535301380601595,colour,0.06
045,62,1,1,9,15,415,674.8300976934422,675.7432988127518,"[64, 0, 190]",190,a,0.3897351977989274,colour,0.06
045,62,1,1,9,16,416,676.2534952827125,677.0793831587614,"[51, 0, 203]",203,a,0.3025105698357038,colour,0.06
045,62,1,1,9,17,417,677.5973580826014,678.3752928735578,"[54, 0, 200]",200,a,0.2545763893399453,colour,0.06
045,62,1,1,9,18,418,678.8942969163847,679.7592980093066,"[83, 0, 171]",171,l,0.3416801066532571,colour,0.06
045,62,1,1,9,19,419,680.269412165502,681.1272826808292,"[50, 0, 204]",204,a,0.3345770982623435,colour,0.06
045,62,1,1,9,20,420,681.6445132361716,682.3513608355831,"[97, 0, 157]",157,l,0.18415400944832072,colour,0.06
045,62,1,1,9,21,421,682.8633721468339,683.8792421619771,"[68, 0, 186]",186,l,0.49247537971677957,colour,0.06
045,62,1,1,9,22,422,684.3947275867297,685.4712786005873,"[62, 0, 192]",192,a,0.553856242357142,colour,0.06
045,62,1,1,9,23,423,685.988580442013,686.7912834055057,"[0, 0, 254]",254,a,0.27931699267264776,colour,0.06
045,62,1,1,9,24,424,687.30134557406,688.0314749720862,"[72, 0, 182]",182,l,0.20696279929825323,colour,0.06
045,62,1,1,9,25,425,688.5513360233001,689.2392963551545,"[77, 0, 177]",177,l,0.1646358009738833,colour,0.06
045,62,1,1,9,26,426,689.7544978171097,690.5912455963123,"[70, 0, 184]",184,l,0.3133039130548241,colour,0.06
045,62,1,1,9,27,427,691.0985106722358,691.7752838151052,"[96, 0, 158]",158,l,0.1535336826746061,colour,0.06
045,62,1,1,9,28,428,692.2859812568802,693.1512478018483,"[99, 0, 155]",155,l,0.3402307542341987,colour,0.06
045,62,1,1,9,29,429,693.6627317536179,694.5352844452584,"[73, 0, 181]",181,l,0.34940499750882736,colour,0.06
045,62,1,1,9,30,430,695.0535019780903,695.9432519451059,"[69, 0, 185]",185,l,0.3663647838870929,colour,0.06
045,62,1,1,9,31,431,696.4613824380237,697.1992796560942,"[90, 0, 164]",164,l,0.2147097455167568,colour,0.06
045,62,1,1,9,32,432,697.7114299948996,698.495318552302,"[56, 0, 198]",198,a,0.26062664799837876,colour,0.06
045,62,1,1,9,33,433,699.0085011608605,699.8312760799743,"[65, 0, 189]",189,a,0.2994535389993871,colour,0.06
045,62,1,1,9,34,434,700.3522757392977,701.2712340960159,"[98, 0, 156]",156,l,0.3952935430957041,colour,0.06
045,62,1,1,9,35,435,701.7902468034492,702.6472630673104,"[61, 0, 193]",193,a,0.3336362007275966,colour,0.06
045,62,1,1,9,36,436,703.1653856833125,704.0632539931037,"[95, 0, 159]",159,l,0.37393410566483,colour,0.06
045,62,1,1,9,37,437,704.5722106365927,705.6072668482295,"[63, 0, 191]",191,a,0.5116934777170172,colour,0.06
045,62,1,1,9,38,438,706.119231291834,706.9032706921641,"[66, 0, 188]",188,a,0.26069045101212396,colour,0.06
045,62,1,1,9,39,439,707.4161846979107,708.2152737326535,"[84, 0, 170]",170,l,0.275701094694341,colour,0.06
045,62,1,1,9,40,440,708.7287777193576,709.5192391687494,"[91, 0, 163]",163,l,0.2648597022921422,colour,0.06
045,62,1,1,9,41,441,710.0280248831757,710.8232550171031,"[92, 0, 162]",162,l,0.2723916087225007,colour,0.06
045,62,1,1,9,42,442,711.3406182984684,712.1752322213099,"[19, 0, 235]",235,a,0.31133350268692084,colour,0.06
045,62,1,1,9,43,443,712.6722667596143,713.4552447456051,"[37, 0, 217]",217,a,0.25961131361327716,colour,0.06
045,62,1,1,9,44,444,713.9692772733272,714.7192435010527,"[86, 0, 168]",168,l,0.2270060041787474,colour,0.06
045,62,1,1,9,45,445,715.2349620824991,715.9992520868902,"[55, 0, 199]",199,a,0.24096586735640813,colour,0.06
045,62,1,1,9,46,446,716.5163278608463,717.3113307457668,"[58, 0, 196]",196,a,0.2716350310056441,colour,0.06
045,62,1,1,9,47,447,717.8289858668447,718.4472347104149,"[53, 0, 201]",201,a,0.09496881726136053,colour,0.06
045,62,1,1,9,48,448,718.9540169314294,719.7032478491099,"[74, 0, 180]",180,l,0.22584573455196733,colour,0.06
045,62,1,1,9,49,449,720.2197635743867,720.8392502751997,"[94, 0, 160]",160,l,0.09621652064834052,colour,0.06
045,62,1,1,9,50,450,721.358327967185,722.2312619015268,"[88, 0, 166]",166,l,0.3496377603564724,colour,0.06
045,62,1,1,10,1,451,728.2349211225394,728.9832225642119,"[93, 0, 161]",161,l,0.22206245212328213,colour,0.06
045,62,1,1,10,2,452,729.503610974906,730.4792063220123,"[66, 0, 188]",188,l,0.45221685935575806,colour,0.06
045,62,1,1,10,3,453,730.9880144856472,731.7672686599201,"[73, 0, 181]",181,l,0.2558390588660586,colour,0.06
045,62,1,1,10,4,454,732.2876212306498,733.0552175702476,"[74, 0, 180]",180,l,0.2442536918119913,colour,0.06
045,62,1,1,10,5,455,733.568969285938,734.3512623741419,"[76, 0, 178]",178,l,0.2589114496872753,colour,0.06
045,62,1,1,10,6,456,734.8659577442879,736.1912073932729,"[64, 0, 190]",190,a,0.8018987304380971,colour,0.06
045,62,1,1,10,7,457,736.7098719410494,737.5832926687583,"[99, 0, 155]",155,l,0.3625173045984411,colour,0.06
045,62,1,1,10,8,458,738.1036263348913,738.9832501334151,"[69, 0, 185]",185,a,0.3560928924621294,colour,0.06
045,62,1,1,10,9,459,739.4974520148164,740.3352809006467,"[94, 0, 160]",160,l,0.3144003796674042,colour,0.06
045,62,1,1,10,10,460,740.8569819992792,741.7112385858575,"[50, 0, 204]",204,a,0.33099192025429147,colour,0.06
045,62,1,1,10,11,461,742.2182102466852,743.0632374515815,"[18, 0, 236]",236,a,0.3214356465864512,colour,0.06
045,62,1,1,10,12,462,743.5777981264757,744.4152367111517,"[58, 0, 196]",196,a,0.3141995183268591,colour,0.06
045,62,1,1,10,13,463,744.9180438468491,745.7752160736334,"[55, 0, 199]",199,a,0.3338823543313083,colour,0.06
045,62,1,1,10,14,464,746.2930756006642,747.1911908517507,"[51, 0, 203]",203,a,0.37474739717163175,colour,0.06
045,62,1,1,10,15,465,747.6993999759754,748.5673226167903,"[80, 0, 174]",174,l,0.3449348480644403,colour,0.06
045,62,1,1,10,16,466,749.0745262527741,749.9835112531584,"[85, 0, 169]",169,l,0.3855624019079187,colour,0.06
045,62,1,1,10,17,467,750.4964788219288,751.3432736066231,"[68, 0, 186]",186,l,0.3358208631921116,colour,0.06
045,62,1,1,10,18,468,751.8612288381748,752.7191942703319,"[81, 0, 173]",173,l,0.3347586611607767,colour,0.06
045,62,1,1,10,19,469,753.2238981672388,754.1032340645081,"[75, 0, 179]",179,l,0.35598734179711755,colour,0.06
045,62,1,1,10,20,470,754.6145726871903,755.5352233991646,"[54, 0, 200]",200,a,0.3972379596425526,colour,0.06
045,62,1,1,10,21,471,756.0547642537706,756.9032706921641,"[89, 0, 165]",165,l,0.32510904604623647,colour,0.06
045,62,1,1,10,22,472,757.416202814816,758.5272495977849,"[59, 0, 195]",195,a,0.5877155567104637,colour,0.06
045,62,1,1,10,23,473,759.0411844517569,759.9032183106776,"[56, 0, 198]",198,a,0.3385218574553619,colour,0.06
045,62,1,1,10,24,474,760.4164993806778,761.3672769306811,"[67, 0, 187]",187,a,0.4275585697882889,colour,0.06
045,62,1,1,10,25,475,761.8852904514063,762.7911999102032,"[91, 0, 163]",163,l,0.3824525957388687,colour,0.06
045,62,1,1,10,26,476,763.3073044605005,764.2712250375632,"[82, 0, 172]",172,l,0.44052515394469083,colour,0.06
045,62,1,1,10,27,477,764.7917954050015,765.7032147660655,"[53, 0, 201]",201,a,0.38833192533456895,colour,0.06
045,62,1,1,10,28,478,766.2137601833745,767.2391703245091,"[57, 0, 197]",197,a,0.5020600102793651,colour,0.06
045,62,1,1,10,29,479,767.7450553648684,768.5991697731254,"[63, 0, 191]",191,a,0.3308757357531249,colour,0.06
045,62,1,1,10,30,480,769.1202824661834,769.9831910565506,"[62, 0, 192]",192,a,0.3395781518001968,colour,0.06
045,62,1,1,10,31,481,770.4953713276343,771.3831646688843,"[86, 0, 168]",168,l,0.3646468286556228,colour,0.06
045,62,1,1,10,32,482,771.9017248475327,772.8151855112021,"[52, 0, 202]",202,a,0.3900384590392605,colour,0.06
045,62,1,1,10,33,483,773.3143416966484,774.1752330090014,"[61, 0, 193]",193,a,0.3374194831562818,colour,0.06
045,62,1,1,10,34,484,774.6909433196868,775.4951968539601,"[88, 0, 166]",166,l,0.28088410497548466,colour,0.06
045,62,1,1,10,35,485,776.0035627288,776.8792055343208,"[60, 0, 194]",194,a,0.3522607731588323,colour,0.06
045,62,1,1,10,36,486,777.3942691502582,778.7512237772569,"[70, 0, 184]",184,a,0.8336592407049466,colour,0.06
045,62,1,1,10,37,487,779.2694216178004,780.1991552008319,"[79, 0, 175]",175,l,0.40635273220641466,colour,0.06
045,62,1,1,10,38,488,780.7070622453541,781.6311661970055,"[23, 0, 231]",231,a,0.4008191991933927,colour,0.06
045,62,1,1,10,39,489,782.1346617751021,783.0872191141227,"[95, 0, 159]",159,l,0.4292879465469923,colour,0.06
045,62,1,1,10,40,490,783.6034599350548,784.5112090474252,"[24, 0, 230]",230,a,0.3843647169333053,colour,0.06
045,62,1,1,10,41,491,785.0254424364878,785.9352289130054,"[97, 0, 157]",157,l,0.3863469426737538,colour,0.06
045,62,1,1,10,42,492,786.4502755935748,787.3911936086708,"[90, 0, 164]",164,l,0.41642848843957836,colour,0.06
045,62,1,1,10,43,493,787.904727133807,788.9351974053441,"[87, 0, 167]",167,l,0.5071638575614088,colour,0.06
045,62,1,1,10,44,494,789.4535287596025,790.4391994690961,"[83, 0, 171]",171,l,0.46236429551845504,colour,0.06
045,62,1,1,10,45,495,790.9536246610467,791.9672560568558,"[92, 0, 162]",162,l,0.4902387296110646,colour,0.06
045,62,1,1,10,46,496,792.4868193606701,793.4391766260417,"[77, 0, 177]",177,l,0.4289453007309021,colour,0.06
045,62,1,1,10,47,497,793.9572673405366,794.9192167195404,"[78, 0, 176]",176,l,0.43854135282072093,colour,0.06
045,62,1,1,10,48,498,795.4261324542697,796.3751703875248,"[84, 0, 170]",170,l,0.4257319131256736,colour,0.06
045,62,1,1,10,49,499,796.89499126647,797.8471716950924,"[72, 0, 182]",182,l,0.4288933130892474,colour,0.06
045,62,1,1,10,50,500,798.3638307802282,799.231155957016,"[96, 0, 158]",158,l,0.3439490521118387,colour,0.06
045,62,1,1,11,1,501,804.117245915327,805.663216971602,"[55, 0, 199]",199,a,1.0219120030405975,colour,0.06
045,62,1,1,11,2,502,806.1808575203866,807.0871588557204,"[73, 0, 181]",181,l,0.3830142198012254,colour,0.06
045,62,1,1,11,3,503,807.6027939418643,808.5433590711543,"[59, 0, 195]",195,a,0.41719727537520157,colour,0.06
045,62,1,1,11,4,504,809.0560659140276,809.9511595803967,"[30, 0, 224]",224,a,0.3715489757055366,colour,0.06
045,62,1,1,11,5,505,810.4624280985324,811.375168418296,"[77, 0, 177]",177,l,0.38952015801123707,colour,0.06
045,62,1,1,11,6,506,811.8864826225401,812.8872352617993,"[10, 0, 244]",244,a,0.47742613914988397,colour,0.06
045,62,1,1,11,7,507,813.4021952963001,814.2631665593437,"[71, 0, 183]",183,l,0.3374970707718603,colour,0.06
045,62,1,1,11,8,508,814.7773136961835,815.7111728136144,"[33, 0, 221]",221,a,0.4104861435212115,colour,0.06
045,62,1,1,11,9,509,816.2306254467687,817.1351674730661,"[74, 0, 180]",180,l,0.38126436306311007,colour,0.06
045,62,1,1,11,10,510,817.652587074376,818.8551324995622,"[61, 0, 193]",193,a,0.6792366481363388,colour,0.06
045,62,1,1,11,11,511,819.3659579412108,820.2551521918501,"[84, 0, 170]",170,l,0.3657716521634029,colour,0.06
045,62,1,1,11,12,512,820.7723004334273,821.6951432909361,"[95, 0, 159]",159,l,0.3994131698086676,colour,0.06
045,62,1,1,11,13,513,822.2099599655778,823.3831623058097,"[62, 0, 192]",192,a,0.6498656001326708,colour,0.06
045,62,1,1,11,14,514,823.8975882854518,825.1191320427008,"[69, 0, 185]",185,a,0.6982373432738314,colour,0.06
045,62,1,1,11,15,515,825.6320921284016,826.5111279151972,"[68, 0, 186]",186,a,0.3556970774675392,colour,0.06
045,62,1,1,11,16,516,827.0229919281312,827.9271594071045,"[75, 0, 179]",179,l,0.38089020958477704,colour,0.06
045,62,1,1,11,17,517,828.444869272744,830.671124213047,"[64, 0, 190]",190,a,1.7152558126713302,colour,0.06
045,62,1,1,11,18,518,831.1837046314292,832.0791854481865,"[89, 0, 165]",165,l,0.3721295043646933,colour,0.06
045,62,1,1,11,19,519,832.5899388160603,833.5351292700268,"[50, 0, 204]",204,a,0.42179818161412186,colour,0.06
045,62,1,1,11,20,520,834.0432088189943,834.9991177854843,"[80, 0, 174]",174,l,0.43260530943507547,colour,0.06
045,62,1,1,11,21,521,835.5120774773393,836.455113988811,"[70, 0, 184]",184,l,0.41986439890297333,colour,0.06
045,62,1,1,11,22,522,836.9653502371937,837.8791429128439,"[82, 0, 172]",172,l,0.3908265444169956,colour,0.06
045,62,1,1,11,23,523,838.3873209232531,839.3591704032785,"[63, 0, 191]",191,a,0.4484914722547728,colour,0.06
045,62,1,1,11,24,524,839.8717701201033,840.7831563981229,"[92, 0, 162]",162,l,0.38793689803105735,colour,0.06
045,62,1,1,11,25,525,841.2937459261577,842.2311083016782,"[88, 0, 166]",166,l,0.41393623243220645,colour,0.06
045,62,1,1,11,26,526,842.7470813074895,843.7031387538325,"[99, 0, 155]",155,l,0.4326009771311874,colour,0.06
045,62,1,1,11,27,527,844.2159294858541,845.175140849092,"[76, 0, 178]",178,l,0.4357611955579159,colour,0.06
045,62,1,1,11,28,528,845.675373808863,846.8230915711099,"[85, 0, 169]",169,l,0.6242794099403,colour,0.06
045,62,1,1,11,29,529,847.331738257981,848.335128482335,"[53, 0, 201]",201,a,0.4800133119865677,colour,0.06
045,62,1,1,11,30,530,848.8502448736051,849.7911152333634,"[67, 0, 187]",187,a,0.41745248743109187,colour,0.06
045,62,1,1,11,31,531,850.3035318119071,851.7831252843073,"[72, 0, 182]",182,a,0.9562661845993716,colour,0.06
045,62,1,1,11,32,532,852.3038015962568,853.191127836428,"[87, 0, 167]",167,l,0.3640611800010447,colour,0.06
045,62,1,1,11,33,533,853.7100078178385,854.6070837099485,"[58, 0, 196]",196,a,0.3737627827567849,colour,0.06
045,62,1,1,11,34,534,855.1163573992787,856.0551541610791,"[83, 0, 171]",171,l,0.41550216319774336,colour,0.06
045,62,1,1,11,35,535,856.5571732113988,857.519111562721,"[66, 0, 188]",188,a,0.4386004296857209,colour,0.06
045,62,1,1,11,36,536,858.0260651066435,858.9431062221722,"[94, 0, 160]",160,l,0.3936894092903458,colour,0.06
045,62,1,1,11,37,537,859.44985654168,860.4390994322714,"[57, 0, 197]",197,a,0.4658514059310619,colour,0.06
045,62,1,1,11,38,538,860.9499567754272,861.8311153909019,"[51, 0, 203]",203,a,0.3577608292816876,colour,0.06
045,62,1,1,11,39,539,862.3430613237549,863.3671713800161,"[96, 0, 158]",158,l,0.5007382638887066,colour,0.06
045,62,1,1,11,40,540,863.8620169235526,864.775084135302,"[52, 0, 202]",202,a,0.3899246376126939,colour,0.06
045,62,1,1,11,41,541,865.2840041511347,866.2071124606894,"[86, 0, 168]",168,l,0.3997554217794459,colour,0.06
045,62,1,1,11,42,542,866.7235395706687,867.6471161628394,"[56, 0, 198]",198,a,0.40033595043814785,colour,0.06
045,62,1,1,11,43,543,868.1610911890796,869.0950916971408,"[79, 0, 175]",175,l,0.4107480509560446,colour,0.06
045,62,1,1,11,44,544,869.6143348043472,870.5431719944152,"[93, 0, 161]",161,l,0.40552014225704625,colour,0.06
045,62,1,1,11,45,545,871.0518501889476,872.0071112791522,"[90, 0, 164]",164,l,0.43175420873467374,colour,0.06
045,62,1,1,11,46,546,872.5159588273639,873.5350887039128,"[78, 0, 176]",176,l,0.4957163365256747,colour,0.06
045,62,1,1,11,47,547,874.0473465626126,874.9750904368341,"[54, 0, 200]",200,a,0.4043126111382662,colour,0.06
045,62,1,1,11,48,548,875.484988371704,876.3831048043278,"[65, 0, 189]",189,a,0.37470564952081986,colour,0.06
045,62,1,1,11,49,549,876.8913155039356,877.831046074047,"[91, 0, 163]",163,l,0.41622329479559994,colour,0.06
045,62,1,1,11,50,550,878.3447402882559,879.1752263136234,"[97, 0, 157]",157,l,0.3072902820526906,colour,0.06
045,62,1,1,12,1,551,884.0151386435557,885.20712821452,"[68, 0, 186]",186,l,0.6653078987737899,colour,0.06
045,62,1,1,12,2,552,885.7235785613996,886.5271082071552,"[75, 0, 179]",179,l,0.2808770157521394,colour,0.06
045,62,1,1,12,3,553,887.0237205427982,887.9430967698738,"[74, 0, 180]",180,l,0.39597213935030595,colour,0.06
045,62,1,1,12,4,554,888.4613462042132,889.3990870655145,"[97, 0, 157]",157,l,0.41449943187762983,colour,0.06
045,62,1,1,12,5,555,889.9145673702722,890.8151031974369,"[71, 0, 183]",183,l,0.37719554245359177,colour,0.06
045,62,1,1,12,6,556,891.3209776039605,892.1991122716433,"[91, 0, 163]",163,l,0.35491450593008267,colour,0.06
045,62,1,1,12,7,557,892.7132188423691,893.615077991308,"[81, 0, 173]",173,l,0.3785129565412717,colour,0.06
045,62,1,1,12,8,558,894.1352017376478,895.0550560934832,"[47, 0, 207]",207,a,0.40629995687368137,colour,0.06
045,62,1,1,12,9,559,895.5629430518713,896.4630948794145,"[72, 0, 182]",182,l,0.37688282891531344,colour,0.06
045,62,1,1,12,10,560,896.9693186271327,897.9591168402542,"[73, 0, 181]",181,l,0.4668253865102088,colour,0.06
045,62,1,1,12,11,561,898.4694767562075,899.3830543920697,"[41, 0, 213]",213,a,0.3895461518313823,colour,0.06
045,62,1,1,12,12,562,899.8921937799939,900.8310996370712,"[95, 0, 159]",159,l,0.41551988625724334,colour,0.06
045,62,1,1,12,13,563,901.3454574813957,902.271100582301,"[92, 0, 162]",162,l,0.4025781143845961,colour,0.06
045,62,1,1,12,14,564,902.7830508474578,903.7110778967851,"[51, 0, 203]",203,a,0.40473757072004446,colour,0.06
045,62,1,1,12,15,565,904.2206190073905,905.1430944067995,"[94, 0, 160]",160,l,0.3991213300960226,colour,0.06
045,62,1,1,12,16,566,905.6582722380087,906.6150468774924,"[50, 0, 204]",204,a,0.43346192397621053,colour,0.06
045,62,1,1,12,17,567,907.1271093886924,908.143095194491,"[57, 0, 197]",197,a,0.4926407949383247,colour,0.06
045,62,1,1,12,18,568,908.6585085454687,909.5910663964885,"[87, 0, 167]",167,l,0.40922701860699817,colour,0.06
045,62,1,1,12,19,569,910.1117580684229,911.1350445931869,"[96, 0, 158]",158,l,0.5001506460052951,colour,0.06
045,62,1,1,12,20,570,911.6430957852597,912.6150657820892,"[82, 0, 172]",172,l,0.44864507210331794,colour,0.06
045,62,1,1,12,21,571,913.1276119358897,914.1111968382063,"[54, 0, 200]",200,a,0.4603304759821185,colour,0.06
045,62,1,1,12,22,572,914.6276979911897,915.5350741316195,"[89, 0, 165]",165,l,0.3841185633295936,colour,0.06
045,62,1,1,12,23,573,916.0504851195226,917.0630318640917,"[98, 0, 156]",156,l,0.48922221368866303,colour,0.06
045,62,1,1,12,24,574,917.5817763625589,918.5910514303494,"[90, 0, 164]",164,l,0.48593360154200127,colour,0.06
045,62,1,1,12,25,575,919.0975146362932,921.0950483741065,"[67, 0, 187]",187,l,1.4742753730211007,colour,0.06
045,62,1,1,12,26,576,921.6135156051539,923.3671371154344,"[63, 0, 191]",191,a,1.230419071587221,colour,0.06
045,62,1,1,12,27,577,923.879109042108,924.8630373779326,"[64, 0, 190]",190,a,0.4607093556091968,colour,0.06
045,62,1,1,12,28,578,925.3811154893631,926.3350528639482,"[77, 0, 177]",177,l,0.4301496810835488,colour,0.06
045,62,1,1,12,29,579,926.8504307688065,927.8150787789994,"[62, 0, 192]",192,a,0.4411876025228594,colour,0.06
045,62,1,1,12,30,580,928.3348728764329,929.3350292332022,"[86, 0, 168]",168,l,0.4766660168211274,colour,0.06
045,62,1,1,12,31,581,929.8506954331617,931.3990724932212,"[66, 0, 188]",188,a,1.0249682461853808,colour,0.06
045,62,1,1,12,32,582,931.9133192730394,932.9590471295535,"[55, 0, 199]",199,a,0.5223985994844043,colour,0.06
045,62,1,1,12,33,583,933.4778314064431,934.4070372361482,"[8, 0, 246]",246,a,0.4059411633811578,colour,0.06
045,62,1,1,12,34,584,934.9154405263355,935.8550415211901,"[84, 0, 170]",170,l,0.41615200871183333,colour,0.06
045,62,1,1,12,35,585,936.3686455447184,937.4711206684353,"[85, 0, 169]",169,l,0.579050162166368,colour,0.06
045,62,1,1,12,36,586,937.9781864584013,938.9350249008987,"[53, 0, 201]",201,a,0.43376439752455553,colour,0.06
045,62,1,1,12,37,587,939.447036212149,940.3910628518768,"[79, 0, 175]",175,l,0.42362641366025855,colour,0.06
045,62,1,1,12,38,588,940.8974405932893,941.8390568969287,"[83, 0, 171]",171,l,0.4183484865493483,colour,0.06
045,62,1,1,12,39,589,942.3506400978315,943.3830413951594,"[99, 0, 155]",155,l,0.5090283234180788,colour,0.06
045,62,1,1,12,40,590,943.8976209746504,945.039044293864,"[56, 0, 198]",198,a,0.618079489890988,colour,0.06
045,62,1,1,12,41,591,945.5540362298723,946.9910191349966,"[65, 0, 189]",189,a,0.9137064234273566,colour,0.06
045,62,1,1,12,42,592,947.5073068235749,948.3989921486848,"[60, 0, 194]",194,a,0.36835606808017474,colour,0.06
045,62,1,1,12,43,593,948.9136709773086,949.798990179456,"[59, 0, 195]",195,a,0.362067138888051,colour,0.06
045,62,1,1,12,44,594,950.3199898387795,951.158994354221,"[69, 0, 185]",185,a,0.31560042771661756,colour,0.06
045,62,1,1,12,45,595,951.6794902848098,952.6230088634991,"[93, 0, 161]",161,l,0.42033346921016346,colour,0.06
045,62,1,1,12,46,596,953.1336543176328,954.1029863355213,"[52, 0, 202]",202,a,0.4459645578194795,colour,0.06
045,62,1,1,12,47,597,954.6200530510248,955.5909860519521,"[88, 0, 166]",166,l,0.4475474239529831,colour,0.06
045,62,1,1,12,48,598,956.1050335458133,957.2950869709914,"[58, 0, 196]",196,a,0.6666292513191365,colour,0.06
045,62,1,1,12,49,599,957.8083696163746,958.6950704294693,"[78, 0, 176]",176,l,0.3633561960800762,colour,0.06
045,62,1,1,12,50,600,959.2147219547353,960.3430487206904,"[70, 0, 184]",184,a,0.6049376443688743,colour,0.06
045,62,1,1,13,1,601,966.1526967604216,967.0470314859997,"[57, 0, 197]",197,a,0.37017918013089,colour,0.06
045,62,1,1,13,2,602,967.5598694795133,968.4230112265739,"[61, 0, 193]",193,a,0.3397719239169419,colour,0.06
045,62,1,1,13,3,603,968.9349469194369,969.8470724459596,"[94, 0, 160]",160,l,0.38874664492641386,colour,0.06
045,62,1,1,13,4,604,970.3569337531728,971.2309960556347,"[63, 0, 191]",191,a,0.3507377715814073,colour,0.06
045,62,1,1,13,5,605,971.7353640021031,972.5990854901313,"[39, 0, 215]",215,a,0.3401941265778987,colour,0.06
045,62,1,1,13,6,606,973.1105072142698,973.9910061380863,"[81, 0, 173]",173,l,0.3571842390801976,colour,0.06
045,62,1,1,13,7,607,974.5035081811614,975.5349717317201,"[79, 0, 175]",175,l,0.5081405950613771,colour,0.06
045,62,1,1,13,8,608,976.0505890948045,977.0069659500643,"[77, 0, 177]",177,l,0.43306532128963227,colour,0.06
045,62,1,1,13,9,609,977.5193687440062,978.4710718315603,"[56, 0, 198]",198,a,0.42836162130561206,colour,0.06
045,62,1,1,13,10,610,978.9882212546747,979.8470314859999,"[60, 0, 194]",194,a,0.33551090657374516,colour,0.06
045,62,1,1,13,11,611,980.3633030269018,981.0790227898854,"[52, 0, 202]",202,a,0.1923479706110811,colour,0.06
045,62,1,1,13,12,612,981.5978086421576,982.3429935822835,"[58, 0, 196]",196,a,0.22182850773833707,colour,0.06
045,62,1,1,13,13,613,982.8635383497469,983.767013054018,"[73, 0, 181]",181,l,0.3801749856738752,colour,0.06
045,62,1,1,13,14,614,984.2854153005144,985.1429620746219,"[78, 0, 176]",176,l,0.33177015948785993,colour,0.06
045,62,1,1,13,15,615,985.6628786580889,986.4870028927974,"[83, 0, 171]",171,l,0.3008296361063003,colour,0.06
045,62,1,1,13,16,616,987.0067308241421,987.7910061380865,"[82, 0, 172]",172,l,0.2608865862039238,colour,0.06
045,62,1,1,13,17,617,988.3037913562669,989.2149685021848,"[80, 0, 174]",174,l,0.3878242581422455,colour,0.06
045,62,1,1,13,18,618,989.7154184709727,990.4869871389667,"[90, 0, 164]",164,l,0.24809762648874312,colour,0.06
045,62,1,1,13,19,619,990.9847396581024,991.591036858056,"[62, 0, 192]",192,a,0.08301756749006017,colour,0.06
045,62,1,1,13,20,620,992.110099977748,993.5190056182098,"[98, 0, 156]",156,l,0.8856201003122806,colour,0.06
045,62,1,1,13,21,621,994.032029113079,994.7749616492686,"[89, 0, 165]",165,l,0.21957255919005547,colour,0.06
045,62,1,1,13,22,622,995.2837540590729,996.0149744098715,"[51, 0, 203]",203,a,0.20788203531628824,colour,0.06
045,62,1,1,13,23,623,996.5356715956466,998.0869516928476,"[71, 0, 183]",183,l,1.0277759726513978,colour,0.06
045,62,1,1,13,24,624,998.6003343750556,999.4629928733609,"[59, 0, 195]",195,a,0.33828554999581684,colour,0.06
045,62,1,1,13,25,625,999.9765496353973,1001.2469897383487,"[72, 0, 182]",182,l,0.7473833871918032,colour,0.06
045,62,1,1,13,26,626,1001.7579140352848,1002.6550234042845,"[68, 0, 186]",186,a,0.37375884429866346,colour,0.06
045,62,1,1,13,27,627,1003.1642900043914,1004.1189756859319,"[69, 0, 185]",185,a,0.4313398829885955,colour,0.06
045,62,1,1,13,28,628,1004.6331818996362,1005.647011399866,"[66, 0, 188]",188,a,0.4904683416930311,colour,0.06
045,62,1,1,13,29,629,1006.1645247364679,1007.4789975837564,"[75, 0, 179]",179,l,0.7911081441397982,colour,0.06
045,62,1,1,13,30,630,1007.9827019001089,1008.8949656664956,"[93, 0, 161]",161,l,0.38902233696262556,colour,0.06
045,62,1,1,13,31,631,1009.4046741615518,1010.4069655562187,"[92, 0, 162]",162,l,0.4789763160847542,colour,0.06
045,62,1,1,13,32,632,1010.909919596387,1013.951007949777,"[70, 0, 184]",184,l,2.5178299885983506,colour,0.06
045,62,1,1,13,33,633,1014.4726602115345,1015.5829393891061,"[55, 0, 199]",199,a,0.58695740361145,colour,0.06
045,62,1,1,13,34,634,1016.0977056514901,1017.0549501489725,"[91, 0, 163]",163,l,0.433899880467834,colour,0.06
045,62,1,1,13,35,635,1017.5666282667046,1018.6309539141378,"[76, 0, 178]",178,l,0.5408865074346068,colour,0.06
045,62,1,1,13,36,636,1019.1449210634626,1020.135012297834,"[67, 0, 187]",187,a,0.46692857410107536,colour,0.06
045,62,1,1,13,37,637,1020.632702589339,1021.6229478174052,"[50, 0, 204]",204,a,0.466936057170642,colour,0.06
045,62,1,1,13,38,638,1022.1336960652841,1023.1589187358338,"[99, 0, 155]",155,l,0.5008264853399851,colour,0.06
045,62,1,1,13,39,639,1023.6661523040964,1024.6789633191745,"[87, 0, 167]",167,l,0.48940338274132955,colour,0.06
045,62,1,1,13,40,640,1025.200332011981,1026.2789806483886,"[54, 0, 200]",200,a,0.5551563272310887,colour,0.06
045,62,1,1,13,41,641,1026.7971733689371,1027.7189323628975,"[85, 0, 169]",169,l,0.3984888137956659,colour,0.06
045,62,1,1,13,42,642,1028.237883236546,1029.2070281776953,"[53, 0, 201]",201,a,0.44653524033446956,colour,0.06
045,62,1,1,13,43,643,1029.7223698487435,1030.6949471557443,"[2, 0, 252]",252,a,0.449179126962008,colour,0.06
045,62,1,1,13,44,644,1031.2068513409465,1032.9509626575139,"[65, 0, 189]",189,l,1.220602072022757,colour,0.06
045,62,1,1,13,45,645,1033.472757097593,1034.4870214035484,"[74, 0, 180]",180,l,0.4909598612089212,colour,0.06
045,62,1,1,13,46,646,1035.0040837867484,1035.9750219076707,"[95, 0, 159]",159,l,0.4475387593461164,colour,0.06
045,62,1,1,13,47,647,1036.4885318020613,1037.5349866978593,"[24, 0, 230]",230,a,0.5230622296003276,colour,0.06
045,62,1,1,13,48,648,1038.0387626941413,1039.014980317558,"[86, 0, 168]",168,l,0.4533050552072382,colour,0.06
045,62,1,1,13,49,649,1039.523219374061,1040.4949873280127,"[88, 0, 166]",166,l,0.4483386600973063,colour,0.06
045,62,1,1,13,50,650,1041.0077548231336,1042.0949644849582,"[84, 0, 170]",170,l,0.5638311740740392,colour,0.06
045,62,1,1,14,1,651,1047.0729437804864,1048.918904006002,"[59, 0, 195]",195,a,1.322183953541753,colour,0.06
045,62,1,1,14,2,652,1049.434022366501,1050.8709316224674,"[88, 0, 166]",166,l,0.9147319978023916,colour,0.06
045,62,1,1,14,3,653,1051.3880519009952,1052.5509378452305,"[70, 0, 184]",184,l,0.6383089838186606,colour,0.06
045,62,1,1,14,4,654,1053.0613115457857,1054.0389344108955,"[77, 0, 177]",177,l,0.4544279094866397,colour,0.06
045,62,1,1,14,5,655,1054.5457560164866,1055.5590093203602,"[91, 0, 163]",163,l,0.49008237284215284,colour,0.06
045,62,1,1,14,6,656,1056.077191407073,1057.0949369157545,"[76, 0, 178]",178,l,0.49443318701969474,colour,0.06
045,62,1,1,14,7,657,1057.6085531485016,1058.6069683131389,"[50, 0, 204]",204,a,0.47516349522356904,colour,0.06
045,62,1,1,14,8,658,1059.1158339782558,1060.2788959715488,"[58, 0, 196]",196,a,0.6396653886372405,colour,0.06
045,62,1,1,14,9,659,1060.7879112980565,1061.6869190036489,"[80, 0, 174]",174,l,0.3757465838803,colour,0.06
045,62,1,1,14,10,660,1062.2011000112245,1063.1989610348694,"[99, 0, 155]",155,l,0.4736869674470654,colour,0.06
045,62,1,1,14,11,661,1063.7176137672725,1064.7189512674943,"[64, 0, 190]",190,a,0.47798224937150735,colour,0.06
045,62,1,1,14,12,662,1065.2333158071967,1066.1909541504454,"[52, 0, 202]",202,a,0.4329192045106538,colour,0.06
045,62,1,1,14,13,663,1066.7034467412216,1067.6149106068572,"[60, 0, 194]",194,a,0.3909009812664408,colour,0.06
045,62,1,1,14,14,664,1068.1225687408553,1069.0868847390673,"[98, 0, 156]",156,l,0.44089930742211436,colour,0.06
045,62,1,1,14,15,665,1069.6070533838245,1070.4468932461361,"[72, 0, 182]",182,l,0.3164806730037526,colour,0.06
045,62,1,1,14,16,666,1070.9665621006159,1071.854887921341,"[63, 0, 191]",191,a,0.3648977084080798,colour,0.06
045,62,1,1,14,17,667,1072.3729569743193,1073.294884140422,"[89, 0, 165]",165,l,0.3977042730298308,colour,0.06
045,62,1,1,14,18,668,1073.8132989899825,1074.7188736798782,"[57, 0, 197]",197,a,0.38225134055255694,colour,0.06
045,62,1,1,14,19,669,1075.2327707246566,1076.1829015799124,"[82, 0, 172]",172,l,0.4253999011448286,colour,0.06
045,62,1,1,14,20,670,1076.7044660140643,1077.6788660392706,"[85, 0, 169]",169,l,0.451029414371078,colour,0.06
045,62,1,1,14,21,671,1078.1889553831827,1079.198888961094,"[78, 0, 176]",176,l,0.48657360091237933,colour,0.06
045,62,1,1,14,22,672,1079.7203127923074,1080.6309204372476,"[31, 0, 223]",223,a,0.38727956944785547,colour,0.06
045,62,1,1,14,23,673,1081.1441278580894,1082.062893624228,"[54, 0, 200]",200,a,0.395409333751104,colour,0.06
045,62,1,1,14,24,674,1082.581808264066,1083.4709150809451,"[86, 0, 168]",168,l,0.36581733827188145,colour,0.06
045,62,1,1,14,25,675,1083.9881046763278,1084.9269022258193,"[97, 0, 157]",157,l,0.41541079097987677,colour,0.06
045,62,1,1,14,26,676,1085.4379163195902,1086.438852884822,"[95, 0, 159]",159,l,0.4775876159137624,colour,0.06
045,62,1,1,14,27,677,1086.9536250548924,1087.8869142775,"[51, 0, 203]",203,a,0.4099276702249881,colour,0.06
045,62,1,1,14,28,678,1088.4068422824937,1089.2868934036744,"[87, 0, 167]",167,l,0.3566107996448409,colour,0.06
045,62,1,1,14,29,679,1089.8003954211492,1090.6788624946587,"[83, 0, 171]",171,l,0.35580538505337245,colour,0.06
045,62,1,1,14,30,680,1091.1788217316218,1092.9428687331754,"[71, 0, 183]",183,l,1.2413809807940197,colour,0.06
045,62,1,1,14,31,681,1093.460149700776,1094.342849434733,"[93, 0, 161]",161,l,0.359253898580846,colour,0.06
045,62,1,1,14,32,682,1094.850896688348,1095.814914545315,"[90, 0, 164]",164,l,0.4406732399525026,colour,0.06
045,62,1,1,14,33,683,1096.3353356452083,1097.2628589658004,"[5, 0, 249]",249,a,0.40411844517575446,colour,0.06
045,62,1,1,14,34,684,1097.7730325927066,1098.8468680400072,"[65, 0, 189]",189,l,0.550508947191247,colour,0.06
045,62,1,1,14,35,685,1099.353125264615,1100.3268782012276,"[68, 0, 186]",186,l,0.4504748795325213,colour,0.06
045,62,1,1,14,36,686,1100.8376485044694,1101.7588604466607,"[53, 0, 201]",201,a,0.3979118297484092,colour,0.06
045,62,1,1,14,37,687,1102.2754683318465,1103.198838548836,"[56, 0, 198]",198,a,0.4001910151964694,colour,0.06
045,62,1,1,14,38,688,1103.7128714704033,1104.6228899220775,"[75, 0, 179]",179,l,0.39903389633582265,colour,0.06
045,62,1,1,14,39,689,1105.1381906331665,1106.3108730969864,"[62, 0, 192]",192,a,0.6493701421582045,colour,0.06
045,62,1,1,14,40,690,1106.8258480976267,1108.9268793827648,"[69, 0, 185]",185,l,1.5776953327304,colour,0.06
045,62,1,1,14,41,691,1109.4229363958782,1110.3428317116734,"[21, 0, 233]",233,a,0.3965077695920627,colour,0.06
045,62,1,1,14,42,692,1110.860538032701,1111.7988818718702,"[92, 0, 162]",162,l,0.41495471758298663,colour,0.06
045,62,1,1,14,43,693,1112.3130183748742,1113.3029103232882,"[79, 0, 175]",175,l,0.46666430359164224,colour,0.06
045,62,1,1,14,44,694,1113.8131276670745,1114.7908501751629,"[84, 0, 170]",170,l,0.4543050296074398,colour,0.06
045,62,1,1,14,45,695,1115.3003798642414,1116.2388237402354,"[55, 0, 199]",199,a,0.4149818929408866,colour,0.06
045,62,1,1,14,46,696,1116.7567124118525,1117.7348764210449,"[94, 0, 160]",160,l,0.45479851835216323,colour,0.06
045,62,1,1,14,47,697,1118.241165941006,1119.142846283967,"[61, 0, 193]",193,a,0.37824671680346,colour,0.06
045,62,1,1,14,48,698,1119.6635734020203,1120.694818368179,"[96, 0, 158]",158,l,0.507932644497032,colour,0.06
045,62,1,1,14,49,699,1121.2105440388489,1122.2628577842631,"[66, 0, 188]",188,a,0.5359579215182748,colour,0.06
045,62,1,1,14,50,700,1122.7836798191463,1123.7988606041988,"[81, 0, 173]",173,l,0.49177472809878964,colour,0.06
045,62,1,1,15,1,701,1129.0021354317435,1129.942886062389,"[91, 0, 163]",163,l,0.41664077130735677,colour,0.06
045,62,1,1,15,2,702,1130.4561273539668,1131.366829521891,"[60, 0, 194]",194,a,0.3873878770336887,colour,0.06
045,62,1,1,15,3,703,1131.8781539661256,1132.7588265759248,"[61, 0, 193]",193,a,0.3574398449823093,colour,0.06
045,62,1,1,15,4,704,1133.2687375077046,1135.094844755845,"[67, 0, 187]",187,a,1.3025653143972704,colour,0.06
045,62,1,1,15,5,705,1135.612768479736,1136.4788526485142,"[59, 0, 195]",195,a,0.3417903834679237,colour,0.06
045,62,1,1,15,6,706,1136.9895461518315,1137.9988192503936,"[90, 0, 164]",164,l,0.48662834547394596,colour,0.06
045,62,1,1,15,7,707,1138.5202202385524,1139.4788636761957,"[77, 0, 177]",177,l,0.4353295405985591,colour,0.06
045,62,1,1,15,8,708,1139.9890987430415,1140.942891182384,"[97, 0, 157]",157,l,0.43045806231793904,colour,0.06
045,62,1,1,15,9,709,1141.4579835490624,1142.342852585499,"[75, 0, 179]",179,l,0.3615571086206728,colour,0.06
045,62,1,1,15,10,710,1142.8486261675068,1143.7588064897907,"[51, 0, 203]",203,a,0.3867045546294321,colour,0.06
045,62,1,1,15,11,711,1144.2661574240913,1145.0308357604079,"[94, 0, 160]",160,l,0.2413329316104864,colour,0.06
045,62,1,1,15,12,712,1145.5487122228067,1146.5428265916787,"[99, 0, 155]",155,l,0.47071146268444863,colour,0.06
045,62,1,1,15,13,713,1147.0645135118637,1148.3667968326924,"[66, 0, 188]",188,l,0.7795176570903095,colour,0.06
045,62,1,1,15,14,714,1148.879652549265,1149.734830734936,"[95, 0, 159]",159,l,0.33208169148883826,colour,0.06
045,62,1,1,15,15,715,1150.240914667407,1151.1268462997207,"[76, 0, 178]",178,l,0.36245232004694117,colour,0.06
045,62,1,1,15,16,716,1151.6473331718569,1152.5908596274614,"[50, 0, 204]",204,a,0.42015978322751835,colour,0.06
045,62,1,1,15,17,717,1153.10340223665,1155.6788172023955,"[69, 0, 185]",185,l,2.0520152103235887,colour,0.06
045,62,1,1,15,18,718,1156.197432913297,1157.0867787945565,"[86, 0, 168]",168,l,0.3660237134536146,colour,0.06
045,62,1,1,15,19,719,1157.6038226670055,1158.6068206209768,"[57, 0, 197]",197,a,0.47964427850411084,colour,0.06
045,62,1,1,15,20,720,1159.1195845714863,1160.054836327546,"[81, 0, 173]",173,l,0.41193707132333657,colour,0.06
045,62,1,1,15,21,721,1160.5728029806248,1161.4148105700326,"[89, 0, 165]",165,l,0.31857750786184624,colour,0.06
045,62,1,1,15,22,722,1161.9255879624982,1162.8708229210358,"[10, 0, 244]",244,a,0.4218289015834671,colour,0.06
045,62,1,1,15,23,723,1163.378839848527,1164.2708422194785,"[70, 0, 184]",184,l,0.36893265828166477,colour,0.06
045,62,1,1,15,24,724,1164.785220149937,1165.7189055813853,"[54, 0, 200]",200,a,0.4101718545998665,colour,0.06
045,62,1,1,15,25,725,1166.2385783743227,1167.1748557047574,"[98, 0, 156]",156,l,0.4129579195491715,colour,0.06
045,62,1,1,15,26,726,1167.6934962279422,1168.6307967696773,"[84, 0, 170]",170,l,0.4124033847106148,colour,0.06
045,62,1,1,15,27,727,1169.1482478786481,1170.1668783587659,"[83, 0, 171]",171,l,0.4951960662683632,colour,0.06
045,62,1,1,15,28,728,1170.6694633654517,1171.6468148708284,"[30, 0, 224]",224,a,0.4538970053936282,colour,0.06
045,62,1,1,15,29,729,1172.1541248451697,1173.334793319588,"[64, 0, 190]",190,a,0.6573065281904746,colour,0.06
045,62,1,1,15,30,730,1173.8416980266359,1174.7355392634693,"[52, 0, 202]",202,a,0.3704836229085231,colour,0.06
045,62,1,1,15,31,731,1175.248132284916,1176.1187976676454,"[56, 0, 198]",198,a,0.34739244564434557,colour,0.06
045,62,1,1,15,32,732,1176.6387516664602,1177.238792232574,"[63, 0, 191]",191,a,0.07511308296579955,colour,0.06
045,62,1,1,15,33,733,1177.7497456740969,1178.902789806484,"[73, 0, 181]",181,l,0.6296431954283435,colour,0.06
045,62,1,1,15,34,734,1179.421861984628,1180.3428332870565,"[25, 0, 229]",229,a,0.39765583000053084,colour,0.06
045,62,1,1,15,35,735,1180.8569595500705,1181.8868221175906,"[96, 0, 158]",158,l,0.5125875076059856,colour,0.06
045,62,1,1,15,36,736,1182.4004198395867,1183.3427635763558,"[87, 0, 167]",167,l,0.41885221528400507,colour,0.06
045,62,1,1,15,37,737,1183.8536524271733,1184.8228009129346,"[71, 0, 183]",183,l,0.44518907550627773,colour,0.06
045,62,1,1,15,38,738,1185.3387235064877,1186.2067824179373,"[79, 0, 175]",175,l,0.3446855436941405,colour,0.06
045,62,1,1,15,39,739,1186.7139317032058,1187.6227741314226,"[74, 0, 180]",180,l,0.3856029680218853,colour,0.06
045,62,1,1,15,40,740,1188.1358697000667,1189.0867732807158,"[58, 0, 196]",196,a,0.4275562067141436,colour,0.06
045,62,1,1,15,41,741,1189.6048695090515,1190.550849229933,"[92, 0, 162]",162,l,0.4226000515936903,colour,0.06
045,62,1,1,15,42,742,1191.0581489642843,1192.0067902948529,"[53, 0, 201]",201,a,0.42531049815579536,colour,0.06
045,62,1,1,15,43,743,1192.5270077764847,1193.4068091994493,"[80, 0, 174]",174,l,0.35645916902467434,colour,0.06
045,62,1,1,15,44,744,1193.9177457056041,1195.3907851906117,"[68, 0, 186]",186,a,0.9497909663596147,colour,0.06
045,62,1,1,15,45,745,1195.9021962809145,1196.8228091836957,"[88, 0, 166]",166,l,0.3971016890077408,colour,0.06
045,62,1,1,15,46,746,1197.3400157144463,1198.2867512253526,"[62, 0, 192]",192,a,0.42338538005105875,colour,0.06
045,62,1,1,15,47,747,1198.7932798096938,1199.6628172181493,"[65, 0, 189]",189,a,0.34623178217179884,colour,0.06
045,62,1,1,15,48,748,1200.1840429449423,1201.0947817405229,"[93, 0, 161]",161,l,0.38738275703872205,colour,0.06
045,62,1,1,15,49,749,1201.6060211140718,1202.6467636708787,"[85, 0, 169]",169,l,0.5176255826454508,colour,0.06
045,62,1,1,15,50,750,1203.1530027785818,1204.0947703189956,"[82, 0, 172]",172,l,0.41854974173566006,colour,0.06
045,62,1,1,16,1,751,1209.558935277356,1210.550751950029,"[63, 0, 191]",191,a,0.4676969671909319,colour,0.06
045,62,1,1,16,2,752,1211.059934267142,1211.9027937449416,"[37, 0, 217]",217,a,0.3196271068286478,colour,0.06
045,62,1,1,16,3,753,1212.4193460978747,1213.2947841035973,"[77, 0, 177]",177,l,0.35229818850621086,colour,0.06
045,62,1,1,16,4,754,1213.8100560639448,1214.774772603301,"[93, 0, 161]",161,l,0.4414668391714258,colour,0.06
045,62,1,1,16,5,755,1215.294651377574,1216.2787348886302,"[91, 0, 163]",163,l,0.4609393615364752,colour,0.06
045,62,1,1,16,6,756,1216.7946980482973,1217.7508673468385,"[71, 0, 183]",183,l,0.4329644967733657,colour,0.06
045,62,1,1,16,7,757,1218.2636096358308,1219.2067402764403,"[35, 0, 219]",219,a,0.4198667619771186,colour,0.06
045,62,1,1,16,8,758,1219.7167985065369,1220.9347689011508,"[73, 0, 181]",181,l,0.694712817513846,colour,0.06
045,62,1,1,16,9,759,1221.4513984478538,1222.6147609454663,"[65, 0, 189]",189,a,0.640156514307364,colour,0.06
045,62,1,1,16,10,760,1223.1233201985772,1224.894765986692,"[72, 0, 182]",182,a,1.248145281826055,colour,0.06
045,62,1,1,16,11,761,1225.4046977922978,1226.3187602522978,"[92, 0, 162]",162,l,0.390724538363429,colour,0.06
045,62,1,1,16,12,762,1226.8266956537152,1227.9347637811559,"[68, 0, 186]",186,a,0.5847424150229017,colour,0.06
045,62,1,1,16,13,763,1228.4518147428287,1229.3187756122827,"[66, 0, 188]",188,a,0.34357450478819374,colour,0.06
045,62,1,1,16,14,764,1229.8269548042292,1230.742834074748,"[51, 0, 203]",203,a,0.39253465350429906,colour,0.06
045,62,1,1,16,15,765,1231.2489089487665,1232.19876096122,"[99, 0, 155]",155,l,0.4264510754942421,colour,0.06
045,62,1,1,16,16,766,1232.717867797792,1233.6067331872166,"[54, 0, 200]",200,a,0.36557354774276973,colour,0.06
045,62,1,1,16,17,767,1234.1241141916414,1235.0467254678395,"[74, 0, 180]",180,l,0.3992642961088677,colour,0.06
045,62,1,1,16,18,768,1235.5618154714432,1236.5107387955802,"[84, 0, 170]",170,l,0.425654719355407,colour,0.06
045,62,1,1,16,19,769,1237.030650652898,1237.934753541166,"[62, 0, 192]",192,a,0.3808012004419652,colour,0.06
045,62,1,1,16,20,770,1238.4526603296883,1239.286720111537,"[55, 0, 199]",199,a,0.31079275245019744,colour,0.06
045,62,1,1,16,21,771,1239.796461295792,1240.6868162099042,"[86, 0, 168]",168,l,0.36696618637188294,colour,0.06
045,62,1,1,16,22,772,1241.2028352956702,1243.9988038904087,"[67, 0, 187]",187,a,2.272712986867191,colour,0.06
045,62,1,1,16,23,773,1244.515620120005,1245.3747131325902,"[87, 0, 167]",167,l,0.3358283462612235,colour,0.06
045,62,1,1,16,24,774,1245.8876365906347,1246.766740512748,"[64, 0, 190]",190,a,0.35570574207440586,colour,0.06
045,62,1,1,16,25,775,1247.2784036643409,1248.1587296898663,"[79, 0, 175]",175,l,0.35717754370216426,colour,0.06
045,62,1,1,16,26,776,1248.669149864222,1249.7027775972654,"[58, 0, 196]",196,a,0.5103071406206254,colour,0.06
045,62,1,1,16,27,777,1250.2161614610102,1251.1267037275531,"[83, 0, 171]",171,l,0.3871224249869556,colour,0.06
045,62,1,1,16,28,778,1251.638232971586,1252.4707335180472,"[95, 0, 159]",159,l,0.30919176941142723,colour,0.06
045,62,1,1,16,29,779,1252.9820504792121,1253.902767751121,"[61, 0, 193]",193,a,0.39761959618999754,colour,0.06
045,62,1,1,16,30,780,1254.4197273405764,1255.2947754389904,"[97, 0, 157]",157,l,0.3518129705225874,colour,0.06
045,62,1,1,16,31,781,1255.8104310051142,1256.7106950787004,"[59, 0, 195]",195,a,0.37692969656154673,colour,0.06
045,62,1,1,16,32,782,1257.2185280802184,1258.0787214978743,"[69, 0, 185]",185,a,0.33676097303532515,colour,0.06
045,62,1,1,16,33,783,1258.593754393842,1260.7267261767622,"[70, 0, 184]",184,l,1.608287302609824,colour,0.06
045,62,1,1,16,34,784,1261.2362519273827,1262.118669273926,"[89, 0, 165]",165,l,0.3598147349516694,colour,0.06
045,62,1,1,16,35,785,1262.6162043901988,1263.5026842558188,"[76, 0, 178]",178,l,0.36307420251159783,colour,0.06
045,62,1,1,16,36,786,1264.0232246909789,1264.8707319426642,"[88, 0, 166]",166,l,0.3242158038492562,colour,0.06
045,62,1,1,16,37,787,1265.3827022939547,1266.3186952677463,"[50, 0, 204]",204,a,0.41117970591540143,colour,0.06
045,62,1,1,16,38,788,1266.8373767508908,1267.822730808388,"[81, 0, 173]",173,l,0.462017317398022,colour,0.06
045,62,1,1,16,39,789,1268.3250680860867,1269.2706890134757,"[90, 0, 164]",164,l,0.42225543654876674,colour,0.06
045,62,1,1,16,40,790,1269.77835029824,1270.6707244595943,"[56, 0, 198]",198,a,0.36915833190550984,colour,0.06
045,62,1,1,16,41,791,1271.173032986552,1272.0387138572667,"[52, 0, 202]",202,a,0.3554717976894608,colour,0.06
045,62,1,1,16,42,792,1272.5506015009462,1273.5587340221698,"[78, 0, 176]",176,l,0.4846520274195427,colour,0.06
045,62,1,1,16,43,793,1274.066356710049,1274.9666991589427,"[57, 0, 197]",197,a,0.37690527812446817,colour,0.06
045,62,1,1,16,44,794,1275.48837190068,1276.3186708493088,"[98, 0, 156]",156,l,0.30698268850937893,colour,0.06
045,62,1,1,16,45,795,1276.8339191789103,1277.6947151805882,"[82, 0, 172]",172,l,0.3375073107622484,colour,0.06
045,62,1,1,16,46,796,1278.2089210004472,1279.2067213718435,"[94, 0, 160]",160,l,0.4743584744778673,colour,0.06
045,62,1,1,16,47,797,1279.7247116556684,1280.6546909984584,"[60, 0, 194]",194,a,0.40666899035704773,colour,0.06
045,62,1,1,16,48,798,1281.164234865984,1282.0147097455167,"[85, 0, 169]",169,l,0.32713380712993967,colour,0.06
045,62,1,1,16,49,799,1282.5237825735064,1283.414724711656,"[17, 0, 237]",237,a,0.3679527700160179,colour,0.06
045,62,1,1,16,50,800,1283.9300774103856,1284.7827046570294,"[96, 0, 158]",158,l,0.32931334959903324,colour,0.06
