id,age,condition,counterbalance,block,trialinblock,trial,tstart,tend,trialstim,trialintensity,response,RT,trialtype,colourfreq
042,68,1,1,Practice,1,NA,6.3015613704919815e-06,1.2940243750344962,"[22, 0, 232]",232,a,0.6760378328617662,colour,0.5
042,68,1,1,Practice,2,NA,1.813232823740691,2.486022610682994,"[45, 0, 209]",209,a,0.1495507205836475,colour,0.5
042,68,1,1,Practice,3,NA,3.0007136485073715,4.854014765238389,"[92, 0, 162]",162,l,1.3301305796485394,colour,0.5
042,68,1,1,Practice,4,NA,5.375819839071482,6.046047265408561,"[73, 0, 181]",181,a,0.14706870447844267,colour,0.5
042,68,1,1,Practice,5,NA,6.551458903122693,7.870048226322979,"[62, 0, 192]",192,a,0.7956460351124406,colour,0.5
042,68,1,1,Practice,6,NA,8.379178555915132,8.974014844046906,"[18, 0, 236]",236,a,0.07154484046623111,colour,0.5
042,68,1,1,Practice,7,NA,9.488545586587861,10.118021791335195,"[27, 0, 227]",227,a,0.1061571876052767,colour,0.5
042,68,1,1,Practice,8,NA,10.6321992543526,11.206030960194767,"[11, 0, 243]",243,a,0.05062611633911729,colour,0.5
042,68,1,1,Practice,9,NA,11.725856959121302,12.830027982592583,"[63, 0, 191]",191,a,0.5807618158869445,colour,0.5
042,68,1,1,Practice,10,NA,13.35093114967458,14.134009566390887,"[93, 0, 161]",161,l,0.2601504884660244,colour,0.5
042,68,1,1,1,1,1,4.8732801247388124,5.944026639685035,"[59, 0, 195]",195,a,0.5465976649429649,colour,0.5
042,68,1,1,1,2,2,6.452238126890734,7.287967027164996,"[43, 0, 211]",211,a,0.3124567507766187,colour,0.5
042,68,1,1,1,3,3,7.795980016235262,8.495956188533455,"[26, 0, 228]",228,a,0.17681193677708507,colour,0.5
042,68,1,1,1,4,4,9.014674693113193,9.655989113962278,"[41, 0, 213]",213,a,0.11802454828284681,colour,0.5
042,68,1,1,1,5,5,10.170920397853479,10.951993745518848,"[5, 0, 249]",249,a,0.2576917093247175,colour,0.5
042,68,1,1,1,6,6,11.467874197755009,12.031968066934496,"[37, 0, 217]",217,a,0.040858741383999586,colour,0.5
042,68,1,1,1,7,7,12.545959634706378,13.191995478468016,"[35, 0, 219]",219,a,0.12304135574959219,colour,0.5
042,68,1,1,1,8,8,13.702211247058585,14.919961481820792,"[79, 0, 175]",175,l,0.6947301467880607,colour,0.5
042,68,1,1,1,9,9,15.436615446815267,15.968732584500685,"[12, 0, 242]",242,a,0.00890839728526771,colour,0.5
042,68,1,1,1,10,10,16.48345040390268,17.271963104372844,"[19, 0, 235]",235,a,0.2653000217396766,colour,0.5
042,68,1,1,1,11,11,17.783285973360762,18.655941852601245,"[39, 0, 215]",215,a,0.3492640007752925,colour,0.5
042,68,1,1,1,12,12,19.173984123859555,19.783976778853685,"[51, 0, 203]",203,a,0.0867835208773613,colour,0.5
042,68,1,1,1,13,13,20.299596505006775,20.96803311444819,"[14, 0, 240]",240,a,0.14512901403941214,colour,0.5
042,68,1,1,1,14,14,21.48703676345758,22.127946310909465,"[24, 0, 230]",230,a,0.11767402570694685,colour,0.5
042,68,1,1,1,15,15,22.64332697261125,25.415966900996864,"[99, 0, 155]",155,l,2.249353206716478,colour,0.5
042,68,1,1,1,16,16,25.92453678813763,26.53595398296602,"[84, 0, 170]",170,l,0.08812811016105115,colour,0.5
042,68,1,1,1,17,17,27.049548947950825,27.62399269011803,"[17, 0, 237]",237,a,0.05111921112984419,colour,0.5
042,68,1,1,1,18,18,28.143349224934354,28.69601762853563,"[38, 0, 216]",216,a,0.02948683872818947,colour,0.5
042,68,1,1,1,19,19,29.20578874484636,29.80796356126666,"[98, 0, 156]",156,l,0.07889557769522071,colour,0.5
042,68,1,1,1,20,20,30.31510693882592,30.968004757538438,"[75, 0, 179]",179,a,0.12958943541161716,colour,0.5
042,68,1,1,1,21,21,31.486938301939517,32.08793276245706,"[92, 0, 162]",162,l,0.07769395411014557,colour,0.5
042,68,1,1,1,22,22,32.59652076638304,33.20799191808328,"[97, 0, 157]",157,l,0.08808557479642332,colour,0.5
042,68,1,1,1,23,23,33.72157309856266,34.343990799738094,"[67, 0, 187]",187,a,0.09914082544855773,colour,0.5
042,68,1,1,1,24,24,34.8622051817365,35.52789550484158,"[49, 0, 205]",205,a,0.14266787189990282,colour,0.5
042,68,1,1,1,25,25,36.03416966460645,36.64793024188839,"[57, 0, 197]",197,a,0.09062745538540184,colour,0.5
042,68,1,1,1,26,26,37.162106917239726,37.7199244601652,"[46, 0, 208]",208,a,0.0347891841083765,colour,0.5
042,68,1,1,1,27,27,38.24022622499615,38.823914708569646,"[44, 0, 210]",210,a,0.059849590295925736,colour,0.5
042,68,1,1,1,28,28,39.33485239627771,39.919938244856894,"[28, 0, 226]",226,a,0.06155730551108718,colour,0.5
042,68,1,1,1,29,29,40.4288192698732,41.03993517276831,"[20, 0, 234]",234,a,0.08796505792997777,colour,0.5
042,68,1,1,1,30,30,41.55390153452754,42.13598942896351,"[70, 0, 184]",184,l,0.05881850188598037,colour,0.5
042,68,1,1,1,31,31,42.647590352920815,43.21594051341526,"[91, 0, 163]",163,l,0.045009088004007936,colour,0.5
042,68,1,1,1,32,32,43.72568327304907,44.415995651856065,"[63, 0, 191]",191,a,0.16698627243749797,colour,0.5
042,68,1,1,1,33,33,44.9288537313696,45.59993265219964,"[71, 0, 183]",183,a,0.1602058238349855,colour,0.5
042,68,1,1,1,34,34,46.11951210373081,46.6959207423497,"[3, 0, 251]",251,a,0.0531817814335227,colour,0.5
042,68,1,1,1,35,35,47.21334191900678,47.783947240328416,"[18, 0, 236]",236,a,0.04791566985659301,colour,0.5
042,68,1,1,1,36,36,48.28453584271483,49.15192718571052,"[68, 0, 186]",186,l,0.3442349841352552,colour,0.5
042,68,1,1,1,37,37,49.65962115954608,51.50393314054236,"[86, 0, 168]",168,l,1.3211997328326106,colour,0.5
042,68,1,1,1,38,38,52.018949495162815,52.54401600570418,"[42, 0, 212]",212,a,0.004867145791649818,colour,0.5
042,68,1,1,1,39,39,53.06256988295354,53.62392179784365,"[94, 0, 160]",160,l,0.03692343435250223,colour,0.5
042,68,1,1,1,40,40,54.14181913412176,54.67996132420376,"[62, 0, 192]",192,a,0.015133129665628076,colour,0.5
042,68,1,1,1,41,41,55.190441756974906,55.86391565389931,"[77, 0, 177]",177,l,0.1501907198689878,colour,0.5
042,68,1,1,1,42,42,56.37790170777589,56.99195766937919,"[81, 0, 173]",173,l,0.09086888283491135,colour,0.5
042,68,1,1,1,43,43,57.50288787391037,58.07193041522987,"[56, 0, 198]",198,a,0.04569910583086312,colour,0.5
042,68,1,1,1,44,44,58.58109855395742,59.21589994733222,"[30, 0, 224]",224,a,0.11154460394755006,colour,0.5
042,68,1,1,1,45,45,59.73729620943777,60.31195735419169,"[4, 0, 250]",250,a,0.0494504866655916,colour,0.5
042,68,1,1,1,46,46,60.832880607573316,61.4158948273398,"[10, 0, 244]",244,a,0.05745185725390911,colour,0.5
042,68,1,1,1,47,47,61.92889981134795,62.487952454714105,"[47, 0, 207]",207,a,0.03593527525663376,colour,0.5
042,68,1,1,1,48,48,63.00705417129211,63.55991359008476,"[87, 0, 167]",167,l,0.029538826318457723,colour,0.5
042,68,1,1,1,49,49,64.06959845451638,64.67992981662974,"[53, 0, 201]",201,a,0.08718288037925959,colour,0.5
042,68,1,1,1,50,50,65.19446449773386,65.72793567692861,"[78, 0, 176]",176,l,0.009900100994855165,colour,0.5
042,68,1,1,2,1,51,70.86598176881671,71.9998920862563,"[65, 0, 189]",189,a,0.6098441749345511,colour,0.5
042,68,1,1,2,2,52,72.50739701418206,74.37593011581339,"[92, 0, 162]",162,l,1.3453054567798972,colour,0.5
042,68,1,1,2,3,53,74.88243940169923,75.43231228808872,"[86, 0, 168]",168,l,0.026581438491120934,colour,0.5
042,68,1,1,2,4,54,75.94489349424839,76.51989295263775,"[38, 0, 216]",216,a,0.05180410901084542,colour,0.5
042,68,1,1,2,5,55,77.04017226793803,77.6159034918528,"[16, 0, 238]",238,a,0.052455136086791754,colour,0.5
042,68,1,1,2,6,56,78.13584606931545,78.66401569079608,"[33, 0, 221]",221,a,0.004960487596690655,colour,0.5
042,68,1,1,2,7,57,79.18270938307978,79.72792858770117,"[43, 0, 211]",211,a,0.021953356685116887,colour,0.5
042,68,1,1,2,8,58,80.24613469908945,80.81587316584773,"[24, 0, 230]",230,a,0.046528151258826256,colour,0.5
042,68,1,1,2,9,59,81.32432174822316,81.87992587802,"[36, 0, 218]",218,a,0.03238711878657341,colour,0.5
042,68,1,1,2,10,60,82.38670179760084,82.95992107316852,"[17, 0, 237]",237,a,0.049864418571814895,colour,0.5
042,68,1,1,2,11,61,83.48140476900153,84.2239631516859,"[60, 0, 194]",194,l,0.21934885485097766,colour,0.5
042,68,1,1,2,12,62,84.73325810860842,85.30390635901131,"[29, 0, 225]",225,a,0.04730127030052245,colour,0.5
042,68,1,1,2,13,63,85.82492059073411,86.3678712437395,"[66, 0, 188]",188,l,0.02760858810506761,colour,0.5
042,68,1,1,2,14,64,86.88137326133437,88.39993895380758,"[6, 0, 248]",248,a,0.9953183555044234,colour,0.5
042,68,1,1,2,15,65,88.91319599910639,89.48791937180795,"[75, 0, 179]",179,l,0.051504786126315594,colour,0.5
042,68,1,1,2,16,66,90.0069824915845,90.56788187776692,"[21, 0, 233]",233,a,0.03771742759272456,colour,0.5
042,68,1,1,2,17,67,91.08502539317124,91.61595863034017,"[71, 0, 183]",183,l,0.007431081961840391,colour,0.5
042,68,1,1,2,18,68,92.13291467516683,93.68794969795272,"[3, 0, 251]",251,a,1.0329526814166456,colour,0.5
042,68,1,1,2,19,69,94.19447552529164,94.84788179886527,"[90, 0, 164]",164,l,0.13026960706338286,colour,0.5
042,68,1,1,2,20,70,95.36717689363286,95.95990768237971,"[58, 0, 196]",196,a,0.06947911926545203,colour,0.5
042,68,1,1,2,21,71,96.47768922802061,97.16789014847018,"[53, 0, 201]",201,a,0.16691262344829738,colour,0.5
042,68,1,1,2,22,72,97.68283757986501,98.35987499332987,"[72, 0, 182]",182,l,0.15362584264948964,colour,0.5
042,68,1,1,2,23,73,98.87020812765695,99.49589829309843,"[47, 0, 207]",207,a,0.10228883451782167,colour,0.5
042,68,1,1,2,24,74,100.01092449366115,100.7679023577366,"[15, 0, 239]",239,a,0.23369980696588755,colour,0.5
042,68,1,1,2,25,75,101.2764651554171,102.12785454466939,"[18, 0, 236]",236,a,0.32801483990624547,colour,0.5
042,68,1,1,2,26,76,102.63595299841836,103.19989366154186,"[70, 0, 184]",184,l,0.04070317232981324,colour,0.5
042,68,1,1,2,27,77,103.71406679227948,104.34388524899259,"[96, 0, 158]",158,l,0.10651952587068081,colour,0.5
042,68,1,1,2,28,78,104.8533022981137,105.49587978236377,"[80, 0, 174]",174,l,0.11935259634628892,colour,0.5
042,68,1,1,2,29,79,106.00944402744062,106.59186354023404,"[54, 0, 200]",200,a,0.059115855721756816,colour,0.5
042,68,1,1,2,30,80,107.10320688900538,107.71191993891262,"[23, 0, 231]",231,a,0.08538773120380938,colour,0.5
042,68,1,1,2,31,81,108.22820053831674,108.96789723774418,"[55, 0, 199]",199,a,0.2168790481518954,colour,0.5
042,68,1,1,2,32,82,109.47824139986187,111.03185857785866,"[84, 0, 170]",170,l,1.0304883886128664,colour,0.5
042,68,1,1,2,33,83,111.52830116590485,112.05587096023373,"[87, 0, 167]",167,l,0.004807675257325172,colour,0.5
042,68,1,1,2,34,84,112.57521528587677,113.14392975345254,"[62, 0, 192]",192,a,0.045485247392207384,colour,0.5
042,68,1,1,2,35,85,113.65393796516582,114.32788250781596,"[28, 0, 226]",226,a,0.15062237484380603,colour,0.5
042,68,1,1,2,36,86,114.82902564504184,115.6798762534745,"[64, 0, 190]",190,l,0.32770409574732184,colour,0.5
042,68,1,1,2,37,87,116.18859974038787,116.75987538718618,"[2, 0, 252]",252,a,0.04796174983493984,colour,0.5
042,68,1,1,2,38,88,117.26667218049988,119.09582385630347,"[61, 0, 193]",193,a,1.3057125359773636,colour,0.5
042,68,1,1,2,39,89,119.61045227269642,120.44786880188622,"[51, 0, 203]",203,a,0.31411405373364687,colour,0.5
042,68,1,1,2,40,90,120.95413744822145,121.67186779365875,"[37, 0, 217]",217,a,0.19441959937103093,colour,0.5
042,68,1,1,2,41,91,122.18855090346187,123.03185818390921,"[19, 0, 235]",235,a,0.3199449402745813,colour,0.5
042,68,1,1,2,42,92,123.54798636492342,124.2558477234561,"[25, 0, 229]",229,a,0.1846337136812508,colour,0.5
042,68,1,1,2,43,93,124.76662275264971,125.53584055532701,"[42, 0, 212]",212,a,0.24567389953881502,colour,0.5
042,68,1,1,2,44,94,126.04798774351366,126.66387469391339,"[8, 0, 246]",246,a,0.09264355176128447,colour,0.5
042,68,1,1,2,45,95,127.17302707885392,127.8718610983342,"[40, 0, 214]",214,a,0.1755236671306193,colour,0.5
042,68,1,1,2,46,96,128.3917422357481,128.95191103802063,"[44, 0, 210]",210,a,0.036835212958976626,colour,0.5
042,68,1,1,2,47,97,129.4698702080641,130.0158570180647,"[82, 0, 172]",172,l,0.022748925257474184,colour,0.5
042,68,1,1,2,48,98,130.53238101419993,131.96787400078028,"[63, 0, 191]",191,l,0.912182240281254,colour,0.5
042,68,1,1,2,49,99,132.48555511562154,133.0238670532126,"[59, 0, 195]",195,a,0.015013400465250015,colour,0.5
042,68,1,1,2,50,100,133.53237274335697,134.10393235296942,"[9, 0, 245]",245,a,0.04824650031514466,colour,0.5
042,68,1,1,3,1,101,139.34405814716592,140.02382333646528,"[91, 0, 163]",163,l,0.1559412619099021,colour,0.5
042,68,1,1,3,2,102,140.53273468767293,142.1678838469088,"[12, 0, 242]",242,a,1.1243682221975178,colour,0.5
042,68,1,1,3,3,103,142.67658488452435,143.5838842249941,"[39, 0, 215]",215,a,0.3840307358186692,colour,0.5
042,68,1,1,3,4,104,144.09836770617403,144.65590128628537,"[42, 0, 212]",212,a,0.034216532250866294,colour,0.5
042,68,1,1,3,5,105,145.17652679234743,145.74384153215215,"[84, 0, 170]",170,l,0.04396027675829828,colour,0.5
042,68,1,1,3,6,106,146.25465082610026,146.85585126793012,"[98, 0, 156]",156,l,0.0778869385831058,colour,0.5
042,68,1,1,3,7,107,147.36404936457984,148.0318471561186,"[53, 0, 201]",201,a,0.14460874372161925,colour,0.5
042,68,1,1,3,8,108,148.55153452139348,149.38385389884934,"[19, 0, 235]",235,a,0.3089448281098157,colour,0.5
042,68,1,1,3,9,109,149.89528586296365,150.687841784209,"[43, 0, 211]",211,a,0.2694369778037071,colour,0.5
042,68,1,1,3,10,110,151.20776348770596,152.0158345689997,"[40, 0, 214]",214,a,0.2847886919043958,colour,0.5
042,68,1,1,3,11,111,152.53591656754725,153.99986766767688,"[82, 0, 172]",172,l,0.9407238489948213,colour,0.5
042,68,1,1,3,12,112,154.52035060129128,155.4558563879691,"[18, 0, 236]",236,a,0.41220961255021393,colour,0.5
042,68,1,1,3,13,113,155.97343510296196,156.74377812305465,"[0, 0, 254]",254,a,0.24715121532790363,colour,0.5
042,68,1,1,3,14,114,157.24224704760127,157.99184148479253,"[47, 0, 207]",207,a,0.22639869386330247,colour,0.5
042,68,1,1,3,15,115,158.5077758936677,159.60777018312365,"[73, 0, 181]",181,l,0.5763724048156291,colour,0.5
042,68,1,1,3,16,116,160.11722189071588,160.9518149397336,"[16, 0, 238]",238,a,0.3112645798828453,colour,0.5
042,68,1,1,3,17,117,161.4609417244792,162.15983048873022,"[34, 0, 220]",220,a,0.17569223325699568,colour,0.5
042,68,1,1,3,18,118,162.67966239526868,163.28781106416136,"[31, 0, 223]",223,a,0.08480562712065876,colour,0.5
042,68,1,1,3,19,119,163.80475056753494,164.47177090775222,"[69, 0, 185]",185,l,0.14376709540374577,colour,0.5
042,68,1,1,3,20,120,164.99215380451642,165.687799642561,"[99, 0, 155]",155,l,0.17241622391156852,colour,0.5
042,68,1,1,3,21,121,166.1952970875427,166.82380325021222,"[81, 0, 173]",173,l,0.10537304077297449,colour,0.5
042,68,1,1,3,22,122,167.33590041985735,168.1358531585429,"[75, 0, 179]",179,l,0.27669476764276624,colour,0.5
042,68,1,1,3,23,123,168.65000068908557,169.2877882211469,"[65, 0, 189]",189,a,0.11439407803118229,colour,0.5
042,68,1,1,3,24,124,169.7939666765742,170.42379419179633,"[32, 0, 222]",222,a,0.10458613699302077,colour,0.5
042,68,1,1,3,25,125,170.93659398239106,171.5518302996643,"[44, 0, 210]",210,a,0.09199764486402273,colour,0.5
042,68,1,1,3,26,126,172.06168176070787,172.59182612481527,"[35, 0, 219]",219,a,0.007104189833626151,colour,0.5
042,68,1,1,3,27,127,173.10860454523936,173.66384200472385,"[93, 0, 161]",161,l,0.032001543790102005,colour,0.5
042,68,1,1,3,28,128,174.17111259442754,174.79187614331022,"[79, 0, 175]",175,l,0.09764145477674901,colour,0.5
042,68,1,1,3,29,129,175.31168087455444,175.87980457372032,"[59, 0, 195]",195,a,0.044893297366797924,colour,0.5
042,68,1,1,3,30,130,176.38984586833976,176.9998400984332,"[76, 0, 178]",178,l,0.08684929297305644,colour,0.5
042,68,1,1,3,31,131,177.514756022254,178.10382128832862,"[95, 0, 159]",159,l,0.0657927228603512,colour,0.5
042,68,1,1,3,32,132,178.62414432084188,179.43978432985023,"[71, 0, 183]",183,l,0.2923753426875919,colour,0.5
042,68,1,1,3,33,133,179.95225840993226,180.78382317884825,"[33, 0, 221]",221,a,0.3082351179327816,colour,0.5
042,68,1,1,3,34,134,181.28352129622363,182.12783130793832,"[49, 0, 205]",205,a,0.320898047182709,colour,0.5
042,68,1,1,3,35,135,182.64290004386567,183.2637679616455,"[28, 0, 226]",226,a,0.09755835309624672,colour,0.5
042,68,1,1,3,36,136,183.78357978211716,184.45583551423624,"[25, 0, 229]",229,a,0.14886661036871374,colour,0.5
042,68,1,1,3,37,137,184.9737860194873,185.6638057709206,"[27, 0, 227]",227,a,0.16678029112517834,colour,0.5
042,68,1,1,3,38,138,186.17688676714897,186.79980110772885,"[89, 0, 165]",165,l,0.0997315940912813,colour,0.5
042,68,1,1,3,39,139,187.319371500751,187.9998511262238,"[41, 0, 213]",213,a,0.15724882972426713,colour,0.5
042,68,1,1,3,40,140,188.50676489179023,189.11185259139165,"[10, 0, 244]",244,a,0.08171354420483112,colour,0.5
042,68,1,1,3,41,141,189.63253008481115,190.27179335686378,"[9, 0, 245]",245,a,0.11544485855847597,colour,0.5
042,68,1,1,3,42,142,190.78994275443256,191.39176822942682,"[26, 0, 228]",228,a,0.07852221187204123,colour,0.5
042,68,1,1,3,43,143,191.89926843135618,192.47981048119254,"[74, 0, 180]",180,l,0.05716277426108718,colour,0.5
042,68,1,1,3,44,144,192.99303798819892,193.7437856059987,"[68, 0, 186]",186,l,0.22738488391041756,colour,0.5
042,68,1,1,3,45,145,194.2464344156906,194.9917808326427,"[85, 0, 169]",169,l,0.22198407677933574,colour,0.5
042,68,1,1,3,46,146,195.51207668962888,196.10378150991164,"[13, 0, 241]",241,a,0.06860438780859113,colour,0.5
042,68,1,1,3,47,147,196.62141418177634,197.29584000399336,"[92, 0, 162]",162,l,0.15098353126086295,colour,0.5
042,68,1,1,3,48,148,197.80893439101055,198.44781760196202,"[50, 0, 204]",204,a,0.11549527081660926,colour,0.5
042,68,1,1,3,49,149,198.96519978810102,199.66374866338447,"[55, 0, 199]",199,a,0.17518259678035975,colour,0.5
042,68,1,1,3,50,150,200.18408114789054,200.75978401489556,"[66, 0, 188]",188,l,0.05260085896588862,colour,0.5
042,68,1,1,4,1,151,205.82696149940602,208.05578982806765,"[87, 0, 167]",167,a,1.7048862476367503,colour,0.5
042,68,1,1,4,2,152,208.56218608026393,209.1677637239918,"[9, 0, 245]",245,a,0.08223263290710747,colour,0.5
042,68,1,1,4,3,153,209.68735184008256,210.4957655670587,"[3, 0, 251]",251,a,0.28512424835935235,colour,0.5
042,68,1,1,4,4,154,211.0153820400592,211.6397744838614,"[27, 0, 227]",227,a,0.10107027599588037,colour,0.5
042,68,1,1,4,5,155,212.15603578463197,212.6957927425392,"[14, 0, 240]",240,a,0.016526949824765325,colour,0.5
042,68,1,1,4,6,156,213.20290697552264,214.02376701659523,"[51, 0, 203]",203,a,0.2976839900948107,colour,0.5
042,68,1,1,4,7,157,214.53106872015633,215.12777144322172,"[64, 0, 190]",190,l,0.07342663523741066,colour,0.5
042,68,1,1,4,8,158,215.62802724610083,216.24776167585514,"[84, 0, 170]",170,l,0.0965768895111978,colour,0.5
042,68,1,1,4,9,159,216.7685455076862,217.54382380913012,"[22, 0, 232]",232,a,0.2518214383162558,colour,0.5
042,68,1,1,4,10,160,218.04980534152128,218.8317518455442,"[79, 0, 175]",175,l,0.2585668347310275,colour,0.5
042,68,1,1,4,11,161,219.34663783712313,220.02377528720535,"[69, 0, 185]",185,l,0.1571897529065609,colour,0.5
042,68,1,1,4,12,162,220.5309072432574,221.17577887908556,"[90, 0, 164]",164,l,0.1216699848882854,colour,0.5
042,68,1,1,4,13,163,221.6871045047883,222.30372125166468,"[7, 0, 247]",247,a,0.09403619053773582,colour,0.5
042,68,1,1,4,14,164,222.8120697971899,223.5277391478885,"[40, 0, 214]",214,a,0.1924736073706299,colour,0.5
042,68,1,1,4,15,165,224.0464202372823,224.87177366460674,"[31, 0, 223]",223,a,0.3046523032244295,colour,0.5
042,68,1,1,4,16,166,225.38764623971656,226.0557795879431,"[67, 0, 187]",187,l,0.14495099568739533,colour,0.5
042,68,1,1,4,17,167,226.5751278521493,227.21578573202714,"[32, 0, 222]",222,a,0.11740699829533696,colour,0.5
042,68,1,1,4,18,168,227.73131447983906,228.32772181881592,"[91, 0, 163]",163,l,0.07311786036007106,colour,0.5
042,68,1,1,4,19,169,228.84065236593597,229.6557268127799,"[33, 0, 221]",221,a,0.2920602662488818,colour,0.5
042,68,1,1,4,20,170,230.16878181532957,230.73578502307646,"[73, 0, 181]",181,l,0.043555403128266335,colour,0.5
042,68,1,1,4,21,171,231.23461825493723,232.27178390463814,"[13, 0, 241]",241,a,0.5139915677718818,colour,0.5
042,68,1,1,4,22,172,232.78137306449935,233.59174696193077,"[19, 0, 235]",235,a,0.28701943438500166,colour,0.5
042,68,1,1,4,23,173,234.10947848903015,234.66380183235742,"[24, 0, 230]",230,a,0.030979120172560215,colour,0.5
042,68,1,1,4,24,174,235.17276595905423,235.75969697488472,"[29, 0, 225]",225,a,0.06439693341962993,colour,0.5
042,68,1,1,4,25,175,236.26573876594193,236.84776049433276,"[98, 0, 156]",156,l,0.058701135916635394,colour,0.5
042,68,1,1,4,26,176,237.36216126801446,237.97575091617182,"[96, 0, 158]",158,l,0.0905148156452924,colour,0.5
042,68,1,1,4,27,177,238.48710017255507,239.06377780786715,"[60, 0, 194]",194,a,0.051296441815793514,colour,0.5
042,68,1,1,4,28,178,239.58293426898308,240.19973494159058,"[94, 0, 160]",160,l,0.09350174176506698,colour,0.5
042,68,1,1,4,29,179,240.7086246313993,241.4957411487121,"[55, 0, 199]",199,l,0.2639861523639411,colour,0.5
042,68,1,1,4,30,180,242.0054370407015,243.5357145247981,"[28, 0, 226]",226,a,1.0068737901747227,colour,0.5
042,68,1,1,4,31,181,244.03990799747407,244.67175160930492,"[77, 0, 177]",177,l,0.10847181943245232,colour,0.5
042,68,1,1,4,32,182,245.18055504676886,245.83171955030411,"[12, 0, 242]",242,a,0.1279151972848922,colour,0.5
042,68,1,1,4,33,183,246.35297599690966,246.9357527277898,"[83, 0, 171]",171,l,0.05951718450523913,colour,0.5
042,68,1,1,4,34,184,247.44668687088415,248.83987176371738,"[2, 0, 252]",252,a,0.8699182572308928,colour,0.5
042,68,1,1,4,35,185,249.3529196770396,250.1037909623701,"[45, 0, 209]",209,a,0.2276286743581295,colour,0.5
042,68,1,1,4,36,186,250.6185079938732,251.35974226729013,"[57, 0, 197]",197,a,0.21786051173694432,colour,0.5
042,68,1,1,4,37,187,251.8685240431223,252.46372542646714,"[37, 0, 217]",217,a,0.07183983083814383,colour,0.5
042,68,1,1,4,38,188,252.97990874573588,253.6557114527095,"[35, 0, 219]",219,a,0.15248605282977223,colour,0.5
042,68,1,1,4,39,189,254.16735491203144,254.76775624090806,"[39, 0, 215]",215,a,0.07710712403059006,colour,0.5
042,68,1,1,4,40,190,255.27674596733414,255.93569798325188,"[34, 0, 220]",220,a,0.13572870334610343,colour,0.5
042,68,1,1,4,41,191,256.4502113966737,256.99180367565714,"[89, 0, 165]",165,l,0.018236634321510792,colour,0.5
042,68,1,1,4,42,192,257.5126509165857,258.1837113266811,"[76, 0, 178]",178,l,0.14778195903636515,colour,0.5
042,68,1,1,4,43,193,258.7001534027513,259.26372266956605,"[23, 0, 231]",231,a,0.04050506791099906,colour,0.5
042,68,1,1,4,44,194,259.7679125976283,260.50374055001885,"[8, 0, 246]",246,a,0.21264756913296878,colour,0.5
042,68,1,1,4,45,195,261.01788926217705,261.8957525701262,"[85, 0, 169]",169,l,0.35467268456704915,colour,0.5
042,68,1,1,4,46,196,262.40837670559995,262.97576706367545,"[78, 0, 176]",176,l,0.04470937140285969,colour,0.5
042,68,1,1,4,47,197,263.4865613915026,264.1677723885514,"[10, 0, 244]",244,a,0.1579203368164599,colour,0.5
042,68,1,1,4,48,198,264.6740780561231,265.3196905159857,"[81, 0, 173]",173,l,0.1223942672368139,colour,0.5
042,68,1,1,4,49,199,265.8315328673925,266.4637171556242,"[59, 0, 195]",195,a,0.10887984349392354,colour,0.5
042,68,1,1,4,50,200,266.97210193495266,267.5117655512877,"[82, 0, 172]",172,l,0.016226839274168015,colour,0.5
042,68,1,1,5,1,201,272.1620880125556,272.77572177140974,"[73, 0, 181]",181,a,0.08944197953678668,colour,0.4
042,68,1,1,5,2,202,273.28789652884007,273.90375866694376,"[53, 0, 201]",201,a,0.09259904734790325,colour,0.4
042,68,1,1,5,3,203,274.4131371192634,275.0557618648745,"[79, 0, 175]",175,l,0.1197141467127949,colour,0.4
042,68,1,1,5,4,204,275.56919338414446,276.3997538462281,"[67, 0, 187]",187,l,0.319796854397282,colour,0.4
042,68,1,1,5,5,205,276.9160761933308,277.46372463880107,"[29, 0, 225]",225,a,0.024327852996066213,colour,0.4
042,68,1,1,5,6,206,277.97856927639805,278.79174617421813,"[10, 0, 244]",244,a,0.2878717165440321,colour,0.4
042,68,1,1,5,7,207,279.30880501284264,280.06372109404765,"[59, 0, 195]",195,a,0.23151081195101142,colour,0.4
042,68,1,1,5,8,208,280.5744528004434,281.2157542244531,"[50, 0, 204]",204,a,0.11802139761857688,colour,0.4
042,68,1,1,5,9,209,281.73081193258986,282.3436875385232,"[95, 0, 159]",159,l,0.08981180097907782,colour,0.4
042,68,1,1,5,10,210,282.8464548958,283.55973123945296,"[83, 0, 171]",171,l,0.18994787451811135,colour,0.4
042,68,1,1,5,11,211,284.0808758342173,284.6877315074671,"[25, 0, 229]",229,a,0.0834830931853503,colour,0.4
042,68,1,1,5,12,212,285.20585057884455,285.8636801340617,"[6, 0, 248]",248,a,0.1345912767574191,colour,0.4
042,68,1,1,5,13,213,286.3777815848589,286.9837361390237,"[3, 0, 251]",251,a,0.08290138305164874,colour,0.4
042,68,1,1,5,14,214,287.50268504349515,288.1436902952846,"[72, 0, 182]",182,l,0.11781069007702172,colour,0.4
042,68,1,1,5,15,215,288.64650964015163,289.3197696788702,"[86, 0, 168]",168,l,0.14998119394294918,colour,0.4
042,68,1,1,5,16,216,289.8340192155447,290.3917768942192,"[47, 0, 207]",207,a,0.034444963093847036,colour,0.4
042,68,1,1,5,17,217,290.9120762955863,291.4876641596202,"[93, 0, 161]",161,l,0.05239369603805244,colour,0.4
042,68,1,1,5,18,218,292.0058450649958,292.6957037332468,"[98, 0, 156]",156,l,0.16654477128759027,colour,0.4
042,68,1,1,5,19,219,293.2089741695672,293.8157424090896,"[48, 0, 206]",206,a,0.08347364095970988,colour,0.4
042,68,1,1,5,20,220,294.33255076175556,295.0477313497104,"[71, 0, 183]",183,a,0.19188480777665973,colour,0.4
042,68,1,1,5,21,221,295.5689716488123,296.1517231736798,"[39, 0, 215]",215,a,0.05944550456479192,colour,0.4
042,68,1,1,5,22,222,296.66271678730845,297.35175271192566,"[54, 0, 200]",200,a,0.1661926731467247,colour,0.4
042,68,1,1,5,23,223,297.86583880265243,298.55166291515343,"[38, 0, 216]",216,a,0.1624980061315,colour,0.4
042,68,1,1,5,24,224,299.06896436284296,299.6796872075647,"[87, 0, 167]",167,l,0.08740697847679257,colour,0.4
042,68,1,1,5,25,225,300.1939603751525,300.86371676181443,"[52, 0, 202]",202,a,0.14652913575991988,colour,0.4
042,68,1,1,5,26,226,301.38142544589937,302.0237099088263,"[60, 0, 194]",194,a,0.11898316908627748,colour,0.4
042,68,1,1,5,27,227,302.5377751258202,303.1037141624838,"[19, 0, 235]",235,a,0.042777951806783676,colour,0.4
042,68,1,1,5,28,228,303.615827873582,304.1757481591776,"[15, 0, 239]",239,a,0.03663159464485943,colour,0.4
042,68,1,1,5,29,229,304.6939381228294,306.27170277247205,"[94, 0, 160]",160,l,1.0546015955042094,colour,0.4
042,68,1,1,5,30,230,306.7877415504772,307.5436627261806,"[65, 0, 189]",189,l,0.23279120470397174,colour,0.4
042,68,1,1,5,31,231,308.0409067904111,308.64770850678906,"[78, 0, 176]",176,l,0.08357682847417891,colour,0.4
042,68,1,1,5,32,232,309.165893350495,309.7676766840741,"[13, 0, 241]",241,a,0.0786565134767443,colour,0.4
042,68,1,1,5,33,233,310.2752044550143,310.8316868611146,"[76, 0, 178]",178,l,0.033132275100797415,colour,0.4
042,68,1,1,5,34,234,311.3533741750289,311.9676518717315,"[46, 0, 208]",208,a,0.09105714107863605,colour,0.4
042,68,1,1,5,35,235,312.478331590537,313.20765202934854,"[24, 0, 230]",230,a,0.2065823443699628,colour,0.4
042,68,1,1,5,36,236,313.72833070438355,314.35971824266016,"[70, 0, 184]",184,l,0.10823590587824583,colour,0.4
042,68,1,1,5,37,237,314.8689423073083,315.6637104602996,"[89, 0, 165]",165,l,0.27146449591964483,colour,0.4
042,68,1,1,5,38,238,316.181488461094,316.9756587562151,"[17, 0, 237]",237,a,0.2709044471848756,colour,0.4
042,68,1,1,5,39,239,317.49398105195723,318.16762312105857,"[45, 0, 209]",209,a,0.15110483579337597,colour,0.4
042,68,1,1,5,40,240,318.68143470119685,319.31169426534325,"[35, 0, 219]",219,a,0.10722057148814201,colour,0.4
042,68,1,1,5,41,241,319.8221179842949,320.45567640056834,"[74, 0, 180]",180,l,0.11031304835341871,colour,0.4
042,68,1,1,5,42,242,320.9626941413153,321.5756839623209,"[31, 0, 223]",223,a,0.08982479781843722,colour,0.4
042,68,1,1,5,43,243,322.08772993204184,322.71168914530426,"[69, 0, 185]",185,l,0.10073275002650917,colour,0.4
042,68,1,1,5,44,244,323.22829072899185,324.66362420795485,"[81, 0, 173]",173,l,0.9121365542523563,colour,0.4
042,68,1,1,5,45,245,325.1814628611319,326.04766872827895,"[75, 0, 179]",179,l,0.3430113052017987,colour,0.4
042,68,1,1,5,46,246,326.55644065816887,327.1196629467886,"[20, 0, 234]",234,a,0.04007104993797839,colour,0.4
042,68,1,1,5,47,247,327.6245964556001,328.4157038121484,"[9, 0, 245]",245,a,0.2677981855813414,colour,0.4
042,68,1,1,5,48,248,328.9370941664092,329.6236752504483,"[58, 0, 196]",196,a,0.16333256545476615,colour,0.4
042,68,1,1,5,49,249,330.1402252402622,330.767651084112,"[55, 0, 199]",199,a,0.10412573139183223,colour,0.4
042,68,1,1,5,50,250,331.28081281878985,331.83973667467944,"[82, 0, 172]",172,l,0.035778131103143096,colour,0.4
042,68,1,1,6,1,251,336.6862683703657,338.0156754553318,"[81, 0, 173]",173,l,0.8053173117805272,colour,0.28
042,68,1,1,6,2,252,338.5308737664018,339.14361270773225,"[36, 0, 218]",218,a,0.08957155491225421,colour,0.28
042,68,1,1,6,3,253,339.6558433910832,340.32763989875093,"[62, 0, 192]",192,l,0.1486736258957535,colour,0.28
042,68,1,1,6,4,254,340.8433214586694,341.4396736593917,"[99, 0, 155]",155,l,0.07309029111638665,colour,0.28
042,68,1,1,6,5,255,341.952695972519,342.5596615287941,"[56, 0, 198]",198,a,0.08386197267100215,colour,0.28
042,68,1,1,6,6,256,343.0776396035217,343.63971304381266,"[54, 0, 200]",200,a,0.03884894633665681,colour,0.28
042,68,1,1,6,7,257,344.1557916002348,344.95161762298085,"[67, 0, 187]",187,a,0.2715192404575646,colour,0.28
042,68,1,1,6,8,258,345.46924281166866,345.99966050474904,"[94, 0, 160]",160,l,0.00718492828309536,colour,0.28
042,68,1,1,6,9,259,346.5161057317164,347.19159218040295,"[42, 0, 212]",212,a,0.15221823775209486,colour,0.28
042,68,1,1,6,10,260,347.7036704455968,348.33561921399087,"[75, 0, 179]",179,l,0.10901690181344748,colour,0.28
042,68,1,1,6,11,261,348.84423281787895,349.5516837888863,"[37, 0, 217]",217,a,0.1841831540223211,colour,0.28
042,68,1,1,6,12,262,350.0629798762966,350.59963805554435,"[79, 0, 175]",175,l,0.0132765406742692,colour,0.28
042,68,1,1,6,13,263,351.1098605194129,351.7116304622032,"[77, 0, 177]",177,l,0.0907767228782177,colour,0.28
042,68,1,1,6,14,264,352.2225063161459,352.87962576770224,"[98, 0, 156]",156,l,0.13378980057314038,colour,0.28
042,68,1,1,6,15,265,353.3944132977631,354.0877508057747,"[69, 0, 185]",185,a,0.17014806624501944,colour,0.28
042,68,1,1,6,16,266,354.59750065463595,355.32768204039894,"[66, 0, 188]",188,a,0.20680880569852889,colour,0.28
042,68,1,1,6,17,267,355.84897669008933,356.5996798032429,"[70, 0, 184]",184,l,0.22740339441224933,colour,0.28
042,68,1,1,6,18,268,357.1146055732388,357.7916331405286,"[43, 0, 211]",211,a,0.15371957793831825,colour,0.28
042,68,1,1,6,19,269,358.30205410253257,359.08758223988116,"[96, 0, 158]",158,l,0.2621153851505369,colour,0.28
042,68,1,1,6,20,270,359.5988865979016,360.19981764932163,"[10, 0, 244]",244,a,0.07756437896750867,colour,0.28
042,68,1,1,6,21,271,360.70825165952556,361.35160895832814,"[85, 0, 169]",169,l,0.12004576483741403,colour,0.28
042,68,1,1,6,22,272,361.86452808394097,362.49574036104605,"[40, 0, 214]",214,a,0.10787238623015583,colour,0.28
042,68,1,1,6,23,273,363.005195613252,363.5836640652269,"[44, 0, 210]",210,a,0.055140770273283124,colour,0.28
042,68,1,1,6,24,274,364.09892972395755,364.6556334712077,"[97, 0, 157]",157,l,0.03334849630482495,colour,0.28
042,68,1,1,6,25,275,365.17696553631686,365.87959032156505,"[95, 0, 159]",159,l,0.1793073434382677,colour,0.28
042,68,1,1,6,26,276,366.3957779733464,366.9916311712004,"[23, 0, 231]",231,a,0.07274173758924007,colour,0.28
042,68,1,1,6,27,277,367.5051312195137,368.1036322424188,"[89, 0, 165]",165,l,0.07509339065290987,colour,0.28
042,68,1,1,6,28,278,368.6145919854753,369.23962600389495,"[12, 0, 242]",242,a,0.10179573972709477,colour,0.28
042,68,1,1,6,29,279,369.7586461943574,370.30365429772064,"[91, 0, 163]",163,l,0.01965841744095087,colour,0.28
042,68,1,1,6,30,280,370.8232022416778,371.5356377249118,"[83, 0, 171]",171,l,0.1891826323699206,colour,0.28
042,68,1,1,6,31,281,372.03267501993105,372.7596654673107,"[80, 0, 174]",174,l,0.20362141192890704,colour,0.28
042,68,1,1,6,32,282,373.267082961509,373.8636088480707,"[16, 0, 238]",238,a,0.07314779260195792,colour,0.28
042,68,1,1,6,33,283,374.37461191415787,374.9916051772889,"[5, 0, 249]",249,a,0.09305984666571021,colour,0.28
042,68,1,1,6,34,284,375.50033457181416,376.0876720366068,"[52, 0, 202]",202,a,0.06403302005492151,colour,0.28
042,68,1,1,6,35,285,376.5941269719042,377.1596646795515,"[88, 0, 166]",166,l,0.04241009964607656,colour,0.28
042,68,1,1,6,36,286,377.6721383656841,378.3115902899299,"[86, 0, 168]",168,l,0.11615850706584752,colour,0.28
042,68,1,1,6,37,287,378.8284675658215,379.5996132432483,"[90, 0, 164]",164,l,0.24807990342378616,colour,0.28
042,68,1,1,6,38,288,380.1115906839259,380.7356207894627,"[60, 0, 194]",194,a,0.10096945147961378,colour,0.28
042,68,1,1,6,39,289,381.2522105576936,381.8315675256308,"[78, 0, 176]",176,l,0.0530065200291574,colour,0.28
042,68,1,1,6,40,290,382.3490639270749,382.9676495087333,"[51, 0, 203]",203,a,0.09554461995139718,colour,0.28
042,68,1,1,6,41,291,383.4739992870018,384.0796060753055,"[72, 0, 182]",182,a,0.08229761733673513,colour,0.28
042,68,1,1,6,42,292,384.5990181423258,385.1676180011127,"[65, 0, 189]",189,a,0.04523318633437157,colour,0.28
042,68,1,1,6,43,293,385.677190619288,386.37557723000646,"[55, 0, 199]",199,a,0.1751191874500364,colour,0.28
042,68,1,1,6,44,294,386.89585418254137,387.6235574905295,"[61, 0, 193]",193,a,0.20455246325582266,colour,0.28
042,68,1,1,6,45,295,388.13029245007783,388.7835754498374,"[73, 0, 181]",181,a,0.1300522042438388,colour,0.28
042,68,1,1,6,46,296,389.3020399240777,389.8875712121371,"[11, 0, 243]",243,a,0.06206576037220657,colour,0.28
042,68,1,1,6,47,297,390.39583665621467,391.6075728663709,"[84, 0, 170]",170,l,0.6886330205015838,colour,0.28
042,68,1,1,6,48,298,392.11515892646275,392.72761666192673,"[39, 0, 215]",215,a,0.08183799940161407,colour,0.28
042,68,1,1,6,49,299,393.2474840146024,393.87960804463364,"[31, 0, 223]",223,a,0.1070516116451472,colour,0.28
042,68,1,1,6,50,300,394.38985216990113,394.943663907703,"[82, 0, 172]",172,l,0.030502173118293285,colour,0.28
042,68,1,1,7,1,301,400.27964073373005,402.0955682503991,"[45, 0, 209]",209,a,1.2889607001561671,colour,0.14
042,68,1,1,7,2,302,402.59904965013266,403.17559771006927,"[87, 0, 167]",167,l,0.05325661227107048,colour,0.14
042,68,1,1,7,3,303,403.6927876994014,404.5115934407804,"[83, 0, 171]",171,l,0.2956415058579296,colour,0.14
042,68,1,1,7,4,304,405.0209084840026,405.7195664544124,"[97, 0, 157]",157,l,0.17537794425152242,colour,0.14
042,68,1,1,7,5,305,406.2259189898614,407.19162644515745,"[61, 0, 193]",193,a,0.4424798106774688,colour,0.14
042,68,1,1,7,6,306,407.7103859097697,408.559555584332,"[62, 0, 192]",192,a,0.3258853161241859,colour,0.14
042,68,1,1,7,7,307,409.06972527271137,409.7516609460581,"[48, 0, 206]",206,a,0.15881436690688133,colour,0.14
042,68,1,1,7,8,308,410.27284256205894,410.8876078398898,"[70, 0, 184]",184,a,0.09142341767437756,colour,0.14
042,68,1,1,7,9,309,411.3978677189443,412.09561472409405,"[71, 0, 183]",183,l,0.17454141564667225,colour,0.14
042,68,1,1,7,10,310,412.61665337416343,413.2075626263395,"[54, 0, 200]",200,a,0.06766506563872099,colour,0.14
042,68,1,1,7,11,311,413.7259144606069,414.28756924299523,"[88, 0, 166]",166,l,0.0383192237932235,colour,0.14
042,68,1,1,7,12,312,414.80469976132736,415.41556517849676,"[65, 0, 189]",189,a,0.08763501537032425,colour,0.14
042,68,1,1,7,13,313,415.9296217306983,416.5356282724533,"[84, 0, 170]",170,l,0.08259812160395086,colour,0.14
042,68,1,1,7,14,314,417.0546527951956,417.6635722203646,"[66, 0, 188]",188,a,0.08548973733559251,colour,0.14
042,68,1,1,7,15,315,418.1796551090665,418.73559006955475,"[99, 0, 155]",155,l,0.03257183264940977,colour,0.14
042,68,1,1,7,16,316,419.2421698537655,419.89554383186623,"[82, 0, 172]",172,l,0.1290703467093408,colour,0.14
042,68,1,1,7,17,317,420.4025336096529,420.99156815581955,"[89, 0, 165]",165,l,0.0655954061076045,colour,0.14
042,68,1,1,7,18,318,421.5119549911469,422.2315659504384,"[53, 0, 201]",201,a,0.19641560968011618,colour,0.14
042,68,1,1,7,19,319,422.74635584349744,423.34365445538424,"[51, 0, 203]",203,a,0.0739921978674829,colour,0.14
042,68,1,1,7,20,320,423.85575004969724,424.45556336664595,"[50, 0, 204]",204,a,0.07653644145466387,colour,0.14
042,68,1,1,7,21,321,424.9650985696353,425.55952762137167,"[96, 0, 158]",158,l,0.07177563407458365,colour,0.14
042,68,1,1,7,22,322,426.07445890503004,427.0715472032316,"[74, 0, 180]",180,a,0.47374998265877366,colour,0.14
042,68,1,1,7,23,323,427.5900360958185,428.19954313873313,"[81, 0, 173]",173,l,0.086208505788818,colour,0.14
042,68,1,1,7,24,324,428.71514514181763,429.2875991752371,"[28, 0, 226]",226,a,0.04923465917818248,colour,0.14
042,68,1,1,7,25,325,429.80878827441484,430.51153948390856,"[67, 0, 187]",187,l,0.17941880179569125,colour,0.14
042,68,1,1,7,26,326,431.0275400588289,431.80764218303375,"[85, 0, 169]",169,l,0.2568650268949568,colour,0.14
042,68,1,1,7,27,327,432.32438870193437,433.1195353406947,"[73, 0, 181]",181,l,0.27181816939264536,colour,0.14
042,68,1,1,7,28,328,433.6276566372253,434.26355370972306,"[80, 0, 174]",174,l,0.1126387077383697,colour,0.14
042,68,1,1,7,29,329,434.7838247541804,435.47959347232245,"[69, 0, 185]",185,l,0.17233587964437902,colour,0.14
042,68,1,1,7,30,330,435.98699284973554,436.62352716433816,"[90, 0, 164]",164,l,0.11395533382892609,colour,0.14
042,68,1,1,7,31,331,437.14323776657693,437.76754592731595,"[75, 0, 179]",179,l,0.10101631912402809,colour,0.14
042,68,1,1,7,32,332,438.28232321725227,439.89553477359004,"[15, 0, 239]",239,a,1.0899126254953444,colour,0.14
042,68,1,1,7,33,333,440.40736570348963,441.00753348181024,"[92, 0, 162]",162,l,0.07689484138973057,colour,0.14
042,68,1,1,7,34,334,441.5166563279927,442.0875393105671,"[55, 0, 199]",199,a,0.047573023941367865,colour,0.14
042,68,1,1,7,35,335,442.5948063558899,443.2555889666546,"[64, 0, 190]",190,a,0.13758686766959727,colour,0.14
042,68,1,1,7,36,336,443.7666700142436,445.0075519925449,"[94, 0, 160]",160,l,0.7174727704841644,colour,0.14
042,68,1,1,7,37,337,445.5166200941894,446.2315289287362,"[79, 0, 175]",175,l,0.19157248828560114,colour,0.14
042,68,1,1,7,38,338,446.75294921547174,447.2875215874519,"[60, 0, 194]",194,a,0.011340001132339239,colour,0.14
042,68,1,1,7,39,339,447.79987436300144,448.38352346234024,"[91, 0, 163]",163,l,0.06030054367147386,colour,0.14
042,68,1,1,7,40,340,448.8936080799904,449.46354898344725,"[52, 0, 202]",202,a,0.04658092651516199,colour,0.14
042,68,1,1,7,41,341,449.97170730168,450.5515534260776,"[56, 0, 198]",198,a,0.05654286127537489,colour,0.14
042,68,1,1,7,42,342,451.06539690773934,451.6475348207168,"[20, 0, 234]",234,a,0.05881928978487849,colour,0.14
042,68,1,1,7,43,343,452.1620608372614,452.71954006678425,"[86, 0, 168]",168,l,0.034379190765321255,colour,0.14
042,68,1,1,7,44,344,453.2402144095395,453.8555373728741,"[11, 0, 243]",243,a,0.09199646324850619,colour,0.14
042,68,1,1,7,45,345,454.36522184335627,454.97555438708514,"[98, 0, 156]",156,l,0.08701392053626478,colour,0.14
042,68,1,1,7,46,346,455.49018674180843,456.11153672705404,"[68, 0, 186]",186,a,0.09795653121545911,colour,0.14
042,68,1,1,7,47,347,456.6307967696339,457.263591124909,"[6, 0, 248]",248,a,0.10943122766911983,colour,0.14
042,68,1,1,7,48,348,457.7714501202572,458.40751694026403,"[72, 0, 182]",182,a,0.11267730453982949,colour,0.14
042,68,1,1,7,49,349,458.92767298198305,459.4955729765352,"[76, 0, 178]",178,l,0.04464596207253635,colour,0.14
042,68,1,1,7,50,350,460.00581119419076,460.59169024811126,"[77, 0, 177]",177,l,0.0627636550925672,colour,0.14
042,68,1,1,8,1,351,465.0518395549152,465.9515695737209,"[60, 0, 194]",194,l,0.37561070709489286,colour,0.06
042,68,1,1,8,2,352,466.4589335049968,468.2235330720432,"[68, 0, 186]",186,a,1.2414053992833942,colour,0.06
042,68,1,1,8,3,353,468.7277785325423,469.2555054714903,"[55, 0, 199]",199,a,0.00453277095220983,colour,0.06
042,68,1,1,8,4,354,469.7745626834221,470.4555172866676,"[77, 0, 177]",177,l,0.15762140788137913,colour,0.06
042,68,1,1,8,5,355,470.96201987727545,471.7115016747266,"[84, 0, 170]",170,l,0.22627266333438456,colour,0.06
042,68,1,1,8,6,356,472.227714138804,472.84756435919553,"[81, 0, 173]",173,l,0.09656074177473783,colour,0.06
042,68,1,1,8,7,357,473.36826193891466,473.96751560107805,"[70, 0, 184]",184,a,0.0758546944707632,colour,0.06
042,68,1,1,8,8,358,474.4777104957029,475.0395322686527,"[89, 0, 165]",165,l,0.03858231287449598,colour,0.06
042,68,1,1,8,9,359,475.54649093258195,476.29551193048246,"[99, 0, 155]",155,l,0.22572718700394034,colour,0.06
042,68,1,1,8,10,360,476.81211705878377,477.39946948969737,"[65, 0, 189]",189,a,0.06424372759647667,colour,0.06
042,68,1,1,8,11,361,477.90593702788465,478.50351054407656,"[79, 0, 175]",175,l,0.07428128062747419,colour,0.06
042,68,1,1,8,12,362,479.01523907412775,479.607475980185,"[95, 0, 159]",159,l,0.06890134746208787,colour,0.06
042,68,1,1,8,13,363,480.1246352493763,480.88748771674,"[76, 0, 178]",178,l,0.23990642209537327,colour,0.06
042,68,1,1,8,14,364,481.4058832679875,483.20751694007777,"[54, 0, 200]",200,a,1.2783658551052213,colour,0.06
042,68,1,1,8,15,365,483.71832662797533,484.4715129386168,"[75, 0, 179]",179,l,0.22977828443981707,colour,0.06
042,68,1,1,8,16,366,484.98583888146095,485.5355081495363,"[34, 0, 220]",220,a,0.026462890906259418,colour,0.06
042,68,1,1,8,17,367,486.05009206128307,486.7195373098366,"[73, 0, 181]",181,l,0.14676623092964292,colour,0.06
042,68,1,1,8,18,368,487.2377091567032,487.8715086064767,"[28, 0, 226]",226,a,0.11062497412785888,colour,0.06
042,68,1,1,8,19,369,488.3782801935449,489.0234814782161,"[74, 0, 180]",180,a,0.12213432881981134,colour,0.06
042,68,1,1,8,20,370,489.5345069936011,490.2474895284977,"[50, 0, 204]",204,a,0.18969660089351237,colour,0.06
042,68,1,1,8,21,371,490.76889051659964,491.3594551535789,"[83, 0, 171]",171,l,0.06723262299783528,colour,0.06
042,68,1,1,8,22,372,491.8783540397417,492.78356284694746,"[85, 0, 169]",169,l,0.382130823796615,colour,0.06
042,68,1,1,8,23,373,493.3002372919582,494.0154820769094,"[98, 0, 156]",156,l,0.19200532464310527,colour,0.06
042,68,1,1,8,24,374,494.53445303672925,495.2715286924504,"[67, 0, 187]",187,a,0.21371882944367826,colour,0.06
042,68,1,1,8,25,375,495.7844450613484,496.4155257937964,"[86, 0, 168]",168,l,0.1077432045713067,colour,0.06
042,68,1,1,8,26,376,496.92508305213414,497.679450112395,"[96, 0, 158]",158,l,0.23092910181730986,colour,0.06
042,68,1,1,8,27,377,498.19153901119716,498.8554550590925,"[58, 0, 196]",196,a,0.14061948005110025,colour,0.06
042,68,1,1,8,28,378,499.3653435416054,500.0235248012468,"[90, 0, 164]",164,l,0.13488193484954536,colour,0.06
042,68,1,1,8,29,379,500.53720286791213,501.1595268335659,"[57, 0, 197]",197,a,0.09899510256946087,colour,0.06
042,68,1,1,8,30,380,501.6784773133695,502.31152648711577,"[97, 0, 157]",157,l,0.1098274365067482,colour,0.06
042,68,1,1,8,31,381,502.81911845481955,503.45548971765675,"[64, 0, 190]",190,a,0.11312943953089416,colour,0.06
042,68,1,1,8,32,382,503.97530980873853,504.5835191300139,"[71, 0, 183]",183,a,0.08481153496541083,colour,0.06
042,68,1,1,8,33,383,505.10031212260947,505.70348730729893,"[94, 0, 160]",160,l,0.07980733062140644,colour,0.06
042,68,1,1,8,34,384,506.2097701318562,506.87945129396394,"[66, 0, 188]",188,a,0.14650432346388698,colour,0.06
042,68,1,1,8,35,385,507.3973116087727,507.9515128599014,"[82, 0, 172]",172,l,0.03095352021045983,colour,0.06
042,68,1,1,8,36,386,508.4597397071775,509.1434764370788,"[93, 0, 161]",161,l,0.1604342544451356,colour,0.06
042,68,1,1,8,37,387,509.66285345191136,510.23149427049793,"[62, 0, 192]",192,a,0.04540372150950134,colour,0.06
042,68,1,1,8,38,388,510.73171383934096,511.3354648265522,"[51, 0, 203]",203,a,0.0804410285782069,colour,0.06
042,68,1,1,8,39,389,511.8567976793274,512.503548353212,"[91, 0, 163]",163,l,0.12351633375510573,colour,0.06
042,68,1,1,8,40,390,513.0129650086164,513.6554826283827,"[88, 0, 166]",166,l,0.11908320593647659,colour,0.06
042,68,1,1,8,41,391,514.1692343440372,514.7515246754047,"[69, 0, 185]",185,a,0.059054809622466564,colour,0.06
042,68,1,1,8,42,392,515.2629141041543,515.8795115523972,"[56, 0, 198]",198,a,0.09315436985343695,colour,0.06
042,68,1,1,8,43,393,516.3879475316498,517.1194703560323,"[52, 0, 202]",202,a,0.20839836704544723,colour,0.06
042,68,1,1,8,44,394,517.6379517656751,518.2234885676298,"[78, 0, 176]",176,l,0.062259138794615865,colour,0.06
042,68,1,1,8,45,395,518.7317099010106,519.3035282671917,"[63, 0, 191]",191,a,0.0485887520480901,colour,0.06
042,68,1,1,8,46,396,519.812072948087,520.3914492144249,"[92, 0, 162]",162,l,0.05611790157854557,colour,0.06
042,68,1,1,8,47,397,520.9060370647348,521.527435492957,"[72, 0, 182]",182,a,0.09822710347361863,colour,0.06
042,68,1,1,8,48,398,522.0465175171848,522.6474737746175,"[40, 0, 214]",214,a,0.07765653892420232,colour,0.06
042,68,1,1,8,49,399,523.1557809663936,523.7834781699348,"[53, 0, 201]",201,a,0.10429390333592892,colour,0.06
042,68,1,1,8,50,400,524.2964721263852,524.8554613606539,"[87, 0, 167]",167,l,0.03556821122765541,colour,0.06
042,68,1,1,9,1,401,529.790497289272,531.9114343270194,"[54, 0, 200]",200,a,1.5971942427568138,colour,0.06
042,68,1,1,9,2,402,532.4325289032422,533.0234739952721,"[57, 0, 197]",197,a,0.06763434573076665,colour,0.06
042,68,1,1,9,3,403,533.5419368939474,534.2235425245017,"[74, 0, 180]",180,l,0.15821965970098972,colour,0.06
042,68,1,1,9,4,404,534.7336610129569,535.3514100662433,"[61, 0, 193]",193,a,0.09449029481038451,colour,0.06
042,68,1,1,9,5,405,535.8620626095217,537.039431050187,"[86, 0, 168]",168,l,0.6542798234149814,colour,0.06
042,68,1,1,9,6,406,537.5495302402414,538.2715200278908,"[75, 0, 179]",179,l,0.1986097244080156,colour,0.06
042,68,1,1,9,7,407,538.7839220340829,539.3915090789087,"[50, 0, 204]",204,a,0.08431528927758336,colour,0.06
042,68,1,1,9,8,408,539.896474883426,540.5355089372024,"[77, 0, 177]",177,l,0.11563863069750369,colour,0.06
042,68,1,1,9,9,409,541.0527276771609,541.6394802809227,"[91, 0, 163]",163,l,0.0634694267064333,colour,0.06
042,68,1,1,9,10,410,542.1464105879422,542.8634599742945,"[92, 0, 162]",162,l,0.19367208005860448,colour,0.06
042,68,1,1,9,11,411,543.3808256187476,544.1594244337175,"[72, 0, 182]",182,a,0.25523096113465726,colour,0.06
042,68,1,1,9,12,412,544.6777904464398,545.3114756809082,"[28, 0, 226]",226,a,0.11056904797442257,colour,0.06
042,68,1,1,9,13,413,545.818289803341,546.5674604626838,"[64, 0, 190]",190,a,0.2258949652314186,colour,0.06
042,68,1,1,9,14,414,547.084000212606,547.6314241657965,"[82, 0, 172]",172,l,0.024033256340771914,colour,0.06
042,68,1,1,9,15,415,548.134727547178,548.7914574851748,"[83, 0, 171]",171,l,0.13141412287950516,colour,0.06
042,68,1,1,9,16,416,549.3088467603084,549.9114276317414,"[89, 0, 165]",165,l,0.07922207587398589,colour,0.06
042,68,1,1,9,17,417,550.4181464435533,551.0794237246737,"[62, 0, 192]",192,a,0.1378625596407801,colour,0.06
042,68,1,1,9,18,418,551.5901215604972,552.1995006033685,"[2, 0, 252]",252,a,0.08608759520575404,colour,0.06
042,68,1,1,9,19,419,552.7150990618393,553.3593933198135,"[98, 0, 156]",156,l,0.12111348076723516,colour,0.06
042,68,1,1,9,20,420,553.8713711542077,554.6074555001687,"[94, 0, 160]",160,l,0.21278620278462768,colour,0.06
042,68,1,1,9,21,421,555.1212855912745,555.9193888299633,"[76, 0, 178]",178,l,0.2871466465294361,colour,0.06
042,68,1,1,9,22,422,556.4370518280193,557.0074432911351,"[90, 0, 164]",164,l,0.04723037825897336,colour,0.06
042,68,1,1,9,23,423,557.5151124526747,558.2074224171229,"[80, 0, 174]",174,l,0.16888775979168713,colour,0.06
042,68,1,1,9,24,424,558.718185237376,559.327465031296,"[52, 0, 202]",202,a,0.08591981697827578,colour,0.06
042,68,1,1,9,25,425,559.8432816802524,560.5194061591756,"[78, 0, 176]",176,a,0.15281294495798647,colour,0.06
042,68,1,1,9,26,426,561.0336234006099,561.6314442520961,"[88, 0, 166]",166,l,0.0747787079308182,colour,0.06
042,68,1,1,9,27,427,562.1429589237086,562.9034246858209,"[63, 0, 191]",191,a,0.2370975143276155,colour,0.06
042,68,1,1,9,28,428,563.424183705356,564.031428498216,"[53, 0, 201]",201,a,0.08386984979733825,colour,0.06
042,68,1,1,9,29,429,564.5492277666926,565.3354494664818,"[66, 0, 188]",188,a,0.26281839958392084,colour,0.06
042,68,1,1,9,30,430,565.8463292589877,566.4794737431221,"[60, 0, 194]",194,a,0.10997473471798003,colour,0.06
042,68,1,1,9,31,431,566.9868798158132,567.5754118149634,"[99, 0, 155]",155,l,0.06522755441255867,colour,0.06
042,68,1,1,9,32,432,568.0962401512079,568.7274098929483,"[51, 0, 203]",203,a,0.10771287861280143,colour,0.06
042,68,1,1,9,33,433,569.2369198896922,569.975448442623,"[84, 0, 170]",170,l,0.22464450495317578,colour,0.06
042,68,1,1,9,34,434,570.4932551942766,572.7835451238789,"[70, 0, 184]",184,a,1.7669878480955958,colour,0.06
042,68,1,1,9,35,435,573.2901406618766,574.2314072304871,"[68, 0, 186]",186,a,0.41795109608210623,colour,0.06
042,68,1,1,9,36,436,574.7432988125365,575.3354683711659,"[65, 0, 189]",189,a,0.06924635637551546,colour,0.06
042,68,1,1,9,37,437,575.8526638741605,576.3994411327876,"[55, 0, 199]",199,a,0.0234125554561615,colour,0.06
042,68,1,1,9,38,438,576.9151258433703,577.4794934354722,"[56, 0, 198]",198,a,0.04107968881726265,colour,0.06
042,68,1,1,9,39,439,577.9932376681827,579.2314344057813,"[81, 0, 173]",173,l,0.7149171051569283,colour,0.06
042,68,1,1,9,40,440,579.7432137420401,580.375440959353,"[97, 0, 157]",157,l,0.10892080352641642,colour,0.06
042,68,1,1,9,41,441,580.8839084464125,581.4554018899798,"[96, 0, 158]",158,l,0.04845169396139681,colour,0.06
042,68,1,1,9,42,442,581.9619529235642,583.5274323420599,"[95, 0, 159]",159,l,1.0421907275449485,colour,0.06
042,68,1,1,9,43,443,584.0401466679759,584.983410428511,"[67, 0, 187]",187,a,0.419949863338843,colour,0.06
042,68,1,1,9,44,444,585.4932122649625,586.1274004406296,"[73, 0, 181]",181,a,0.11094044474884868,colour,0.06
042,68,1,1,9,45,445,586.6338325326797,587.3674368320499,"[79, 0, 175]",175,l,0.21025534998625517,colour,0.06
042,68,1,1,9,46,446,587.8838844220154,588.5434303572401,"[58, 0, 196]",196,a,0.1362395214382559,colour,0.06
042,68,1,1,9,47,447,589.0564467627555,589.895405592164,"[71, 0, 183]",183,l,0.31637827306985855,colour,0.06
042,68,1,1,9,48,448,590.416855417192,591.2154883784242,"[93, 0, 161]",161,l,0.275163495214656,colour,0.06
042,68,1,1,9,49,449,591.7294764015824,592.3113984870724,"[59, 0, 195]",195,a,0.058712163707241416,colour,0.06
042,68,1,1,9,50,450,592.8251206644345,593.6153678616975,"[42, 0, 212]",212,a,0.2668541371822357,colour,0.06
042,68,1,1,10,1,451,598.683744606562,599.8314064429142,"[96, 0, 158]",158,l,0.6237890720367432,colour,0.06
042,68,1,1,10,2,452,600.3407801690046,601.0153820400592,"[65, 0, 189]",189,a,0.15130884782411158,colour,0.06
042,68,1,1,10,3,453,601.5283106181305,602.1513533524703,"[86, 0, 168]",168,l,0.0998875570949167,colour,0.06
042,68,1,1,10,4,454,602.6689005596563,603.3513954938389,"[53, 0, 201]",201,a,0.15911959717050195,colour,0.06
042,68,1,1,10,5,455,603.872025331948,604.4154265446123,"[84, 0, 170]",170,l,0.02011173404753208,colour,0.06
042,68,1,1,10,6,456,604.9344628828112,605.7433842772152,"[70, 0, 184]",184,l,0.2856630296446383,colour,0.06
042,68,1,1,10,7,457,606.2626506213564,606.8633772667963,"[52, 0, 202]",202,a,0.07761164056137204,colour,0.06
042,68,1,1,10,8,458,607.3719900827855,607.9913885621354,"[57, 0, 197]",197,a,0.108524200739339,colour,0.06
042,68,1,1,10,9,459,608.5000955075957,609.1114441731479,"[60, 0, 194]",194,a,0.08792764251120389,colour,0.06
042,68,1,1,10,10,460,609.6252132181544,610.2634142881725,"[81, 0, 173]",173,l,0.11488559748977423,colour,0.06
042,68,1,1,10,11,461,610.7814187505282,611.3753562825732,"[92, 0, 162]",162,l,0.07072288426570594,colour,0.06
042,68,1,1,10,12,462,611.8908141381107,612.4634095621295,"[54, 0, 200]",200,a,0.049378806725144386,colour,0.06
042,68,1,1,10,13,463,612.9846155964769,614.2553861362394,"[80, 0, 174]",174,l,0.7475165072828531,colour,0.06
042,68,1,1,10,14,464,614.7658433320466,615.4873589293566,"[72, 0, 182]",182,l,0.19827810651622713,colour,0.06
042,68,1,1,10,15,465,616.0001772304531,616.6233448139392,"[61, 0, 193]",193,a,0.09988204319961369,colour,0.06
042,68,1,1,10,16,466,617.1407785934862,617.7833430808969,"[55, 0, 199]",199,a,0.11931596859358251,colour,0.06
042,68,1,1,10,17,467,618.297066045925,619.0074023311026,"[38, 0, 216]",216,a,0.18708185898140073,colour,0.06
042,68,1,1,10,18,468,619.5157768705394,620.1593716584612,"[51, 0, 203]",203,a,0.1202931001316756,colour,0.06
042,68,1,1,10,19,469,620.6719867351931,621.2553613239434,"[91, 0, 163]",163,l,0.06001146091148257,colour,0.06
042,68,1,1,10,20,470,621.7658689320087,622.351382890949,"[69, 0, 185]",185,a,0.06235563103109598,colour,0.06
042,68,1,1,10,21,471,622.8620783633087,623.5193750453182,"[77, 0, 177]",177,l,0.13413756620138884,colour,0.06
042,68,1,1,10,22,472,624.0342035354115,624.6394649210852,"[64, 0, 190]",190,a,0.08227556222118437,colour,0.06
042,68,1,1,10,23,473,625.1590475232806,625.7514222753234,"[87, 0, 167]",167,l,0.06909039337188005,colour,0.06
042,68,1,1,10,24,474,626.2683117603883,626.9514191246126,"[99, 0, 155]",155,l,0.1599903900641948,colour,0.06
042,68,1,1,10,25,475,627.4714877326041,628.1353348575067,"[93, 0, 161]",161,l,0.1404583971016109,colour,0.06
042,68,1,1,10,26,476,628.6433415450156,629.2953335184138,"[76, 0, 178]",178,a,0.12865917175076902,colour,0.06
042,68,1,1,10,27,477,629.8165249805897,630.4633457590826,"[43, 0, 211]",211,a,0.12344662309624255,colour,0.06
042,68,1,1,10,28,478,630.9727584759239,631.5993970220443,"[88, 0, 166]",166,l,0.10335300606675446,colour,0.06
042,68,1,1,10,29,479,632.1134386081249,632.871400692733,"[66, 0, 188]",188,a,0.23470332589931786,colour,0.06
042,68,1,1,10,30,480,633.3789828144945,633.9513754078653,"[83, 0, 171]",171,l,0.04931618529371917,colour,0.06
042,68,1,1,10,31,481,634.4572856542654,635.0633634820115,"[85, 0, 169]",169,l,0.08274463238194585,colour,0.06
042,68,1,1,10,32,482,635.5823998202104,636.143367735669,"[63, 0, 191]",191,a,0.03776075062341988,colour,0.06
042,68,1,1,10,33,483,636.6625568859745,637.2953563614283,"[82, 0, 172]",172,l,0.10968053201213479,colour,0.06
042,68,1,1,10,34,484,637.7964597202372,638.4073688541539,"[58, 0, 196]",196,a,0.0875152861699462,colour,0.06
042,68,1,1,10,35,485,638.921476212563,639.6153950369917,"[15, 0, 239]",239,a,0.17066400428302586,colour,0.06
042,68,1,1,10,36,486,640.1246257971507,640.6793398356531,"[89, 0, 165]",165,l,0.03148481831885874,colour,0.06
042,68,1,1,10,37,487,641.187081465032,641.7835530007724,"[97, 0, 157]",157,l,0.07321277726441622,colour,0.06
042,68,1,1,10,38,488,642.2964362865314,642.9034148396458,"[62, 0, 192]",192,a,0.0809679941739887,colour,0.06
042,68,1,1,10,39,489,643.4241108438,644.0793544079643,"[56, 0, 198]",198,a,0.1318694087676704,colour,0.06
042,68,1,1,10,40,490,644.5959776530508,645.1832891239319,"[71, 0, 183]",183,a,0.06422403501346707,colour,0.06
042,68,1,1,10,41,491,645.6897066438105,646.3033723041881,"[50, 0, 204]",204,a,0.0903159233275801,colour,0.06
042,68,1,1,10,42,492,646.8147467668168,647.503299836535,"[73, 0, 181]",181,l,0.16519781877286732,colour,0.06
042,68,1,1,10,43,493,648.0178160069045,648.5833864039741,"[68, 0, 186]",186,a,0.04218600154854357,colour,0.06
042,68,1,1,10,44,494,649.0959506747313,649.6473347470164,"[98, 0, 156]",156,l,0.028321842662990093,colour,0.06
042,68,1,1,10,45,495,650.1585481269285,651.5753259565681,"[67, 0, 187]",187,a,0.8938491137232631,colour,0.06
042,68,1,1,10,46,496,652.0959498870652,652.8393558256794,"[74, 0, 180]",180,l,0.22015151241794229,colour,0.06
042,68,1,1,10,47,497,653.3460198929533,653.8713786373846,"[95, 0, 159]",159,l,0.002253191778436303,colour,0.06
042,68,1,1,10,48,498,654.3928548500407,654.9913464207202,"[59, 0, 195]",195,a,0.07519500283524394,colour,0.06
042,68,1,1,10,49,499,655.5021273577586,656.0553463576362,"[90, 0, 164]",164,l,0.029803884448483586,colour,0.06
042,68,1,1,10,50,500,656.5646972407121,657.1993340067565,"[79, 0, 175]",175,l,0.1112500075250864,colour,0.06
042,68,1,1,11,1,501,662.3139124047011,662.9993158897851,"[76, 0, 178]",178,l,0.16128929355181754,colour,0.06
042,68,1,1,11,2,502,663.5178059639875,664.1433082649019,"[81, 0, 173]",173,l,0.10221282229758799,colour,0.06
042,68,1,1,11,3,503,664.6584660101216,665.2473052085843,"[93, 0, 161]",161,l,0.06550639681518078,colour,0.06
042,68,1,1,11,4,504,665.767771207029,666.4233574168757,"[75, 0, 179]",179,l,0.1323183928616345,colour,0.06
042,68,1,1,11,5,505,666.9397033946589,667.487326240167,"[12, 0, 242]",242,a,0.024382991483435035,colour,0.06
042,68,1,1,11,6,506,667.9964872894343,668.5993596066255,"[71, 0, 183]",183,l,0.07955920766107738,colour,0.06
042,68,1,1,11,7,507,669.1058523510583,669.6393952104263,"[55, 0, 199]",199,a,0.010269528487697244,colour,0.06
042,68,1,1,11,8,508,670.1526983357035,670.7433185048867,"[61, 0, 193]",193,a,0.06733069056645036,colour,0.06
042,68,1,1,11,9,509,671.2464942801744,671.8553684130311,"[62, 0, 192]",192,a,0.08556181099265814,colour,0.06
042,68,1,1,11,10,510,672.3715095911175,672.9033258303534,"[54, 0, 200]",200,a,0.00851337006315589,colour,0.06
042,68,1,1,11,11,511,673.418358726427,673.9593488152605,"[84, 0, 170]",170,l,0.01764350268058479,colour,0.06
042,68,1,1,11,12,512,674.4808356617577,675.1353151651565,"[83, 0, 171]",171,l,0.1311793909408152,colour,0.06
042,68,1,1,11,13,513,675.6545905675739,676.2233089739457,"[57, 0, 197]",197,a,0.04533085995353758,colour,0.06
042,68,1,1,11,14,514,676.7337019727565,677.3513273585122,"[53, 0, 201]",201,a,0.09429967333562672,colour,0.06
042,68,1,1,11,15,515,677.8607062047813,678.4233562352601,"[95, 0, 159]",159,l,0.03944798558950424,colour,0.06
042,68,1,1,11,16,516,678.932640952291,679.5513033340685,"[80, 0, 174]",174,l,0.09536896459758282,colour,0.06
042,68,1,1,11,17,517,680.0576672907919,680.6713286188897,"[60, 0, 194]",194,a,0.09066211385652423,colour,0.06
042,68,1,1,11,18,518,681.1826971739065,681.7913168822415,"[78, 0, 176]",176,l,0.0854208143427968,colour,0.06
042,68,1,1,11,19,519,682.3096021565143,682.8713065634947,"[92, 0, 162]",162,l,0.038481094408780336,colour,0.06
042,68,1,1,11,20,520,683.3877687258646,683.9753491934389,"[52, 0, 202]",202,a,0.06435676128603518,colour,0.06
042,68,1,1,11,21,521,684.4814406088553,685.1592842245009,"[99, 0, 155]",155,l,0.15454271552152932,colour,0.06
042,68,1,1,11,22,522,685.6688619628549,686.367294259835,"[68, 0, 186]",186,a,0.17498803697526455,colour,0.06
042,68,1,1,11,23,523,686.8876338335685,687.5193478700239,"[66, 0, 188]",188,a,0.10832137032411993,colour,0.06
042,68,1,1,11,24,524,688.0282722183038,688.5992788684089,"[67, 0, 187]",187,a,0.04782547918148339,colour,0.06
042,68,1,1,11,25,525,689.1063781350385,689.6553105176426,"[59, 0, 195]",195,a,0.025679137790575624,colour,0.06
042,68,1,1,11,26,526,690.1688767320011,690.751343900105,"[56, 0, 198]",198,a,0.05900833569467068,colour,0.06
042,68,1,1,11,27,527,691.2626521966886,691.8712813574821,"[51, 0, 203]",203,a,0.08519514091312885,colour,0.06
042,68,1,1,11,28,528,692.3876734150108,693.9353194974829,"[89, 0, 165]",165,l,1.0242234838660806,colour,0.06
042,68,1,1,11,29,529,694.4501566521358,694.9994482218754,"[97, 0, 157]",157,l,0.025943801971152425,colour,0.06
042,68,1,1,11,30,530,695.5125997166615,696.8873191508465,"[70, 0, 184]",184,a,0.851676502963528,colour,0.06
042,68,1,1,11,31,531,697.4033532028552,698.0073070204817,"[50, 0, 204]",204,a,0.08087504655122757,colour,0.06
042,68,1,1,11,32,532,698.5282661134843,699.4632969221566,"[69, 0, 185]",185,a,0.4119130466133356,colour,0.06
042,68,1,1,11,33,533,699.9813915751874,700.6393400719389,"[77, 0, 177]",177,l,0.13466216903179884,colour,0.06
042,68,1,1,11,34,534,701.1532485382631,701.7352915343363,"[85, 0, 169]",169,l,0.05897013260982931,colour,0.06
042,68,1,1,11,35,535,702.24682826153,702.8712711173575,"[87, 0, 167]",167,l,0.11255757533945143,colour,0.06
042,68,1,1,11,36,536,703.39172411873,704.1352828696836,"[72, 0, 182]",182,a,0.22030944447033107,colour,0.06
042,68,1,1,11,37,537,704.641753558768,705.1993269175291,"[91, 0, 163]",163,l,0.03433232312090695,colour,0.06
042,68,1,1,11,38,538,705.7198689279612,706.4793012386654,"[73, 0, 181]",181,l,0.24580071796663105,colour,0.06
042,68,1,1,11,39,539,706.979371933965,707.5193191193976,"[63, 0, 191]",191,a,0.016769952839240432,colour,0.06
042,68,1,1,11,40,540,708.0262687248178,708.6232999153435,"[58, 0, 196]",196,a,0.0740465484559536,colour,0.06
042,68,1,1,11,41,541,709.1383603806607,709.7592637445778,"[47, 0, 207]",207,a,0.09772376832552254,colour,0.06
042,68,1,1,11,42,542,710.2790137312841,710.9272369944956,"[82, 0, 172]",172,l,0.12548595643602312,colour,0.06
042,68,1,1,11,43,543,711.4351720022969,712.0233231522143,"[98, 0, 156]",156,l,0.06482189311645925,colour,0.06
042,68,1,1,11,44,544,712.5445831436664,713.255265619373,"[64, 0, 190]",190,a,0.18745207390747964,colour,0.06
042,68,1,1,11,45,545,713.7634207867086,714.2873605047353,"[65, 0, 189]",189,a,0.0007274332456290722,colour,0.06
042,68,1,1,11,46,546,714.8121032740455,715.3992792621721,"[96, 0, 158]",158,l,0.06398418312892318,colour,0.06
042,68,1,1,11,47,547,715.9058236002456,716.4872624371201,"[88, 0, 166]",166,l,0.05812493967823684,colour,0.06
042,68,1,1,11,48,548,716.9996467202436,717.5673852381296,"[94, 0, 160]",160,l,0.04448015312664211,colour,0.06
042,68,1,1,11,49,549,718.0778172279242,718.7512438632548,"[1, 0, 253]",253,a,0.1503175380639732,colour,0.06
042,68,1,1,11,50,550,719.2651598127559,719.8312804121524,"[79, 0, 175]",175,l,0.04275786550715566,colour,0.06
042,68,1,1,12,1,551,724.483102244325,725.6633028299548,"[89, 0, 165]",165,l,0.6560253479983658,colour,0.06
042,68,1,1,12,2,552,726.1714891111478,727.0232613184489,"[92, 0, 162]",162,l,0.32914714654907584,colour,0.06
042,68,1,1,12,3,553,727.5308265048079,728.3353135897778,"[88, 0, 166]",166,l,0.2812232063151896,colour,0.06
042,68,1,1,12,4,554,728.8433041295502,729.519302183995,"[73, 0, 181]",181,l,0.15275386814028025,colour,0.06
042,68,1,1,12,5,555,730.0336679052562,730.7752278889529,"[69, 0, 185]",185,l,0.2182571142911911,colour,0.06
042,68,1,1,12,6,556,731.2842282492202,731.8872777970973,"[61, 0, 193]",193,a,0.08027521939948201,colour,0.06
042,68,1,1,12,7,557,732.3871137602255,733.0232333554886,"[94, 0, 160]",160,l,0.1128462643828243,colour,0.06
042,68,1,1,12,8,558,733.5433760064188,734.1992627205327,"[45, 0, 209]",209,a,0.1326547369826585,colour,0.06
042,68,1,1,12,9,559,734.7152443910018,735.3592531108297,"[96, 0, 158]",158,l,0.12071451498195529,colour,0.06
042,68,1,1,12,10,560,735.8714550433215,736.5112433119211,"[99, 0, 155]",155,l,0.11648264224641025,colour,0.06
042,68,1,1,12,11,561,737.027654274134,737.6792776079383,"[77, 0, 177]",177,l,0.12825351068750024,colour,0.06
042,68,1,1,12,12,562,738.1996738954913,738.8473335655872,"[63, 0, 191]",191,a,0.12445368664339185,colour,0.06
042,68,1,1,12,13,563,739.3558238956612,739.9352596327662,"[85, 0, 169]",169,l,0.05606906465254724,colour,0.06
042,68,1,1,12,14,564,740.4495867572259,741.2072684234008,"[55, 0, 199]",199,a,0.2330353888683021,colour,0.06
042,68,1,1,12,15,565,741.716512180632,742.5433181109838,"[98, 0, 156]",156,l,0.3035018795635551,colour,0.06
042,68,1,1,12,16,566,743.0510467435233,743.7913263347,"[75, 0, 179]",179,l,0.21388660790398717,colour,0.06
042,68,1,1,12,17,567,744.2964981202967,744.9032494244166,"[86, 0, 168]",168,l,0.08346891473047435,colour,0.06
042,68,1,1,12,18,568,745.4214909817092,746.0552191454917,"[84, 0, 170]",170,l,0.11039260518737137,colour,0.06
042,68,1,1,12,19,569,746.5691520301625,747.3192301101517,"[67, 0, 187]",187,a,0.22672519204206765,colour,0.06
042,68,1,1,12,20,570,747.8348435347434,748.4872651940677,"[90, 0, 164]",164,l,0.12918495596386492,colour,0.06
042,68,1,1,12,21,571,749.0066752918065,749.8872265971731,"[70, 0, 184]",184,l,0.3572374084033072,colour,0.06
042,68,1,1,12,22,572,750.3973214549478,751.0472717317753,"[64, 0, 190]",190,a,0.1266442567575723,colour,0.06
042,68,1,1,12,23,573,751.5411499901675,752.1032541505992,"[0, 0, 254]",254,a,0.03881074348464608,colour,0.06
042,68,1,1,12,24,574,752.6192078578752,753.3272346316371,"[24, 0, 230]",230,a,0.1847372951451689,colour,0.06
042,68,1,1,12,25,575,753.8327683615498,754.4552530162036,"[78, 0, 176]",176,l,0.09924676991067827,colour,0.06
042,68,1,1,12,26,576,754.974385846639,755.6471791779622,"[56, 0, 198]",198,a,0.14958301559090614,colour,0.06
042,68,1,1,12,27,577,756.162150633987,756.7672769306228,"[91, 0, 163]",163,l,0.08196324249729514,colour,0.06
042,68,1,1,12,28,578,757.287106474163,757.9352289128583,"[65, 0, 189]",189,a,0.12477388326078653,colour,0.06
042,68,1,1,12,29,579,758.4433951079845,759.0632591128815,"[79, 0, 175]",175,l,0.09659382468089461,colour,0.06
042,68,1,1,12,30,580,759.5840023786295,760.2392676041927,"[74, 0, 180]",180,l,0.13195054070092738,colour,0.06
042,68,1,1,12,31,581,760.7558841540013,761.4392081336118,"[95, 0, 159]",159,l,0.16006758389994502,colour,0.06
042,68,1,1,12,32,582,761.9590333448723,762.5672076137271,"[82, 0, 172]",172,l,0.08383400971069932,colour,0.06
042,68,1,1,12,33,583,763.0854952509981,763.6712474867236,"[57, 0, 197]",197,a,0.06250056624412537,colour,0.06
042,68,1,1,12,34,584,764.179231331218,764.7832489516586,"[87, 0, 167]",167,l,0.08091758168302476,colour,0.06
042,68,1,1,12,35,585,765.3041926850565,766.0152772772126,"[93, 0, 161]",161,l,0.18805938423611224,colour,0.06
042,68,1,1,12,36,586,766.5229940940626,767.1432409172412,"[83, 0, 171]",171,l,0.10013252892531455,colour,0.06
042,68,1,1,12,37,587,767.6605435465463,768.3272480221931,"[66, 0, 188]",188,a,0.14356544613838196,colour,0.06
042,68,1,1,12,38,588,768.8510333527811,769.4552829484455,"[52, 0, 202]",202,a,0.08104558172635734,colour,0.06
042,68,1,1,12,39,589,769.9760313343722,770.5832544656005,"[53, 0, 201]",201,a,0.08399784960784018,colour,0.06
042,68,1,1,12,40,590,771.1010742143262,772.4074578632135,"[62, 0, 192]",192,a,0.7831552163697779,colour,0.06
042,68,1,1,12,41,591,772.913448848296,773.7272165145259,"[71, 0, 183]",183,a,0.2904880337882787,colour,0.06
042,68,1,1,12,42,592,774.2416999957059,775.0712333081756,"[68, 0, 186]",186,a,0.3063580491580069,colour,0.06
042,68,1,1,12,43,593,775.5852855283301,776.1832190195564,"[58, 0, 196]",196,a,0.07451758813112974,colour,0.06
042,68,1,1,12,44,594,776.6947537774686,777.311206684215,"[76, 0, 178]",178,l,0.09353443095460534,colour,0.06
042,68,1,1,12,45,595,777.8197899619117,778.5032242182642,"[50, 0, 204]",204,a,0.16019637160934508,colour,0.06
042,68,1,1,12,46,596,779.0229092203081,779.6552293854766,"[51, 0, 203]",203,a,0.10895428038202226,colour,0.06
042,68,1,1,12,47,597,780.1635838388465,780.8392427919898,"[81, 0, 173]",173,l,0.15257151750847697,colour,0.06
042,68,1,1,12,48,598,781.350986288162,782.0072034390178,"[54, 0, 200]",200,a,0.13359563471749425,colour,0.06
042,68,1,1,12,49,599,782.5228353743441,783.1271976099815,"[97, 0, 157]",157,l,0.0810380985494703,colour,0.06
042,68,1,1,12,50,600,783.6481377985328,784.2791830850765,"[80, 0, 174]",174,l,0.10810554283671081,colour,0.06
042,68,1,1,13,1,601,789.3657767721452,789.9512052664068,"[19, 0, 235]",235,a,0.06129185343161225,colour,0.06
042,68,1,1,13,2,602,790.4604517803527,790.991196759278,"[83, 0, 171]",171,l,0.0074696787633001804,colour,0.06
042,68,1,1,13,3,603,791.4956029087771,792.0791941126809,"[94, 0, 160]",160,l,0.06260020914487541,colour,0.06
042,68,1,1,13,4,604,792.5870724064298,794.2711671420839,"[53, 0, 201]",201,a,1.160680801840499,colour,0.06
042,68,1,1,13,5,605,794.7871929232497,795.5911924270913,"[96, 0, 158]",158,l,0.28069584676995873,colour,0.06
042,68,1,1,13,6,606,796.0997414400335,796.9511599740945,"[88, 0, 166]",166,l,0.3281412646174431,colour,0.06
042,68,1,1,13,7,607,797.4620886032935,798.2552313548513,"[91, 0, 163]",163,l,0.2727259839884937,colour,0.06
042,68,1,1,13,8,608,798.7717388093006,799.3271838254295,"[56, 0, 198]",198,a,0.03220122377388179,colour,0.06
042,68,1,1,13,9,609,799.8342181076296,800.7591826124117,"[71, 0, 183]",183,l,0.4016029522754252,colour,0.06
042,68,1,1,13,10,610,801.2717614553403,802.8151898432989,"[50, 0, 204]",204,a,1.0202531246468425,colour,0.06
042,68,1,1,13,11,611,803.3343136152253,804.1592097878456,"[89, 0, 165]",165,l,0.3017409953754395,colour,0.06
042,68,1,1,13,12,612,804.6779542861041,805.4871781540569,"[99, 0, 155]",155,l,0.28602654905989766,colour,0.06
042,68,1,1,13,13,613,806.0060884614941,806.8631417469587,"[51, 0, 203]",203,a,0.33384375739842653,colour,0.06
042,68,1,1,13,14,614,807.3810764984228,808.2151996896137,"[69, 0, 185]",185,a,0.31089672772213817,colour,0.06
042,68,1,1,13,15,615,808.7248049969785,809.6631645900197,"[66, 0, 188]",188,a,0.4150236404966563,colour,0.06
042,68,1,1,13,16,616,810.177950150799,811.0791870234534,"[63, 0, 191]",191,a,0.3780048955231905,colour,0.06
042,68,1,1,13,17,617,811.5998227694072,812.4631901900284,"[68, 0, 186]",186,a,0.34017285890877247,colour,0.06
042,68,1,1,13,18,618,812.9748458585236,813.5751652673353,"[87, 0, 167]",167,l,0.07708782562986016,colour,0.06
042,68,1,1,13,19,619,814.0841939847451,815.1191919071134,"[76, 0, 178]",178,l,0.5117391638923436,colour,0.06
042,68,1,1,13,20,620,815.6312055813614,816.5831693948712,"[81, 0, 173]",173,l,0.42892639618366957,colour,0.06
042,68,1,1,13,21,621,817.0997965785209,818.0312563874759,"[65, 0, 189]",189,a,0.40823452710174024,colour,0.06
042,68,1,1,13,22,622,818.5529263725039,819.5831800287124,"[73, 0, 181]",181,a,0.5057373482268304,colour,0.06
042,68,1,1,13,23,623,820.1013963799924,820.9511839987244,"[97, 0, 157]",157,l,0.3266159000340849,colour,0.06
042,68,1,1,13,24,624,821.4606357063167,822.1431487575173,"[15, 0, 239]",239,a,0.15920309256762266,colour,0.06
042,68,1,1,13,25,625,822.663950312417,823.2392360966187,"[98, 0, 156]",156,l,0.05204750574193895,colour,0.06
042,68,1,1,13,26,626,823.7575761154294,824.5591526802164,"[78, 0, 176]",176,l,0.2765265954658389,colour,0.06
042,68,1,1,13,27,627,825.0718461321667,825.9671524753794,"[95, 0, 159]",159,l,0.37190698157064617,colour,0.06
042,68,1,1,13,28,628,826.4780992213637,827.3111389428377,"[70, 0, 184]",184,a,0.30985303642228246,colour,0.06
042,68,1,1,13,29,629,827.8217993630096,828.7831390688661,"[57, 0, 197]",197,a,0.4381100917235017,colour,0.06
042,68,1,1,13,30,630,829.2905731045175,830.1031604153104,"[67, 0, 187]",187,a,0.28932106913998723,colour,0.06
042,68,1,1,13,31,631,830.6186639568768,831.5031651414465,"[84, 0, 170]",170,l,0.36103171831928194,colour,0.06
042,68,1,1,13,32,632,832.0094231537078,832.8471748456359,"[82, 0, 172]",172,l,0.317357373656705,colour,0.06
042,68,1,1,13,33,633,833.3658393935766,834.103184833657,"[79, 0, 175]",175,l,0.21397286001592875,colour,0.06
042,68,1,1,13,34,634,834.6158416580874,835.4711667483207,"[85, 0, 169]",169,l,0.3319599931128323,colour,0.06
042,68,1,1,13,35,635,835.9807913540863,836.8631807377096,"[74, 0, 180]",180,l,0.35706096538342535,colour,0.06
042,68,1,1,13,36,636,837.3733905984554,838.1111700565089,"[86, 0, 168]",168,l,0.2144222380593419,colour,0.06
042,68,1,1,13,37,637,838.6233203953598,839.5192017531954,"[93, 0, 161]",161,l,0.3724709686357528,colour,0.06
042,68,1,1,13,38,638,840.0296597369015,840.8951440784149,"[55, 0, 199]",199,a,0.3422673305030912,colour,0.06
042,68,1,1,13,39,639,841.4045823954511,842.2071435744874,"[77, 0, 177]",177,a,0.27922365139238536,colour,0.06
042,68,1,1,13,40,640,842.7171478476375,843.5591700093355,"[90, 0, 164]",164,l,0.3186385540757328,colour,0.06
042,68,1,1,13,41,641,844.0772938069422,844.7591180216987,"[72, 0, 182]",182,a,0.15860799164511263,colour,0.06
042,68,1,1,13,42,642,845.2804587513674,845.8871612187941,"[92, 0, 162]",162,l,0.08347324724309146,colour,0.06
042,68,1,1,13,43,643,846.4053976561408,847.0551789733581,"[64, 0, 190]",190,a,0.12640873715281487,colour,0.06
042,68,1,1,13,44,644,847.5615740439389,848.4311788000632,"[21, 0, 233]",233,a,0.3497988432645798,colour,0.06
042,68,1,1,13,45,645,848.949358129641,849.7271944591776,"[75, 0, 179]",179,l,0.25453464151360095,colour,0.06
042,68,1,1,13,46,646,850.2461992898025,850.9031422983389,"[60, 0, 194]",194,a,0.13384730205871165,colour,0.06
042,68,1,1,13,47,647,851.418196461862,852.2311185414437,"[61, 0, 193]",193,a,0.28955422551371157,colour,0.06
042,68,1,1,13,48,648,852.7348669685889,853.3591767046601,"[80, 0, 174]",174,l,0.10114392498508096,colour,0.06
042,68,1,1,13,49,649,853.8765439244453,854.7191202272661,"[54, 0, 200]",200,a,0.32229580567218363,colour,0.06
042,68,1,1,13,50,650,855.2328274382744,855.9031608090736,"[58, 0, 196]",196,a,0.14700687071308494,colour,0.06
042,68,1,1,14,1,651,860.7332124225795,862.2231100818608,"[58, 0, 196]",196,a,0.9655424340162426,colour,0.06
042,68,1,1,14,2,652,862.7342891967855,863.5431188251823,"[55, 0, 199]",199,a,0.2855559035670012,colour,0.06
042,68,1,1,14,3,653,864.0623579937965,864.7351225744933,"[53, 0, 201]",201,a,0.15232496988028288,colour,0.06
042,68,1,1,14,4,654,865.2470125812106,866.103129301453,"[88, 0, 166]",166,l,0.3327803739812225,colour,0.06
042,68,1,1,14,5,655,866.6221010489389,867.4471346735954,"[89, 0, 165]",165,l,0.3017169707454741,colour,0.06
042,68,1,1,14,6,656,867.9658563288394,868.7990917915013,"[93, 0, 161]",161,l,0.30989990406669676,colour,0.06
042,68,1,1,14,7,657,869.3095730119385,870.0391372414306,"[64, 0, 190]",190,a,0.20916479104198515,colour,0.06
042,68,1,1,14,8,658,870.5571688790806,871.2631626208313,"[33, 0, 221]",221,a,0.1826747248414904,colour,0.06
042,68,1,1,14,9,659,871.7760293651372,872.4231073248666,"[72, 0, 182]",182,l,0.1238022658508271,colour,0.06
042,68,1,1,14,10,660,872.9336574682966,873.6150854742154,"[86, 0, 168]",168,l,0.15793215204030275,colour,0.06
042,68,1,1,14,11,661,874.1212229698431,874.751165881753,"[76, 0, 178]",178,l,0.10659750737249851,colour,0.06
042,68,1,1,14,12,662,875.261814486701,875.9111613919958,"[56, 0, 198]",198,a,0.1261822758242488,colour,0.06
042,68,1,1,14,13,663,876.4181428989395,877.1191237717867,"[71, 0, 183]",183,a,0.17774535110220313,colour,0.06
042,68,1,1,14,14,664,877.6368312744889,878.3511150756385,"[73, 0, 181]",181,a,0.19101283350028098,colour,0.06
042,68,1,1,14,15,665,878.8711754127871,879.5590947847813,"[51, 0, 203]",203,a,0.16462556109763682,colour,0.06
042,68,1,1,14,16,666,880.0743344498333,880.6631736485288,"[52, 0, 202]",202,a,0.0655343602411449,colour,0.06
042,68,1,1,14,17,667,881.1836384651251,881.7430936188903,"[99, 0, 155]",155,l,0.035998290637508035,colour,0.06
042,68,1,1,14,18,668,882.2617758898996,882.855336117791,"[69, 0, 185]",185,a,0.06931843026541173,colour,0.06
042,68,1,1,14,19,669,883.3715064402204,884.0471590920351,"[87, 0, 167]",167,l,0.1527641082648188,colour,0.06
042,68,1,1,14,20,670,884.5462380836252,885.1911400456447,"[70, 0, 184]",184,a,0.12177120335400105,colour,0.06
042,68,1,1,14,21,671,885.7024672466796,886.3111779335886,"[80, 0, 174]",174,a,0.08563230955041945,colour,0.06
042,68,1,1,14,22,672,886.8274975235108,888.1751270643435,"[81, 0, 173]",173,l,0.8243333667051047,colour,0.06
042,68,1,1,14,23,673,888.6869111265987,889.3590900585987,"[78, 0, 176]",176,l,0.14893907797522843,colour,0.06
042,68,1,1,14,24,674,889.874456935795,890.5030796767678,"[59, 0, 195]",195,a,0.1053198715671897,colour,0.06
042,68,1,1,14,25,675,891.0150043419562,891.8231506478041,"[65, 0, 189]",189,a,0.28472016262821853,colour,0.06
042,68,1,1,14,26,676,892.3431830219924,893.0232061801944,"[54, 0, 200]",200,a,0.15677975956350565,colour,0.06
042,68,1,1,14,27,677,893.5307099265046,894.3190796610434,"[57, 0, 197]",197,a,0.26512594195082784,colour,0.06
042,68,1,1,14,28,678,894.8275317882653,895.5351426606067,"[67, 0, 187]",187,a,0.1843867723364383,colour,0.06
042,68,1,1,14,29,679,896.0338534065522,897.1510749035515,"[85, 0, 169]",169,l,0.5939016921911389,colour,0.06
042,68,1,1,14,30,680,897.6464190557599,898.607153814286,"[94, 0, 160]",160,l,0.4375626458786428,colour,0.06
042,68,1,1,14,31,681,899.1151715295855,899.9590561878867,"[95, 0, 159]",159,l,0.32057588128373027,colour,0.06
042,68,1,1,14,32,682,900.4745097111445,901.1430959820282,"[14, 0, 240]",240,a,0.14528458309359848,colour,0.06
042,68,1,1,14,33,683,901.6621921847109,902.5511296479963,"[31, 0, 223]",223,a,0.36579764587804675,colour,0.06
042,68,1,1,14,34,684,903.0684224308934,903.8951279309113,"[50, 0, 204]",204,a,0.30333370761945844,colour,0.06
042,68,1,1,14,35,685,904.4122840494383,905.0151035911404,"[96, 0, 158]",158,l,0.07969626621343195,colour,0.06
042,68,1,1,14,36,686,905.521569947945,906.2631252054125,"[75, 0, 179]",179,l,0.21822757576592267,colour,0.06
042,68,1,1,14,37,687,906.771567880176,907.4231278048828,"[77, 0, 177]",177,l,0.128445707494393,colour,0.06
042,68,1,1,14,38,688,907.943445323268,908.6870745725464,"[66, 0, 188]",188,l,0.220336226047948,colour,0.06
042,68,1,1,14,39,689,909.1849038917571,909.8391443304718,"[74, 0, 180]",180,l,0.131093138596043,colour,0.06
042,68,1,1,14,40,690,910.3567017780151,911.0230750294868,"[83, 0, 171]",171,l,0.14313812367618084,colour,0.06
042,68,1,1,14,41,691,911.544232227141,912.3191135318484,"[92, 0, 162]",162,l,0.2516682322602719,colour,0.06
042,68,1,1,14,42,692,912.825448343996,913.5190958087333,"[63, 0, 191]",191,a,0.17036034911870956,colour,0.06
042,68,1,1,14,43,693,914.0285613010637,914.6151118618436,"[84, 0, 170]",170,l,0.062276467913761735,colour,0.06
042,68,1,1,14,44,694,915.1253441718873,915.7270810317714,"[82, 0, 172]",172,l,0.07840445218607783,colour,0.06
042,68,1,1,14,45,695,916.2363929240964,916.9191170765553,"[60, 0, 194]",194,a,0.16490676696412265,colour,0.06
042,68,1,1,14,46,696,917.434070415562,918.1750451445114,"[97, 0, 157]",157,l,0.21697514643892646,colour,0.06
042,68,1,1,14,47,697,918.6848863654304,919.5830752658658,"[61, 0, 193]",193,a,0.37492699082940817,colour,0.06
042,68,1,1,14,48,698,920.0843452215195,921.0870525173377,"[90, 0, 164]",164,l,0.4793571650516242,colour,0.06
042,68,1,1,14,49,699,921.5999212306924,922.6230596695095,"[98, 0, 156]",156,l,0.4997237171046436,colour,0.06
042,68,1,1,14,50,700,923.1311455199029,924.1591215662193,"[62, 0, 192]",192,a,0.5046444260515273,colour,0.06
042,68,1,1,15,1,701,928.9294295338914,929.5430963758845,"[13, 0, 241]",241,a,0.0963134067133069,colour,0.06
042,68,1,1,15,2,702,930.0640554691199,930.7910916025285,"[57, 0, 197]",197,a,0.20376555947586894,colour,0.06
042,68,1,1,15,3,703,931.2984425367322,931.9590624894481,"[72, 0, 182]",182,l,0.1342186986003071,colour,0.06
042,68,1,1,15,4,704,932.4734778353013,933.3751038275659,"[56, 0, 198]",198,a,0.3783755043987185,colour,0.06
042,68,1,1,15,5,705,933.8953020107001,934.7910671841819,"[66, 0, 188]",188,l,0.37271279003471136,colour,0.06
042,68,1,1,15,6,706,935.2923721920233,935.9030450184364,"[53, 0, 201]",201,a,0.0874026461970061,colour,0.06
042,68,1,1,15,7,707,936.4174383089412,937.1431097667664,"[65, 0, 189]",189,a,0.20237528393045068,colour,0.06
042,68,1,1,15,8,708,937.6517001336906,938.2550340380985,"[58, 0, 196]",196,l,0.08008262887597084,colour,0.06
042,68,1,1,15,9,709,938.7786429254338,939.391112082405,"[76, 0, 178]",178,l,0.0909740396309644,colour,0.06
042,68,1,1,15,10,710,939.9022994684055,940.5030804646667,"[95, 0, 159]",159,l,0.07740762853063643,colour,0.06
042,68,1,1,15,11,711,941.0116527145728,941.7510347312782,"[93, 0, 161]",161,l,0.21612010733224452,colour,0.06
042,68,1,1,15,12,712,942.2617219330277,943.047315054806,"[81, 0, 173]",173,l,0.2625123814214021,colour,0.06
042,68,1,1,15,13,713,943.5584650253877,944.1590719416272,"[94, 0, 160]",160,l,0.07684167195111513,colour,0.06
042,68,1,1,15,14,714,944.6684188863728,945.4391238505486,"[88, 0, 166]",166,l,0.24816182325594127,colour,0.06
042,68,1,1,15,15,715,945.9496109788306,946.5510386696551,"[79, 0, 175]",175,l,0.07809370779432356,colour,0.06
042,68,1,1,15,16,716,947.058980766451,947.7510563926771,"[50, 0, 204]",204,a,0.16884995065629482,colour,0.06
042,68,1,1,15,17,717,948.2621307447553,948.8790267282166,"[92, 0, 162]",162,l,0.09369708923622966,colour,0.06
042,68,1,1,15,18,718,949.3871106095612,950.0150366374291,"[40, 0, 214]",214,a,0.10462946002371609,colour,0.06
042,68,1,1,15,19,719,950.527739541838,951.095051524695,"[98, 0, 156]",156,l,0.04411111958324909,colour,0.06
042,68,1,1,15,20,720,951.6060435632244,952.2470578735229,"[77, 0, 177]",177,l,0.1178894592449069,colour,0.06
042,68,1,1,15,21,721,952.7620817110874,953.3750581413042,"[68, 0, 186]",186,l,0.089711369946599,colour,0.06
042,68,1,1,15,22,722,953.8891576228198,954.5349969377276,"[61, 0, 193]",193,l,0.12256401474587619,colour,0.06
042,68,1,1,15,23,723,955.0453986013308,955.6710462314077,"[46, 0, 208]",208,a,0.10242628678679466,colour,0.06
042,68,1,1,15,24,724,956.1808378279675,956.7910648209509,"[51, 0, 203]",203,a,0.08690285589545965,colour,0.06
042,68,1,1,15,25,725,957.3057771264575,958.0070372361224,"[69, 0, 185]",185,l,0.1778292404487729,colour,0.06
042,68,1,1,15,26,726,958.524578141747,959.2950846077874,"[97, 0, 157]",157,l,0.24780539283528924,colour,0.06
042,68,1,1,15,27,727,959.7964951663744,960.3590680032503,"[84, 0, 170]",170,l,0.039181352127343416,colour,0.06
042,68,1,1,15,28,728,960.8745652434882,961.4551068993751,"[86, 0, 168]",168,l,0.057203734293580055,colour,0.06
042,68,1,1,15,29,729,961.9702886692248,962.6310405600816,"[75, 0, 179]",179,l,0.13747422769665718,colour,0.06
042,68,1,1,15,30,730,963.142136967741,964.5590333447326,"[59, 0, 195]",195,a,0.8936726707033813,colour,0.06
042,68,1,1,15,31,731,965.0795576323289,965.7430187882856,"[63, 0, 191]",191,a,0.14202866004779935,colour,0.06
042,68,1,1,15,32,732,966.2571568666026,966.8390119983815,"[83, 0, 171]",171,l,0.05846916092559695,colour,0.06
042,68,1,1,15,33,733,967.3509606881998,967.9750112737529,"[52, 0, 202]",202,a,0.10078591923229396,colour,0.06
042,68,1,1,15,34,734,968.4915380266029,969.0790523281321,"[89, 0, 165]",165,l,0.06150925625115633,colour,0.06
042,68,1,1,15,35,735,969.5880857715383,970.3190197965596,"[96, 0, 158]",158,l,0.2077434016391635,colour,0.06
042,68,1,1,15,36,736,970.838007691782,971.5110318167135,"[60, 0, 194]",194,a,0.1497118033003062,colour,0.06
042,68,1,1,15,37,737,972.0255550763104,972.6630314700305,"[78, 0, 176]",176,l,0.11418533977121115,colour,0.06
042,68,1,1,15,38,738,973.1818334700074,973.8230344634503,"[71, 0, 183]",183,l,0.11791505943983793,colour,0.06
042,68,1,1,15,39,739,974.338020885596,974.9910234671552,"[70, 0, 184]",184,l,0.12864735629409552,colour,0.06
042,68,1,1,15,40,740,975.5123641970567,976.1270077764057,"[80, 0, 174]",174,l,0.09154472220689058,colour,0.06
042,68,1,1,15,41,741,976.6373350031208,977.3351111530792,"[67, 0, 187]",187,l,0.17447879444807768,colour,0.06
042,68,1,1,15,42,742,977.840397153981,978.4870536988601,"[73, 0, 181]",181,l,0.12333792168647051,colour,0.06
042,68,1,1,15,43,743,978.998486056691,979.6629940548446,"[74, 0, 180]",180,l,0.14332913886755705,colour,0.06
042,68,1,1,15,44,744,980.184088237118,980.8549907149281,"[99, 0, 155]",155,l,0.14760551624931395,colour,0.06
042,68,1,1,15,45,745,981.3715497632511,981.9430502960458,"[91, 0, 163]",163,l,0.04825358954258263,colour,0.06
042,68,1,1,15,46,746,982.4496434710454,983.0790444512386,"[82, 0, 172]",172,l,0.10602997546084225,colour,0.06
042,68,1,1,15,47,747,983.5903220279142,984.4790582358837,"[54, 0, 200]",200,a,0.3655849692877382,colour,0.06
042,68,1,1,15,48,748,984.9965105263982,985.6630354085937,"[62, 0, 192]",192,a,0.1431385176256299,colour,0.06
042,68,1,1,15,49,749,986.1840378248598,987.6230750295799,"[87, 0, 167]",167,l,0.9138135495595634,colour,0.06
042,68,1,1,15,50,750,988.1391913951375,988.6949869340751,"[85, 0, 169]",169,l,0.032497395761311054,colour,0.06
042,68,1,1,16,1,751,994.0822570512537,994.7589967171662,"[86, 0, 168]",168,l,0.15278025576844811,colour,0.06
042,68,1,1,16,2,752,995.2704739735927,995.8870040741749,"[63, 0, 191]",191,a,0.09316145908087492,colour,0.06
042,68,1,1,16,3,753,996.3955857765395,996.9829976782203,"[82, 0, 172]",172,l,0.06464938865974545,colour,0.06
042,68,1,1,16,4,754,997.4892466319725,998.1189938026946,"[73, 0, 181]",181,l,0.11170174833387136,colour,0.06
042,68,1,1,16,5,755,998.6411237993743,999.343053446617,"[96, 0, 158]",158,l,0.1785803041420877,colour,0.06
042,68,1,1,16,6,756,999.8617979451083,1000.5430093361065,"[71, 0, 183]",183,l,0.1580128907226026,colour,0.06
042,68,1,1,16,7,757,1001.049368172884,1001.5990488624666,"[94, 0, 160]",160,l,0.026369155617430806,colour,0.06
042,68,1,1,16,8,758,1002.1118541667238,1002.73503002082,"[77, 0, 177]",177,l,0.09999231994152069,colour,0.06
042,68,1,1,16,9,759,1003.2400139421225,1003.9829649890307,"[70, 0, 184]",184,l,0.21973088523373008,colour,0.06
042,68,1,1,16,10,760,1004.4900087236892,1005.055021828739,"[95, 0, 159]",159,l,0.04177561425603926,colour,0.06
042,68,1,1,16,11,761,1005.5681406343356,1006.2709757331759,"[55, 0, 199]",199,a,0.17956373724155128,colour,0.06
042,68,1,1,16,12,762,1006.777633104939,1007.4229864142835,"[56, 0, 198]",198,a,0.12211818131618202,colour,0.06
042,68,1,1,16,13,763,1007.9338539973833,1008.518997347448,"[74, 0, 180]",180,a,0.06174871465191245,colour,0.06
042,68,1,1,16,14,764,1009.0275290312711,1009.582973259734,"[93, 0, 161]",161,l,0.03212245460599661,colour,0.06
042,68,1,1,16,15,765,1010.0901375110261,1010.8150516035967,"[44, 0, 210]",210,a,0.2019893149845302,colour,0.06
042,68,1,1,16,16,766,1011.3244206034578,1011.90299224318,"[85, 0, 169]",169,l,0.055199059657752514,colour,0.06
042,68,1,1,16,17,767,1012.4182437234558,1013.0469688645098,"[69, 0, 185]",185,a,0.1055719330906868,colour,0.06
042,68,1,1,16,18,768,1013.5588238188066,1014.1030186307617,"[89, 0, 165]",165,l,0.020971499383449554,colour,0.06
042,68,1,1,16,19,769,1014.6213822804857,1015.1589624525513,"[79, 0, 175]",175,l,0.014384428970515728,colour,0.06
042,68,1,1,16,20,770,1015.6731308570597,1016.3349792147055,"[58, 0, 196]",196,a,0.13849901431240141,colour,0.06
042,68,1,1,16,21,771,1016.8325706508476,1018.4869694157969,"[98, 0, 156]",156,l,1.1310364247765392,colour,0.06
042,68,1,1,16,22,772,1019.0045016570948,1019.7349693684373,"[75, 0, 179]",179,l,0.20726054650731385,colour,0.06
042,68,1,1,16,23,773,1020.25441412488,1020.8310047201812,"[68, 0, 186]",186,a,0.053271184442564845,colour,0.06
042,68,1,1,16,24,774,1021.348177773878,1021.8949892970268,"[57, 0, 197]",197,a,0.02357285050675273,colour,0.06
042,68,1,1,16,25,775,1022.4106570724398,1023.0389887616038,"[78, 0, 176]",176,l,0.10541085014119744,colour,0.06
042,68,1,1,16,26,776,1023.551271432545,1024.1590018372517,"[76, 0, 178]",178,l,0.08439602772705257,colour,0.06
042,68,1,1,16,27,777,1024.6763186447788,1025.31096407515,"[67, 0, 187]",187,l,0.1113366533536464,colour,0.06
042,68,1,1,16,28,778,1025.8169085863046,1026.4789542607032,"[72, 0, 182]",182,l,0.13944385037757456,colour,0.06
042,68,1,1,16,29,779,1026.984906254802,1027.5910258302465,"[59, 0, 195]",195,a,0.08299511834047735,colour,0.06
042,68,1,1,16,30,780,1028.109879424097,1028.7270046256017,"[99, 0, 155]",155,l,0.09422011650167406,colour,0.06
042,68,1,1,16,31,781,1029.2349498730619,1029.9589506371412,"[80, 0, 174]",174,l,0.20091135893017054,colour,0.06
042,68,1,1,16,32,782,1030.4691939747427,1031.031025200151,"[87, 0, 167]",167,l,0.03842595615424216,colour,0.06
042,68,1,1,16,33,783,1031.5473298239522,1032.2069950944278,"[61, 0, 193]",193,a,0.13634743494912982,colour,0.06
042,68,1,1,16,34,784,1032.7198200910352,1033.3590120770968,"[64, 0, 190]",190,a,0.11647200840525329,colour,0.06
042,68,1,1,16,35,785,1033.8754108303692,1034.6629960241262,"[53, 0, 201]",201,a,0.26430044136941433,colour,0.06
042,68,1,1,16,36,786,1035.174185772892,1036.0230234356131,"[28, 0, 226]",226,a,0.3380740548018366,colour,0.06
042,68,1,1,16,37,787,1036.5368039021268,1037.0789979775436,"[97, 0, 157]",157,l,0.018969187512993813,colour,0.06
042,68,1,1,16,38,788,1037.5992910775822,1038.2629625471309,"[52, 0, 202]",202,a,0.14036938804201782,colour,0.06
042,68,1,1,16,39,789,1038.7711354375351,1039.3349469192326,"[42, 0, 212]",212,a,0.0404735601041466,colour,0.06
042,68,1,1,16,40,790,1039.8492307206616,1040.6229805063922,"[62, 0, 192]",192,l,0.25040950113907456,colour,0.06
042,68,1,1,16,41,791,1041.1317878824193,1041.9029713692144,"[60, 0, 194]",194,l,0.24785659275949,colour,0.06
042,68,1,1,16,42,792,1042.4130705592688,1042.9829362381715,"[83, 0, 171]",171,l,0.0467171969357878,colour,0.06
042,68,1,1,16,43,793,1043.4911559962202,1044.046994464472,"[81, 0, 173]",173,l,0.03289084765128791,colour,0.06
042,68,1,1,16,44,794,1044.5564134828746,1045.1509725034703,"[88, 0, 166]",166,l,0.06928967940621078,colour,0.06
042,68,1,1,16,45,795,1045.6677190223709,1046.9669535832945,"[65, 0, 189]",189,l,0.7758052670396864,colour,0.06
042,68,1,1,16,46,796,1047.4802956993226,1048.0789964022115,"[50, 0, 204]",204,a,0.07551323040388525,colour,0.06
042,68,1,1,16,47,797,1048.5896036531776,1049.1269679979887,"[54, 0, 200]",200,a,0.014085106085985899,colour,0.06
042,68,1,1,16,48,798,1049.6364598779473,1050.1909242181573,"[91, 0, 163]",163,l,0.03118155710399151,colour,0.06
042,68,1,1,16,49,799,1050.698926967103,1051.2549481797032,"[90, 0, 164]",164,l,0.0330357828643173,colour,0.06
042,68,1,1,16,50,800,1051.7614858224988,1052.4550297057722,"[92, 0, 162]",162,l,0.17033514310605824,colour,0.06
