id,age,condition,counterbalance,block,trialinblock,trial,tstart,tend,trialstim,trialintensity,response,RT,trialtype,colourfreq
161,25,1,1,Practice,1,NA,5.5138953030109406e-06,0.7515986231155694,"[18, 0, 236]",236,a,0.19596346677280962,colour,0.5
161,25,1,1,Practice,2,NA,1.2666234748321585,3.3516328877885826,"[49, 0, 205]",205,a,1.5621218088781461,colour,0.5
161,25,1,1,Practice,3,NA,3.8632702653994784,4.855659968685359,"[44, 0, 210]",210,a,0.46933944057673216,colour,0.5
161,25,1,1,Practice,4,NA,5.363503028696869,6.023644971020985,"[84, 0, 170]",170,a,0.1369388671591878,colour,0.5
161,25,1,1,Practice,5,NA,6.538690696586855,11.287600135488901,"[37, 0, 217]",217,l,4.225978905567899,colour,0.5
161,25,1,1,Practice,6,NA,11.804444558219984,12.6876635447843,"[70, 0, 184]",184,a,0.36031287169316784,colour,0.5
161,25,1,1,Practice,7,NA,13.195046198205091,14.055628067115322,"[38, 0, 216]",216,a,0.3371826581424102,colour,0.5
161,25,1,1,Practice,8,NA,14.570798642060254,15.15164509700844,"[97, 0, 157]",157,l,0.05748072121059522,colour,0.5
161,25,1,1,Practice,9,NA,15.664586894388776,18.359618126414716,"[82, 0, 172]",172,a,2.1717226059990935,colour,0.5
161,25,1,1,Practice,10,NA,18.86799878696911,19.62364221405005,"[90, 0, 164]",164,l,0.23228320718044415,colour,0.5
161,25,1,1,1,1,1,4.442109284515027,5.375950942456257,"[40, 0, 214]",214,a,0.4097327357158065,colour,0.5
161,25,1,1,1,2,2,5.889863177726511,6.727996187575627,"[53, 0, 201]",201,a,0.31307019136147574,colour,0.5
161,25,1,1,1,3,3,7.235433585650753,8.047940182557795,"[56, 0, 198]",198,a,0.28912195848533884,colour,0.5
161,25,1,1,1,4,4,8.563460493227467,9.351960568048526,"[38, 0, 216]",216,a,0.26491299929330125,colour,0.5
161,25,1,1,1,5,5,9.860626373556443,10.648178065894172,"[60, 0, 194]",194,a,0.26414027239661664,colour,0.5
161,25,1,1,1,6,6,11.157644955208525,11.960112403787207,"[9, 0, 245]",245,a,0.279100927116815,colour,0.5
161,25,1,1,1,7,7,12.470233866071794,13.239979756297544,"[23, 0, 231]",231,a,0.24628878408111632,colour,0.5
161,25,1,1,1,8,8,13.75158247537911,14.359938717447221,"[84, 0, 170]",170,l,0.08501532062655315,colour,0.5
161,25,1,1,1,9,9,14.876659866247792,15.639936039340682,"[25, 0, 229]",229,a,0.24013059952994809,colour,0.5
161,25,1,1,1,10,10,16.158063614100683,16.895975282182917,"[3, 0, 251]",251,a,0.2145211219904013,colour,0.5
161,25,1,1,1,11,11,17.40808291255962,18.199974399991333,"[46, 0, 208]",208,a,0.2685513536562212,colour,0.5
161,25,1,1,1,12,12,18.72074074659031,19.463983127614483,"[77, 0, 177]",177,l,0.2204394539585337,colour,0.5
161,25,1,1,1,13,13,19.971448488824535,20.615961812611204,"[72, 0, 182]",182,l,0.12123896245611832,colour,0.5
161,25,1,1,1,14,14,21.12777445197571,23.05597110738745,"[1, 0, 253]",253,a,1.4052149220369756,colour,0.5
161,25,1,1,1,15,15,23.565476199844852,24.279976054094732,"[76, 0, 178]",178,l,0.1911770497681573,colour,0.5
161,25,1,1,1,16,16,24.799919261422474,25.575927705504,"[55, 0, 199]",199,a,0.2526316825533286,colour,0.5
161,25,1,1,1,17,17,26.096918544673827,26.68002567876829,"[73, 0, 181]",181,l,0.05981544347014278,colour,0.5
161,25,1,1,1,18,18,27.179907524841838,27.951990500383545,"[42, 0, 212]",212,a,0.24720250797690824,colour,0.5
161,25,1,1,1,19,19,28.462937465053983,29.312002079503145,"[86, 0, 168]",168,l,0.3259009239845909,colour,0.5
161,25,1,1,1,20,20,29.82239056972321,30.575990720943082,"[49, 0, 205]",205,a,0.23028049746062607,colour,0.5
161,25,1,1,1,21,21,31.088230289926287,31.735992847708985,"[68, 0, 186]",186,l,0.12453033798374236,colour,0.5
161,25,1,1,1,22,22,32.2445078099845,32.87997841718607,"[82, 0, 172]",172,l,0.1121832489152439,colour,0.5
161,25,1,1,1,23,23,33.40077193919569,35.01597677881364,"[12, 0, 242]",242,a,1.0918138996348716,colour,0.5
161,25,1,1,1,24,24,35.52597693633288,36.11196584563004,"[89, 0, 165]",165,l,0.06265350169269368,colour,0.5
161,25,1,1,1,25,25,36.619862862629816,37.33600072469562,"[67, 0, 187]",187,a,0.19282096525421366,colour,0.5
161,25,1,1,1,26,26,37.8543642135337,38.47995951253688,"[58, 0, 196]",196,a,0.1023063653265126,colour,0.5
161,25,1,1,1,27,27,38.99512142286403,39.61600789264776,"[8, 0, 246]",246,a,0.09785786864813417,colour,0.5
161,25,1,1,1,28,28,40.13563681044616,40.671975455479696,"[17, 0, 237]",237,a,0.012848849582951516,colour,0.5
161,25,1,1,1,29,29,41.184004710405134,41.85602742747869,"[45, 0, 209]",209,a,0.14867982640862465,colour,0.5
161,25,1,1,1,30,30,42.3715481319814,42.896077288431115,"[88, 0, 166]",166,l,0.0011862657847814262,colour,0.5
161,25,1,1,1,31,31,43.4185214213212,45.16796530998545,"[7, 0, 247]",247,a,1.2259777240105905,colour,0.5
161,25,1,1,1,32,32,45.68444975698367,46.43201105919434,"[48, 0, 206]",206,l,0.2242727623670362,colour,0.5
161,25,1,1,1,33,33,46.95006577234017,47.61597520340001,"[50, 0, 204]",204,a,0.14249249722342938,colour,0.5
161,25,1,1,1,34,34,48.13767929864116,48.896339590253774,"[63, 0, 191]",191,a,0.23517601005733013,colour,0.5
161,25,1,1,1,35,35,49.403414255648386,50.088008554361295,"[21, 0, 233]",233,a,0.16131245426367968,colour,0.5
161,25,1,1,1,36,36,50.608519294532016,51.59198758593993,"[13, 0, 241]",241,a,0.46013248997041956,colour,0.5
161,25,1,1,1,37,37,52.10864296235377,52.91197726718383,"[64, 0, 190]",190,l,0.2799815679900348,colour,0.5
161,25,1,1,1,38,38,53.42119879007805,54.47203847090714,"[2, 0, 252]",252,a,0.536935716343578,colour,0.5
161,25,1,1,1,39,39,54.99280442367308,55.528017061413266,"[61, 0, 193]",193,l,0.011739383859094232,colour,0.5
161,25,1,1,1,40,40,56.03991201467579,56.81601695116842,"[14, 0, 240]",240,a,0.25340992340352386,colour,0.5
161,25,1,1,1,41,41,57.33695422712481,58.03212527470896,"[54, 0, 200]",200,a,0.17189353541471064,colour,0.5
161,25,1,1,1,42,42,58.540159744152334,59.263996124558616,"[41, 0, 213]",213,a,0.20042338507482782,colour,0.5
161,25,1,1,1,43,43,59.774585476494394,61.208110875682905,"[87, 0, 167]",167,l,0.910186053137295,colour,0.5
161,25,1,1,1,44,44,61.72787291358691,62.53618583251955,"[32, 0, 222]",222,a,0.28501453291391954,colour,0.5
161,25,1,1,1,45,45,63.05614951986354,63.71210172266001,"[95, 0, 159]",159,l,0.13250730582512915,colour,0.5
161,25,1,1,1,46,46,64.22815530153457,64.76802202389808,"[78, 0, 176]",176,l,0.016640016401652247,colour,0.5
161,25,1,1,1,47,47,65.27511244319612,66.29599339910783,"[47, 0, 207]",207,a,0.4975573637057096,colour,0.5
161,25,1,1,1,48,48,66.80836766358698,67.71202098415233,"[16, 0, 238]",238,a,0.38035454065538943,colour,0.5
161,25,1,1,1,49,49,68.23033839295385,69.00799587246729,"[24, 0, 230]",230,a,0.2544319551088847,colour,0.5
161,25,1,1,1,50,50,69.52772325190017,71.24802682880545,"[94, 0, 160]",160,l,1.19715327717131,colour,0.5
161,25,1,1,2,1,51,86.21777193131857,87.0000421415898,"[97, 0, 157]",157,l,0.25808566954219714,colour,0.5
161,25,1,1,2,2,52,87.51571093237726,88.60013627092121,"[73, 0, 181]",181,l,0.5612360480008647,colour,0.5
161,25,1,1,2,3,53,89.10949288320262,89.76806416548789,"[51, 0, 203]",203,a,0.1353512717760168,colour,0.5
161,25,1,1,2,4,54,90.28138956933981,91.40003544616047,"[21, 0, 233]",233,a,0.5953065307694487,colour,0.5
161,25,1,1,2,5,55,91.90650831407402,92.74411160033196,"[14, 0, 240]",240,a,0.3141698108520359,colour,0.5
161,25,1,1,2,6,56,93.237862437265,93.84809220733587,"[83, 0, 171]",171,l,0.08414649515179917,colour,0.5
161,25,1,1,2,7,57,94.36590431100922,95.00805061712163,"[84, 0, 170]",170,l,0.11910667724441737,colour,0.5
161,25,1,1,2,8,58,95.52205422479892,96.29604381148238,"[17, 0, 237]",237,a,0.25075815460877493,colour,0.5
161,25,1,1,2,9,59,96.80328586167889,97.56808228243608,"[35, 0, 219]",219,a,0.24150630552321672,colour,0.5
161,25,1,1,2,10,60,98.08466519106878,98.86414302932099,"[65, 0, 189]",189,a,0.25625704001868144,colour,0.5
161,25,1,1,2,11,61,99.3816243018955,100.1440013233223,"[44, 0, 210]",210,a,0.23899671534309164,colour,0.5
161,25,1,1,2,12,62,100.66300875128945,101.41605988040101,"[94, 0, 160]",160,l,0.22976928466232494,colour,0.5
161,25,1,1,2,13,63,101.92873858829262,102.48802509589586,"[32, 0, 222]",222,a,0.035954250779468566,colour,0.5
161,25,1,1,2,14,64,103.00733854260761,103.57605176715879,"[5, 0, 249]",249,l,0.045477066305465996,colour,0.5
161,25,1,1,2,15,65,104.07310382579453,104.80807424796512,"[62, 0, 192]",192,l,0.21233409218257293,colour,0.5
161,25,1,1,2,16,66,105.32314360432792,105.88008908805205,"[98, 0, 156]",156,l,0.033565965306479484,colour,0.5
161,25,1,1,2,17,67,106.40141469676746,106.92806235374883,"[49, 0, 205]",205,a,0.0034831787925213575,colour,0.5
161,25,1,1,2,18,68,107.44836474914337,108.13609879248543,"[10, 0, 244]",244,a,0.16438485111575574,colour,0.5
161,25,1,1,2,19,69,108.6515781430644,109.20006734773051,"[95, 0, 159]",159,l,0.025099052407313138,colour,0.5
161,25,1,1,2,20,70,109.71415208774852,110.32840854488313,"[3, 0, 251]",251,a,0.0908804833306931,colour,0.5
161,25,1,1,2,21,71,110.83925035246648,111.53608579549473,"[48, 0, 206]",206,a,0.17350082308985293,colour,0.5
161,25,1,1,2,22,72,112.04250628186855,112.64011011947878,"[64, 0, 190]",190,a,0.07425819005584344,colour,0.5
161,25,1,1,2,23,73,113.1519030664931,114.18407442123862,"[13, 0, 241]",241,a,0.5088142856257036,colour,0.5
161,25,1,1,2,24,74,114.69890786352335,115.61604018806247,"[15, 0, 239]",239,a,0.39372759993420914,colour,0.5
161,25,1,1,2,25,75,116.13659700832795,116.83204059768468,"[52, 0, 202]",202,a,0.17220821877708659,colour,0.5
161,25,1,1,2,26,76,117.33977771300124,118.03207486233441,"[67, 0, 187]",187,a,0.16896174172870815,colour,0.5
161,25,1,1,2,27,77,118.54294620844303,119.640101454861,"[0, 0, 254]",254,a,0.5739505958626978,colour,0.5
161,25,1,1,2,28,78,120.15249462396605,120.70411254558712,"[26, 0, 228]",228,a,0.02855820656986907,colour,0.5
161,25,1,1,2,29,79,121.21507093176479,122.01609887124505,"[36, 0, 218]",218,a,0.27759879641234875,colour,0.5
161,25,1,1,2,30,80,122.52772482729051,123.07212078484008,"[81, 0, 173]",173,l,0.02293250255752355,colour,0.5
161,25,1,1,2,31,81,123.58838428393938,124.12832898786291,"[78, 0, 176]",176,l,0.0166254440555349,colour,0.5
161,25,1,1,2,32,82,124.63528037932701,125.16835639957571,"[96, 0, 158]",158,l,0.009690594102721661,colour,0.5
161,25,1,1,2,33,83,125.68224657943938,126.24006876558997,"[60, 0, 194]",194,a,0.03253487509209663,colour,0.5
161,25,1,1,2,34,84,126.74676730757346,127.33605862013064,"[72, 0, 182]",182,a,0.06619772675912827,colour,0.5
161,25,1,1,2,35,85,127.85622041224269,128.4800693957368,"[71, 0, 183]",183,a,0.10046710196183994,colour,0.5
161,25,1,1,2,36,86,128.9970114924363,129.5520984143368,"[18, 0, 236]",236,a,0.03183619130868465,colour,0.5
161,25,1,1,2,37,87,130.05947594775353,131.46409734309418,"[77, 0, 177]",177,l,0.881355304736644,colour,0.5
161,25,1,1,2,38,88,131.9814478586195,132.76011122227646,"[43, 0, 211]",211,a,0.2552759682876058,colour,0.5
161,25,1,1,2,39,89,133.27845304954099,133.81605909270002,"[37, 0, 217]",217,a,0.014305294083897024,colour,0.5
161,25,1,1,2,40,90,134.32539837574586,134.85609004908474,"[99, 0, 155]",155,l,0.009049805870745331,colour,0.5
161,25,1,1,2,41,91,135.37053830944933,136.42406953754835,"[2, 0, 252]",252,a,0.5301627374137752,colour,0.5
161,25,1,1,2,42,92,136.93317014956847,137.504067253205,"[76, 0, 178]",178,l,0.04756484681274742,colour,0.5
161,25,1,1,2,43,93,138.01164604222868,140.6000795569853,"[91, 0, 163]",163,l,2.065539215283934,colour,0.5
161,25,1,1,2,44,94,141.121002654545,142.08007727266522,"[80, 0, 174]",174,l,0.43576126598054543,colour,0.5
161,25,1,1,2,45,95,142.58985845156712,143.56807873776415,"[6, 0, 248]",248,a,0.4548762140329927,colour,0.5
161,25,1,1,2,46,96,144.07437161781127,145.0961087961332,"[4, 0, 250]",250,a,0.4983572660712525,colour,0.5
161,25,1,1,2,47,97,145.6057580364286,146.16013485303847,"[86, 0, 168]",168,l,0.030975636618677527,colour,0.5
161,25,1,1,2,48,98,146.66845407354413,147.2804124361137,"[23, 0, 231]",231,a,0.08934054337441921,colour,0.5
161,25,1,1,2,49,99,147.79333099647192,148.32808283378836,"[27, 0, 227]",227,a,0.011772860831115395,colour,0.5
161,25,1,1,2,50,100,148.8403960520518,149.92007790284697,"[12, 0, 242]",242,a,0.5553007806302048,colour,0.5
161,25,1,1,3,1,101,154.49737383122556,156.88809362519532,"[17, 0, 237]",237,a,1.8665301331784576,colour,0.5
161,25,1,1,3,2,102,157.40773869067198,158.24812765355455,"[52, 0, 202]",202,a,0.3170921522541903,colour,0.5
161,25,1,1,3,3,103,158.76712208456593,159.30416335177142,"[82, 0, 172]",172,l,0.013649145723320544,colour,0.5
161,25,1,1,3,4,104,159.81411861081142,160.56812284857733,"[46, 0, 208]",208,a,0.23070270096650347,colour,0.5
161,25,1,1,3,5,105,161.07980551855871,161.64808472426375,"[88, 0, 166]",166,l,0.04507022286998108,colour,0.5
161,25,1,1,3,6,106,162.15804116480285,162.73612911865348,"[11, 0, 243]",243,a,0.054729309282265604,colour,0.5
161,25,1,1,3,7,107,163.25384039763594,163.84009830409195,"[28, 0, 226]",226,a,0.06288902193773538,colour,0.5
161,25,1,1,3,8,108,164.34764519153396,165.09606507921126,"[34, 0, 220]",220,a,0.22535190189955756,colour,0.5
161,25,1,1,3,9,109,165.6133781793178,166.2481205642689,"[22, 0, 232]",232,a,0.11143612198065966,colour,0.5
161,25,1,1,3,10,110,166.76974785944913,167.3121214149869,"[93, 0, 161]",161,l,0.01908265263773501,colour,0.5
161,25,1,1,3,11,111,167.83234267798252,168.5280749568483,"[35, 0, 219]",219,a,0.17236300045624375,colour,0.5
161,25,1,1,3,12,112,169.0355986073264,169.83213984704344,"[19, 0, 235]",235,a,0.27322316134814173,colour,0.5
161,25,1,1,3,13,113,170.34814970893785,171.1521027466515,"[37, 0, 217]",217,a,0.28071294096298516,colour,0.5
161,25,1,1,3,14,114,171.66079809062649,172.20809039566666,"[81, 0, 173]",173,l,0.024351137864869088,colour,0.5
161,25,1,1,3,15,115,172.72325506288325,173.2721006986685,"[4, 0, 250]",250,a,0.02540192037122324,colour,0.5
161,25,1,1,3,16,116,173.78581955528352,174.55210589745548,"[65, 0, 189]",189,l,0.24284695909591392,colour,0.5
161,25,1,1,3,17,117,175.06734815245727,175.64018061803654,"[30, 0, 224]",224,a,0.04945294716162607,colour,0.5
161,25,1,1,3,18,118,176.16112813400105,176.72013894905103,"[10, 0, 244]",244,a,0.03568604128668085,colour,0.5
161,25,1,1,3,19,119,177.23934330028715,177.8401498979656,"[78, 0, 176]",176,l,0.07781383657129481,colour,0.5
161,25,1,1,3,20,120,178.3488023126847,178.9521397682256,"[66, 0, 188]",188,l,0.08026159286964685,colour,0.5
161,25,1,1,3,21,121,179.45826565736206,180.22411798068788,"[33, 0, 221]",221,a,0.2424940726486966,colour,0.5
161,25,1,1,3,22,122,180.73952880199067,181.49619386700215,"[38, 0, 216]",216,a,0.23380424251081422,colour,0.5
161,25,1,1,3,23,123,182.00538624532055,182.7201220136485,"[43, 0, 211]",211,a,0.19147558545228094,colour,0.5
161,25,1,1,3,24,124,183.2397887406987,183.9922093215282,"[27, 0, 227]",227,a,0.22911471175029874,colour,0.5
161,25,1,1,3,25,125,184.5055985286017,185.2081719218986,"[16, 0, 238]",238,a,0.17930415197042748,colour,0.5
161,25,1,1,3,26,126,185.72443345171632,186.50410585018108,"[3, 0, 251]",251,a,0.25639488629531115,colour,0.5
161,25,1,1,3,27,127,187.02139295643428,187.75217048829654,"[20, 0, 234]",234,a,0.20754294900689274,colour,0.5
161,25,1,1,3,28,128,188.27145439648302,189.1121218088665,"[51, 0, 203]",203,l,0.3172847431851551,colour,0.5
161,25,1,1,3,29,129,189.6308247934212,190.20015832630452,"[9, 0, 245]",245,a,0.045889817469287664,colour,0.5
161,25,1,1,3,30,130,190.70915771980071,191.24014083953807,"[91, 0, 163]",163,l,0.007679219881538302,colour,0.5
161,25,1,1,3,31,131,191.756134159863,193.17615416727494,"[57, 0, 197]",197,a,0.8966885382542387,colour,0.5
161,25,1,1,3,32,132,193.69549478939734,194.52810528303962,"[58, 0, 196]",196,a,0.30945468007121235,colour,0.5
161,25,1,1,3,33,133,195.04106677271193,195.72013107209932,"[86, 0, 168]",168,l,0.15570211020531133,colour,0.5
161,25,1,1,3,34,134,196.22867832978955,197.02413846069248,"[56, 0, 198]",198,a,0.272275960422121,colour,0.5
161,25,1,1,3,35,135,197.54235110629816,198.31213835038943,"[26, 0, 228]",228,a,0.24640969489701092,colour,0.5
161,25,1,1,3,36,136,198.823692232545,199.56815396249294,"[14, 0, 240]",240,a,0.22107906074961647,colour,0.5
161,25,1,1,3,37,137,200.0894657865283,202.16014469921356,"[50, 0, 204]",204,a,1.5473801328334957,colour,0.5
161,25,1,1,3,38,138,202.66783573449356,203.62416248529917,"[6, 0, 248]",248,a,0.43314415571512654,colour,0.5
161,25,1,1,3,39,139,204.13847762555815,204.7761699211551,"[70, 0, 184]",184,l,0.11501146096270531,colour,0.5
161,25,1,1,3,40,140,205.29479531792458,206.04014202102553,"[92, 0, 162]",162,l,0.2221660771756433,colour,0.5
161,25,1,1,3,41,141,206.56050073646475,207.10416098870337,"[13, 0, 241]",241,a,0.02025552763370797,colour,0.5
161,25,1,1,3,42,142,207.623435444606,208.26416272163624,"[94, 0, 160]",160,l,0.11774081748444587,colour,0.5
161,25,1,1,3,43,143,208.7794124596985,209.4164667238947,"[77, 0, 177]",177,l,0.11382834590040147,colour,0.5
161,25,1,1,3,44,144,209.93575693364255,211.19219041691395,"[62, 0, 192]",192,a,0.7330464817932807,colour,0.5
161,25,1,1,3,45,145,211.70156553998822,212.31212929193862,"[87, 0, 167]",167,l,0.08714563655667007,colour,0.5
161,25,1,1,3,46,146,212.82667995244265,213.7681764117442,"[67, 0, 187]",187,a,0.41818547021830454,colour,0.5
161,25,1,1,3,47,147,214.27988310635556,215.19216639228398,"[71, 0, 183]",183,a,0.38908611849183217,colour,0.5
161,25,1,1,3,48,148,215.70185383566422,216.61619536363287,"[18, 0, 236]",236,a,0.3909013572265394,colour,0.5
161,25,1,1,3,49,149,217.12388600502163,218.55216773133725,"[85, 0, 169]",169,l,0.9049230817472562,colour,0.5
161,25,1,1,3,50,150,219.06153064518003,220.2321839578217,"[75, 0, 179]",179,l,0.6474057328305207,colour,0.5
161,25,1,1,4,1,151,224.81122029409744,225.36816892866045,"[65, 0, 189]",189,a,0.032904303167015314,colour,0.5
161,25,1,1,4,2,152,225.87458587036235,226.90421888412675,"[18, 0, 236]",236,a,0.5062574338517152,colour,0.5
161,25,1,1,4,3,153,227.42164462438086,228.20819318958092,"[7, 0, 247]",247,a,0.2632438776199706,colour,0.5
161,25,1,1,4,4,154,228.71859113214305,229.45617827068781,"[39, 0, 215]",215,a,0.21437539876205847,colour,0.5
161,25,1,1,4,5,155,229.96887627703836,230.54428371129325,"[67, 0, 187]",187,l,0.05232408846495673,colour,0.5
161,25,1,1,4,6,156,231.0624550030334,231.6322221609298,"[41, 0, 213]",213,a,0.04653966426849365,colour,0.5
161,25,1,1,4,7,157,232.14071309851715,233.0081955526839,"[59, 0, 195]",195,a,0.34471733635291457,colour,0.5
161,25,1,1,4,8,158,233.51583263097564,234.07225981267402,"[75, 0, 179]",179,l,0.03313746029743925,colour,0.5
161,25,1,1,4,9,159,234.5940186525695,235.2082581743016,"[97, 0, 157]",157,l,0.09089032950578257,colour,0.5
161,25,1,1,4,10,160,235.7190507510677,236.5921880538226,"[72, 0, 182]",182,a,0.349678227386903,colour,0.5
161,25,1,1,4,11,161,237.1098552219919,237.77619394578505,"[49, 0, 205]",205,a,0.1429698392166756,colour,0.5
161,25,1,1,4,12,162,238.29744984360877,238.83215560088865,"[96, 0, 158]",158,l,0.011417611269280314,colour,0.5
161,25,1,1,4,13,163,239.34444636991248,240.2162099359557,"[13, 0, 241]",241,a,0.34843249077675864,colour,0.5
161,25,1,1,4,14,164,240.7351303237956,241.52818799082888,"[84, 0, 170]",170,l,0.26978173025418073,colour,0.5
161,25,1,1,4,15,165,242.04777437320445,242.6561932368786,"[69, 0, 185]",185,a,0.08511181303765625,colour,0.5
161,25,1,1,4,16,166,243.17285058251582,243.94417658500606,"[87, 0, 167]",167,l,0.24798311182530597,colour,0.5
161,25,1,1,4,17,167,244.4542031302699,245.39216127229156,"[29, 0, 225]",225,a,0.4147337991162203,colour,0.5
161,25,1,1,4,18,168,245.90750001970446,246.8001866832492,"[85, 0, 169]",169,l,0.36873094766633585,colour,0.5
161,25,1,1,4,19,169,247.31454357120674,248.3761797673069,"[70, 0, 184]",184,a,0.5383823147276416,colour,0.5
161,25,1,1,4,20,170,248.8928138759802,249.85618654143764,"[14, 0, 240]",240,a,0.4393271525623277,colour,0.5
161,25,1,1,4,21,171,250.37797098135343,251.2243113592849,"[45, 0, 209]",209,a,0.3229762195260264,colour,0.5
161,25,1,1,4,22,172,251.73919048783137,252.62418926687678,"[16, 0, 238]",238,a,0.3615271005546674,colour,0.5
161,25,1,1,4,23,173,253.1456424818607,254.03225721331546,"[17, 0, 237]",237,a,0.36392444447847083,colour,0.5
161,25,1,1,4,24,174,254.55189518956468,255.44027435348835,"[89, 0, 165]",165,l,0.3649334793444723,colour,0.5
161,25,1,1,4,25,175,255.9582983466098,256.8401810118812,"[58, 0, 196]",196,a,0.3710723653784953,colour,0.5
161,25,1,1,4,26,176,257.35227446374483,258.2482178444043,"[21, 0, 233]",233,a,0.3725993084372021,colour,0.5
161,25,1,1,4,27,177,258.75878277787706,259.66426512174075,"[32, 0, 222]",222,a,0.3823414964717813,colour,0.5
161,25,1,1,4,28,178,260.18058533471776,260.97624357044697,"[98, 0, 156]",156,l,0.27229880349477753,colour,0.5
161,25,1,1,4,29,179,261.49318763636984,262.39224319235655,"[36, 0, 218]",218,a,0.375788283883594,colour,0.5
161,25,1,1,4,30,180,262.89958843035856,263.81619575747754,"[80, 0, 174]",174,l,0.3932841287460178,colour,0.5
161,25,1,1,4,31,181,264.33721101511037,265.3201791213942,"[79, 0, 175]",175,l,0.4597024095710367,colour,0.5
161,25,1,1,4,32,182,265.837344529049,266.76823667023564,"[3, 0, 251]",251,a,0.40766267827712,colour,0.5
161,25,1,1,4,33,183,267.27504627697635,268.2962328577996,"[0, 0, 254]",254,a,0.49795042257755995,colour,0.5
161,25,1,1,4,34,184,268.80625940306345,269.96829732262995,"[54, 0, 200]",200,a,0.6386729734949768,colour,0.5
161,25,1,1,4,35,185,270.47830811399035,271.160209683876,"[78, 0, 176]",176,l,0.15862011926947162,colour,0.5
161,25,1,1,4,36,186,271.68152899103006,272.78422999061877,"[44, 0, 210]",210,a,0.577262451464776,colour,0.5
161,25,1,1,4,37,187,273.29303285467904,274.2001725047594,"[22, 0, 232]",232,a,0.3838333871681243,colour,0.5
161,25,1,1,4,38,188,274.7150732948212,275.6242479500361,"[94, 0, 160]",160,l,0.38592628767946735,colour,0.5
161,25,1,1,4,39,189,276.13706253492273,277.0322398840217,"[91, 0, 163]",163,l,0.3718773876898922,colour,0.5
161,25,1,1,4,40,190,277.54337983345613,278.30424684722675,"[77, 0, 177]",177,l,0.23753908922662959,colour,0.5
161,25,1,1,4,41,191,278.8247642828501,279.5362728726468,"[31, 0, 223]",223,a,0.18895851221168414,colour,0.5
161,25,1,1,4,42,192,280.04353303980315,280.672227517236,"[63, 0, 191]",191,a,0.10539806069573388,colour,0.5
161,25,1,1,4,43,193,281.1842792214593,281.8162571975263,"[20, 0, 234]",234,a,0.10850393451983109,colour,0.5
161,25,1,1,4,44,194,282.32505572924856,282.86423597706016,"[4, 0, 250]",250,a,0.01579245860921219,colour,0.5
161,25,1,1,4,45,195,283.37196679087356,285.81622687133495,"[37, 0, 217]",217,a,1.9210054114228114,colour,0.5
161,25,1,1,4,46,196,286.3253987696371,287.70424015185563,"[43, 0, 211]",211,a,0.8555335439159535,colour,0.5
161,25,1,1,4,47,197,288.216153222078,288.87224287725985,"[71, 0, 183]",183,l,0.13276054913876578,colour,0.5
161,25,1,1,4,48,198,289.388068025175,289.9442147881491,"[86, 0, 168]",168,l,0.03282829077215865,colour,0.5
161,25,1,1,4,49,199,290.4505931328749,291.3442313296837,"[48, 0, 206]",206,a,0.37016336753731593,colour,0.5
161,25,1,1,4,50,200,291.856975809962,294.6082609312143,"[15, 0, 239]",239,a,2.2282194985891692,colour,0.5
161,25,1,1,5,1,201,299.1068501729169,300.1842425937066,"[76, 0, 178]",178,l,0.5532846801797859,colour,0.4
161,25,1,1,5,2,202,300.6984651800012,303.20824911579257,"[28, 0, 226]",226,a,1.9864812174346298,colour,0.4
161,25,1,1,5,3,203,303.7298945278744,304.3123596921796,"[92, 0, 162]",162,l,0.059397178527433425,colour,0.4
161,25,1,1,5,4,204,304.8206982111442,305.8082581742783,"[23, 0, 231]",231,a,0.4642643340630457,colour,0.4
161,25,1,1,5,5,205,306.3208959220792,306.9282935417141,"[8, 0, 246]",246,a,0.08409844589186832,colour,0.4
161,25,1,1,5,6,206,307.44589966366766,308.088555607188,"[22, 0, 232]",232,a,0.11925988359143957,colour,0.4
161,25,1,1,5,7,207,308.6022717068554,309.656508314074,"[94, 0, 160]",160,l,0.530923648911994,colour,0.4
161,25,1,1,5,8,208,310.16761833120836,310.8962923286599,"[74, 0, 180]",180,l,0.20509046653751284,colour,0.4
161,25,1,1,5,9,209,311.41783573449356,311.98425165220397,"[81, 0, 173]",173,l,0.04303639935096726,colour,0.4
161,25,1,1,5,10,210,312.4979894133867,313.12025119533064,"[99, 0, 155]",155,l,0.09889880509581417,colour,0.4
161,25,1,1,5,11,211,313.63875686278334,314.2002544248826,"[55, 0, 199]",199,a,0.03809441294288263,colour,0.4
161,25,1,1,5,12,212,314.71690034895437,315.4162493206095,"[72, 0, 182]",182,a,0.17592613014858216,colour,0.4
161,25,1,1,5,13,213,315.93577229365474,316.5762644443312,"[32, 0, 222]",222,a,0.11718706926330924,colour,0.4
161,25,1,1,5,14,214,317.09211952454643,317.6802899498143,"[31, 0, 223]",223,a,0.06488070386694744,colour,0.4
161,25,1,1,5,15,215,318.1954589493689,318.73627641727217,"[96, 0, 158]",158,l,0.017563192697707564,colour,0.4
161,25,1,1,5,16,216,319.25803210638696,319.80033910187194,"[93, 0, 161]",161,l,0.01962025318061933,colour,0.4
161,25,1,1,5,17,217,320.32062456186395,320.90430986270076,"[9, 0, 245]",245,a,0.060333745554089546,colour,0.4
161,25,1,1,5,18,218,321.4150441501988,322.0162859483389,"[17, 0, 237]",237,a,0.07783864892553538,colour,0.4
161,25,1,1,5,19,219,322.52459256572183,323.1282868463313,"[70, 0, 184]",184,l,0.08031121757812798,colour,0.4
161,25,1,1,5,20,220,323.6496778335422,324.440244027297,"[20, 0, 234]",234,a,0.26786960527533665,colour,0.4
161,25,1,1,5,21,221,324.9466432459303,325.512252959772,"[4, 0, 250]",250,a,0.042502737254835665,colour,0.4
161,25,1,1,5,22,222,326.0248064243933,326.58431230456335,"[91, 0, 163]",163,l,0.036141721764579415,colour,0.4
161,25,1,1,5,23,223,327.1031090245815,327.7602703362354,"[12, 0, 242]",242,a,0.13374359015142545,colour,0.4
161,25,1,1,5,24,224,328.2751203200896,328.8402873504092,"[86, 0, 168]",168,l,0.04192929662531242,colour,0.4
161,25,1,1,5,25,225,329.35333588020876,329.8803049160051,"[19, 0, 235]",235,a,0.004153505666181445,colour,0.4
161,25,1,1,5,26,226,330.4002752987435,330.92826636630343,"[85, 0, 169]",169,l,0.004657629237044603,colour,0.4
161,25,1,1,5,27,227,331.4472797019407,332.02432750700973,"[54, 0, 200]",200,a,0.05562137166270986,colour,0.4
161,25,1,1,5,28,228,332.53930942947045,333.16840011655586,"[68, 0, 186]",186,a,0.10582105186767876,colour,0.4
161,25,1,1,5,29,229,333.6799784171744,334.25632872007554,"[62, 0, 192]",192,a,0.05324332625605166,colour,0.4
161,25,1,1,5,30,230,334.77385843580123,336.36829535337165,"[53, 0, 201]",201,a,1.0711160823120736,colour,0.4
161,25,1,1,5,31,231,336.8846848833491,337.84826077363687,"[0, 0, 254]",254,a,0.44017234724015,colour,0.4
161,25,1,1,5,32,232,338.3691452742205,338.9283337140223,"[98, 0, 156]",156,l,0.03587114915717393,colour,0.4
161,25,1,1,5,33,233,339.44733326503774,340.2805676116259,"[95, 0, 159]",159,l,0.309887123585213,colour,0.4
161,25,1,1,5,34,234,340.7912042251555,341.49627145478735,"[24, 0, 230]",230,a,0.1817148866248317,colour,0.4
161,25,1,1,5,35,235,342.010008822137,342.71231085516047,"[89, 0, 165]",165,l,0.1789079422596842,colour,0.4
161,25,1,1,5,36,236,343.2289087299723,343.86430686945096,"[79, 0, 175]",175,l,0.11214189504971728,colour,0.4
161,25,1,1,5,37,237,344.3852094869944,344.9123470890918,"[60, 0, 194]",194,a,0.0037572960136458278,colour,0.4
161,25,1,1,5,38,238,345.43222058558604,345.96832922421163,"[21, 0, 233]",233,a,0.012780320306774229,colour,0.4
161,25,1,1,5,39,239,346.47918284719344,347.1926067126915,"[78, 0, 176]",176,l,0.19024363346397877,colour,0.4
161,25,1,1,5,40,240,347.71425330633065,349.23230762564344,"[59, 0, 195]",195,a,0.9947760194772854,colour,0.4
161,25,1,1,5,41,241,349.74566059879726,350.52028152148705,"[66, 0, 188]",188,l,0.25146038294769824,colour,0.4
161,25,1,1,5,42,242,351.0288134191069,352.3362712972448,"[64, 0, 190]",190,a,0.7841567351715639,colour,0.4
161,25,1,1,5,43,243,352.8573605979909,353.44030783046037,"[14, 0, 240]",240,a,0.060138791508506984,colour,0.4
161,25,1,1,5,44,244,353.950977527129,355.2483100044774,"[1, 0, 253]",253,a,0.7743204177822918,colour,0.4
161,25,1,1,5,45,245,355.7635920380126,357.40827747277217,"[2, 0, 252]",252,a,1.1337341378675774,colour,0.4
161,25,1,1,5,46,246,357.9231975612929,358.4803309098352,"[90, 0, 164]",164,l,0.03428906761109829,colour,0.4
161,25,1,1,5,47,247,359.0014013060136,359.60032413568115,"[33, 0, 221]",221,a,0.07549801893765107,colour,0.4
161,25,1,1,5,48,248,360.1108563799062,360.8962942978833,"[69, 0, 185]",185,l,0.26199105178238824,colour,0.4
161,25,1,1,5,49,249,361.4079041062505,362.40828298660927,"[5, 0, 249]",249,a,0.47703598969383165,colour,0.4
161,25,1,1,5,50,250,362.92373713105917,363.4883393854252,"[84, 0, 170]",170,l,0.04138263768982142,colour,0.4
161,25,1,1,6,1,251,368.0830098540173,369.18464156024856,"[85, 0, 169]",169,l,0.5775310547905974,colour,0.28
161,25,1,1,6,2,252,369.6955416571582,370.70430474268505,"[89, 0, 165]",165,l,0.4857210936024785,colour,0.28
161,25,1,1,6,3,253,371.21126046648715,372.1282978740055,"[78, 0, 176]",176,l,0.3936326829716563,colour,0.28
161,25,1,1,6,4,254,372.6488767496776,373.1923164477921,"[57, 0, 197]",197,a,0.02005742280744016,colour,0.28
161,25,1,1,6,5,255,373.71143809123896,374.39235543861287,"[22, 0, 232]",232,a,0.15755043202079833,colour,0.28
161,25,1,1,6,6,256,374.89904610364465,376.1763176135719,"[81, 0, 173]",173,l,0.7538549699238501,colour,0.28
161,25,1,1,6,7,257,376.69609382998897,377.64859711861936,"[40, 0, 214]",214,a,0.42912928404984996,colour,0.28
161,25,1,1,6,8,258,378.16495907935314,379.12833607714856,"[1, 0, 253]",253,a,0.44004867947660387,colour,0.28
161,25,1,1,6,9,259,379.64946082409006,380.56834261497715,"[10, 0, 244]",244,a,0.39552669099066406,colour,0.28
161,25,1,1,6,10,260,381.0875650831149,382.12031696765916,"[25, 0, 229]",229,a,0.5095558986067772,colour,0.28
161,25,1,1,6,11,261,382.63456554786535,383.6403243719833,"[87, 0, 167]",167,l,0.4823210164322518,colour,0.28
161,25,1,1,6,12,262,384.15033988957293,385.1363327372819,"[97, 0, 157]",157,l,0.46269997558556497,colour,0.28
161,25,1,1,6,13,263,385.6504072372918,386.77631918899715,"[41, 0, 213]",213,a,0.6024509070557542,colour,0.28
161,25,1,1,6,14,264,387.2912050128798,388.480315549823,"[59, 0, 195]",195,a,0.6658724094741046,colour,0.28
161,25,1,1,6,15,265,388.9954845493776,389.92863264353946,"[52, 0, 202]",202,a,0.40987648972077295,colour,0.28
161,25,1,1,6,16,266,390.44869400485186,391.3843445999664,"[88, 0, 166]",166,l,0.4128492434392683,colour,0.28
161,25,1,1,6,17,267,391.9019775034976,392.9123329105787,"[84, 0, 170]",170,l,0.48700463952263817,colour,0.28
161,25,1,1,6,18,268,393.4333513189922,394.38438162155217,"[63, 0, 191]",191,a,0.428014304547105,colour,0.28
161,25,1,1,6,19,269,394.9022409868194,396.21632454526844,"[14, 0, 240]",240,a,0.7907174308202229,colour,0.28
161,25,1,1,6,20,270,396.73126196308294,398.13637842348544,"[65, 0, 189]",189,a,0.8828377430909313,colour,0.28
161,25,1,1,6,21,271,398.6524674485554,399.5843768953928,"[33, 0, 221]",221,a,0.4085571038303897,colour,0.28
161,25,1,1,6,22,272,400.10572652867995,401.0403511535842,"[16, 0, 238]",238,a,0.4112183249089867,colour,0.28
161,25,1,1,6,23,273,401.55902617500396,402.49633486405946,"[35, 0, 219]",219,a,0.41431041405303404,colour,0.28
161,25,1,1,6,24,274,403.012244295096,403.99247122951783,"[68, 0, 186]",186,l,0.4570238592568785,colour,0.28
161,25,1,1,6,25,275,404.5123514214065,405.1683749103686,"[92, 0, 162]",162,l,0.13305475254310295,colour,0.28
161,25,1,1,6,26,276,405.6848239112296,406.74432112672366,"[12, 0, 242]",242,a,0.5364032358629629,colour,0.28
161,25,1,1,6,27,277,407.2630788559327,407.92836837255163,"[64, 0, 190]",190,l,0.14213921688497066,colour,0.28
161,25,1,1,6,28,278,408.43512480997015,409.07239765895065,"[79, 0, 175]",175,l,0.11391538596944883,colour,0.28
161,25,1,1,6,29,279,409.5913440407021,410.2563850401202,"[74, 0, 180]",180,l,0.13957803283119574,colour,0.28
161,25,1,1,6,30,280,410.7654663536814,412.0563566831988,"[80, 0, 174]",174,l,0.7674651248962618,colour,0.28
161,25,1,1,6,31,281,412.5624959630659,413.25637992011616,"[99, 0, 155]",155,l,0.1706604018690996,colour,0.28
161,25,1,1,6,32,282,413.76575386163313,414.3764649122022,"[70, 0, 184]",184,a,0.08424574451055378,colour,0.28
161,25,1,1,6,33,283,414.8940123509965,415.60037848650245,"[90, 0, 164]",164,l,0.18308310949942097,colour,0.28
161,25,1,1,6,34,284,416.11269328015624,416.95249147323193,"[72, 0, 182]",182,a,0.3165809393976815,colour,0.28
161,25,1,1,6,35,285,417.4723066803999,418.32048277708236,"[60, 0, 194]",194,a,0.3249245783663355,colour,0.28
161,25,1,1,6,36,286,418.8287220467464,419.7603609209764,"[66, 0, 188]",188,a,0.4083503343863413,colour,0.28
161,25,1,1,6,37,287,420.2681929533137,421.20036273263395,"[86, 0, 168]",168,l,0.4087662363308482,colour,0.28
161,25,1,1,6,38,288,421.72139965184033,422.6406871046638,"[62, 0, 192]",192,a,0.39588824211386964,colour,0.28
161,25,1,1,6,39,289,423.1590706796851,424.15238828543806,"[69, 0, 185]",185,a,0.47743574396008626,colour,0.28
161,25,1,1,6,40,290,424.66722566616954,425.62436295318184,"[77, 0, 177]",177,a,0.43377155321650207,colour,0.28
161,25,1,1,6,41,291,426.1360605893424,426.76857616595225,"[73, 0, 181]",181,a,0.10907304275315255,colour,0.28
161,25,1,1,6,42,292,427.2768044079421,428.1124022275908,"[75, 0, 179]",179,a,0.3122738336096518,colour,0.28
161,25,1,1,6,43,293,428.6207210542634,429.44070128316525,"[32, 0, 222]",222,a,0.29670429218094796,colour,0.28
161,25,1,1,6,44,294,429.94894449127605,431.96034556091763,"[61, 0, 193]",193,a,1.4881794837419875,colour,0.28
161,25,1,1,6,45,295,432.48035060218535,433.1844135231222,"[71, 0, 183]",183,a,0.17960741376737133,colour,0.28
161,25,1,1,6,46,296,433.70087040081853,434.56036682863487,"[82, 0, 172]",172,l,0.3361003678292036,colour,0.28
161,25,1,1,6,47,297,435.0760730348993,435.90435948735103,"[98, 0, 156]",156,l,0.30496640485944226,colour,0.28
161,25,1,1,6,48,298,436.4105566627113,437.1763885059627,"[36, 0, 218]",218,a,0.24242987559409812,colour,0.28
161,25,1,1,6,49,299,437.6925559064839,438.48038841143716,"[83, 0, 171]",171,l,0.26455617434112355,colour,0.28
161,25,1,1,6,50,300,438.9798823186429,439.72837782488205,"[34, 0, 220]",220,a,0.22542752046138048,colour,0.28
161,25,1,1,7,1,301,454.48033957445296,455.4963970918325,"[87, 0, 167]",167,l,0.49192338896682486,colour,0.14
161,25,1,1,7,2,302,456.0124636676628,458.70441344432766,"[92, 0, 162]",162,l,2.168676596833393,colour,0.14
161,25,1,1,7,3,303,459.2178058021236,460.1764054413652,"[68, 0, 186]",186,a,0.4352287854417227,colour,0.14
161,25,1,1,7,4,304,460.6866466330248,461.6163883484551,"[77, 0, 177]",177,l,0.4066938158357516,colour,0.14
161,25,1,1,7,5,305,462.11180751933716,463.184426913911,"[52, 0, 202]",202,a,0.5492808362469077,colour,0.14
161,25,1,1,7,6,306,463.70573834411334,464.68838349625,"[66, 0, 188]",188,a,0.4595511725055985,colour,0.14
161,25,1,1,7,7,307,465.20583168574376,466.0564441171009,"[63, 0, 191]",191,a,0.3272305498830974,colour,0.14
161,25,1,1,7,8,308,466.56534307973925,467.4484013768961,"[27, 0, 227]",227,a,0.35972997883800417,colour,0.14
161,25,1,1,7,9,309,467.9561247075326,468.87242601590697,"[88, 0, 166]",166,l,0.3929769284441136,colour,0.14
161,25,1,1,7,10,310,469.3945093853399,470.2483911368763,"[20, 0, 234]",234,a,0.3313781478209421,colour,0.14
161,25,1,1,7,11,311,470.76881050464,471.576413318282,"[8, 0, 246]",246,a,0.28426307369954884,colour,0.14
161,25,1,1,7,12,312,472.0970477263327,472.92854166502366,"[83, 0, 171]",171,l,0.3083759344299324,colour,0.14
161,25,1,1,7,13,313,473.4409226248972,474.4725528344861,"[67, 0, 187]",187,a,0.5082758973585442,colour,0.14
161,25,1,1,7,14,314,474.98785652959486,475.8964577441802,"[56, 0, 198]",198,a,0.38530519168125466,colour,0.14
161,25,1,1,7,15,315,476.410176206904,477.3124286152888,"[14, 0, 240]",240,a,0.39186825044453144,colour,0.14
161,25,1,1,7,16,316,477.8194032437168,478.72048277710564,"[91, 0, 163]",163,l,0.3829330540029332,colour,0.14
161,25,1,1,7,17,317,479.2361925279256,480.10449654597323,"[4, 0, 250]",250,a,0.344875268812757,colour,0.14
161,25,1,1,7,18,318,480.61130497109843,481.352409553132,"[89, 0, 165]",165,l,0.22798397834412754,colour,0.14
161,25,1,1,7,19,319,481.86833198112436,482.7844706308679,"[78, 0, 176]",176,l,0.3928008790826425,colour,0.14
161,25,1,1,7,20,320,483.305843894952,484.2084460390615,"[69, 0, 185]",185,a,0.3791040778742172,colour,0.14
161,25,1,1,7,21,321,484.7279170244001,485.56844225816894,"[99, 0, 155]",155,l,0.3171732845949009,colour,0.14
161,25,1,1,7,22,322,486.0749296983704,486.9604306318215,"[49, 0, 205]",205,a,0.3621426827739924,colour,0.14
161,25,1,1,7,23,323,487.48130292311544,488.6004674958531,"[18, 0, 236]",236,a,0.5960067899432033,colour,0.14
161,25,1,1,7,24,324,489.12209636636544,489.95245287625585,"[93, 0, 161]",161,l,0.30716800707159564,colour,0.14
161,25,1,1,7,25,325,490.4659125818289,491.3844273077557,"[75, 0, 179]",179,a,0.40556347626261413,colour,0.14
161,25,1,1,7,26,326,491.89344324276317,492.79243420792045,"[53, 0, 201]",201,a,0.3756256252527237,colour,0.14
161,25,1,1,7,27,327,493.2998341905768,494.1685600182391,"[73, 0, 181]",181,l,0.34574212500592694,colour,0.14
161,25,1,1,7,28,328,494.677908753627,495.5124112860649,"[70, 0, 184]",184,a,0.311679519189056,colour,0.14
161,25,1,1,7,29,329,496.0216639228747,496.9524481500848,"[79, 0, 175]",175,l,0.40745039499597624,colour,0.14
161,25,1,1,7,30,330,497.4593341630534,498.1204591462738,"[59, 0, 195]",195,a,0.13774704025126994,colour,0.14
161,25,1,1,7,31,331,498.63131434464594,499.43242459808243,"[94, 0, 160]",160,l,0.2778000520193018,colour,0.14
161,25,1,1,7,32,332,499.9438689908711,500.7604597764439,"[54, 0, 200]",200,a,0.2931667625089176,colour,0.14
161,25,1,1,7,33,333,501.2721396894776,502.2484454876976,"[61, 0, 193]",193,a,0.45306609536055475,colour,0.14
161,25,1,1,7,34,334,502.7567052373779,503.58443872927455,"[60, 0, 194]",194,a,0.30447055207332596,colour,0.14
161,25,1,1,7,35,335,504.10047497891355,504.9444451883901,"[65, 0, 189]",189,a,0.3205583956441842,colour,0.14
161,25,1,1,7,36,336,505.4599891297985,506.4007467330084,"[64, 0, 190]",190,a,0.4173753278446384,colour,0.14
161,25,1,1,7,37,337,506.91324624069966,507.7444892991916,"[51, 0, 203]",203,a,0.30810969416052103,colour,0.14
161,25,1,1,7,38,338,508.25707309000427,509.98473490186734,"[50, 0, 204]",204,a,1.2043433396611363,colour,0.14
161,25,1,1,7,39,339,510.4798886202043,511.2484450938646,"[80, 0, 174]",174,l,0.2438374831690453,colour,0.14
161,25,1,1,7,40,340,511.7612238387228,512.70449654595,"[76, 0, 178]",178,l,0.41991642577340826,colour,0.14
161,25,1,1,7,41,341,513.2144423526479,514.0805038085091,"[55, 0, 199]",199,a,0.34266421431675553,colour,0.14
161,25,1,1,7,42,342,514.591454317735,515.5124632737716,"[86, 0, 168]",168,l,0.3983619922073558,colour,0.14
161,25,1,1,7,43,343,516.0291218009661,516.816457665409,"[82, 0, 172]",172,l,0.2640414168708958,colour,0.14
161,25,1,1,7,44,344,517.3260352256475,518.1125778831192,"[84, 0, 170]",170,l,0.2631710160057992,colour,0.14
161,25,1,1,7,45,345,518.623055776523,519.4884748686454,"[72, 0, 182]",182,l,0.3420427244855091,colour,0.14
161,25,1,1,7,46,346,519.9861145463074,520.8084996021935,"[62, 0, 192]",192,a,0.29678503068862483,colour,0.14
161,25,1,1,7,47,347,521.3166337148286,522.3924798941007,"[58, 0, 196]",196,a,0.5524871408706531,colour,0.14
161,25,1,1,7,48,348,522.9105759611703,523.8244425102021,"[81, 0, 173]",173,l,0.39055595378158614,colour,0.14
161,25,1,1,7,49,349,524.3350550991017,525.1924810756464,"[96, 0, 158]",158,l,0.3340078611508943,colour,0.14
161,25,1,1,7,50,350,525.7101955054095,526.4564787755953,"[57, 0, 197]",197,a,0.22289705637376755,colour,0.14
161,25,1,1,8,1,351,531.3679365591961,532.2245248241234,"[95, 0, 159]",159,l,0.3325514166499488,colour,0.06
161,25,1,1,8,2,352,532.7438839570386,533.6004749789136,"[90, 0, 164]",164,l,0.3331925988313742,colour,0.06
161,25,1,1,8,3,353,534.1189688309678,534.9444404622191,"[82, 0, 172]",172,l,0.30214055598480627,colour,0.06
161,25,1,1,8,4,354,535.4628094648942,536.1924924972118,"[77, 0, 177]",177,l,0.20646577869774774,colour,0.06
161,25,1,1,8,5,355,536.712942585058,537.5525493686437,"[92, 0, 162]",162,l,0.3163367545348592,colour,0.06
161,25,1,1,8,6,356,538.0724969083094,539.4885111025069,"[93, 0, 161]",161,l,0.8926846943213604,colour,0.06
161,25,1,1,8,7,357,540.011098989402,540.8724965144647,"[54, 0, 200]",200,a,0.3381141052232124,colour,0.06
161,25,1,1,8,8,358,541.3862090694602,542.2164446684765,"[62, 0, 192]",192,a,0.30688443750841543,colour,0.06
161,25,1,1,8,9,359,542.7196029238985,543.2564582955674,"[61, 0, 193]",193,a,0.02300260722404346,colour,0.06
161,25,1,1,8,10,360,543.7729793703184,544.616547462414,"[53, 0, 201]",201,a,0.32024843839462847,colour,0.06
161,25,1,1,8,11,361,545.1326242782525,545.8566244988469,"[99, 0, 155]",155,l,0.2006648129899986,colour,0.06
161,25,1,1,8,12,362,546.3669393397286,547.2005060928059,"[97, 0, 157]",157,l,0.3102333146962337,colour,0.06
161,25,1,1,8,13,363,547.710837475257,548.4565055571729,"[86, 0, 168]",168,l,0.22231888968963176,colour,0.06
161,25,1,1,8,14,364,548.976642930822,549.7766039400594,"[83, 0, 171]",171,l,0.27658070309553295,colour,0.06
161,25,1,1,8,15,365,550.2893791403039,551.0407182185445,"[98, 0, 156]",156,l,0.2279343536356464,colour,0.06
161,25,1,1,8,16,366,551.5550065772259,552.4406264523277,"[63, 0, 191]",191,a,0.3746744858799502,colour,0.06
161,25,1,1,8,17,367,552.9490201097797,553.8644714973052,"[70, 0, 184]",184,a,0.3921329153236002,colour,0.06
161,25,1,1,8,18,368,554.3710459776339,555.4004864004673,"[69, 0, 185]",185,a,0.5062223814893514,colour,0.06
161,25,1,1,8,19,369,555.9198274164228,556.7204709617072,"[96, 0, 158]",158,l,0.2772136144922115,colour,0.06
161,25,1,1,8,20,370,557.2333253251272,558.4325116381515,"[50, 0, 204]",204,a,0.6765188691788353,colour,0.06
161,25,1,1,8,21,371,558.9515848384472,559.7124896615278,"[80, 0, 174]",174,l,0.23743275069864467,colour,0.06
161,25,1,1,8,22,372,560.2329472324345,560.840501996805,"[76, 0, 178]",178,a,0.08423707989277318,colour,0.06
161,25,1,1,8,23,373,561.358119934157,562.5285144895897,"[55, 0, 199]",199,a,0.6471489448449574,colour,0.06
161,25,1,1,8,24,374,563.045753546583,563.8805317715742,"[44, 0, 210]",210,a,0.3116188668063842,colour,0.06
161,25,1,1,8,25,375,564.3770430789446,565.1604822257068,"[73, 0, 181]",181,a,0.2600749884149991,colour,0.06
161,25,1,1,8,26,376,565.674034879019,566.536514694395,"[78, 0, 176]",176,a,0.3391014785156585,colour,0.06
161,25,1,1,8,27,377,567.0491099068313,567.9124947815435,"[52, 0, 202]",202,a,0.3400467102183029,colour,0.06
161,25,1,1,8,28,378,568.4242581900326,569.1846588894841,"[57, 0, 197]",197,a,0.23705229494953528,colour,0.06
161,25,1,1,8,29,379,569.7056383070885,570.5044945767149,"[87, 0, 167]",167,l,0.2755334651446901,colour,0.06
161,25,1,1,8,30,380,571.0182055563782,571.912651532446,"[89, 0, 165]",165,l,0.3709932022029534,colour,0.06
161,25,1,1,8,31,381,572.4246138334274,573.3685194520513,"[75, 0, 179]",179,a,0.4206237741163932,colour,0.06
161,25,1,1,8,32,382,573.8778993012966,574.6565193418064,"[91, 0, 163]",163,l,0.25540199916576967,colour,0.06
161,25,1,1,8,33,383,575.1747434089775,575.8165738501702,"[65, 0, 189]",189,a,0.11843516892986372,colour,0.06
161,25,1,1,8,34,384,576.3311957968399,577.3525607901975,"[81, 0, 173]",173,l,0.4979551487485878,colour,0.06
161,25,1,1,8,35,385,577.8625345600303,578.7285495419637,"[67, 0, 187]",187,a,0.34272762364707887,colour,0.06
161,25,1,1,8,36,386,579.2276850487688,580.2645187589223,"[88, 0, 166]",166,l,0.513557379541453,colour,0.06
161,25,1,1,8,37,387,580.7746429780964,581.6485388292931,"[66, 0, 188]",188,a,0.3504568619537167,colour,0.06
161,25,1,1,8,38,388,582.1653407166596,583.0725209329394,"[58, 0, 196]",196,a,0.3838578056311235,colour,0.06
161,25,1,1,8,39,389,583.5852366623585,584.4245839011273,"[64, 0, 190]",190,a,0.31620599748566747,colour,0.06
161,25,1,1,8,40,390,584.9447252132813,585.8485730939428,"[85, 0, 169]",169,l,0.3804561530123465,colour,0.06
161,25,1,1,8,41,391,586.3667652595905,587.224527187238,"[51, 0, 203]",203,a,0.3345277386251837,colour,0.06
161,25,1,1,8,42,392,587.7293990689213,588.7285286680562,"[79, 0, 175]",175,l,0.4759194347425364,colour,0.06
161,25,1,1,8,43,393,589.2465979535482,590.1285278804135,"[60, 0, 194]",194,a,0.35858782386640087,colour,0.06
161,25,1,1,8,44,394,590.6373728860053,591.9608378691482,"[59, 0, 195]",195,a,0.800225280225277,colour,0.06
161,25,1,1,8,45,395,592.4812808677088,593.4645061558113,"[68, 0, 186]",186,a,0.45986349281156436,colour,0.06
161,25,1,1,8,46,396,593.9690779264783,594.8565087079187,"[56, 0, 198]",198,a,0.3641666600597091,colour,0.06
161,25,1,1,8,47,397,595.3754011326819,596.2246260427055,"[94, 0, 160]",160,l,0.3262160011800006,colour,0.06
161,25,1,1,8,48,398,596.7348203666043,597.8005391759216,"[74, 0, 180]",180,l,0.5422861216356978,colour,0.06
161,25,1,1,8,49,399,598.3131812560605,599.2965593566187,"[5, 0, 249]",249,a,0.46024788700742647,colour,0.06
161,25,1,1,8,50,400,599.813308862329,600.8166443486698,"[7, 0, 247]",247,a,0.48005600494798273,colour,0.06
161,25,1,1,9,1,401,605.3296082014567,606.2405575291486,"[59, 0, 195]",195,a,0.3870136979967356,colour,0.06
161,25,1,1,9,2,402,606.7523390545975,607.5605621765717,"[65, 0, 189]",189,a,0.28490386210614815,colour,0.06
161,25,1,1,9,3,403,608.081753089733,608.864541995863,"[6, 0, 248]",248,a,0.2594684647046961,colour,0.06
161,25,1,1,9,4,404,609.3693650406203,609.9765724323224,"[58, 0, 196]",196,a,0.08386410720413551,colour,0.06
161,25,1,1,9,5,405,610.4944455822115,611.4646810236736,"[94, 0, 160]",160,l,0.44700991705758497,colour,0.06
161,25,1,1,9,6,406,611.9789323607692,612.7685355997528,"[93, 0, 161]",161,l,0.2662394744111225,colour,0.06
161,25,1,1,9,7,407,613.2635120871128,613.9685749844066,"[60, 0, 194]",194,a,0.18188030214514583,colour,0.06
161,25,1,1,9,8,408,614.4853130686097,615.2325908013154,"[92, 0, 162]",162,l,0.22390175890177488,colour,0.06
161,25,1,1,9,9,409,615.7509964317433,616.5288941576728,"[91, 0, 163]",163,l,0.2545733460574411,colour,0.06
161,25,1,1,9,10,410,617.0479846872622,617.752576937899,"[67, 0, 187]",187,a,0.18116586451651528,colour,0.06
161,25,1,1,9,11,411,618.2668905027676,619.000572652847,"[90, 0, 164]",164,l,0.21051452110987157,colour,0.06
161,25,1,1,9,12,412,619.518704166112,620.2805325592635,"[54, 0, 200]",200,a,0.23839294852223247,colour,0.06
161,25,1,1,9,13,413,620.8000133907772,621.4405681630014,"[80, 0, 174]",174,l,0.11726465699030086,colour,0.06
161,25,1,1,9,14,414,621.9563440800994,622.6805865162751,"[73, 0, 181]",181,a,0.20087630854686722,colour,0.06
161,25,1,1,9,15,415,623.1907194000669,623.9525765440776,"[84, 0, 170]",170,l,0.23554386268369853,colour,0.06
161,25,1,1,9,16,416,624.4595661386265,625.0966022858629,"[61, 0, 193]",193,a,0.11367671500192955,colour,0.06
161,25,1,1,9,17,417,625.6158720155945,626.3845541262999,"[45, 0, 209]",209,a,0.24532346613705158,colour,0.06
161,25,1,1,9,18,418,626.8972848219564,627.7126042708405,"[98, 0, 156]",156,l,0.29225067544030026,colour,0.06
161,25,1,1,9,19,419,628.2254810835584,629.1046225768514,"[88, 0, 166]",166,l,0.35587107040919363,colour,0.06
161,25,1,1,9,20,420,629.6162166313152,630.4405973076355,"[57, 0, 197]",197,a,0.30095625936519355,colour,0.06
161,25,1,1,9,21,421,630.9600533267949,631.8005777728395,"[40, 0, 214]",214,a,0.3172114876797423,colour,0.06
161,25,1,1,9,22,422,632.3197289548116,633.1446744070272,"[74, 0, 180]",180,l,0.30179672787198797,colour,0.06
161,25,1,1,9,23,423,633.6633832993102,634.5205572140985,"[77, 0, 177]",177,l,0.33391609496902674,colour,0.06
161,25,1,1,9,24,424,635.0385130717768,635.8245512118447,"[53, 0, 201]",201,a,0.2627436925540678,colour,0.06
161,25,1,1,9,25,425,636.3354635179858,637.2965719596832,"[87, 0, 167]",167,l,0.43768402480054647,colour,0.06
161,25,1,1,9,26,426,637.8043787858333,638.6725815852988,"[85, 0, 169]",169,l,0.34480595181230456,colour,0.06
161,25,1,1,9,27,427,639.1794412105228,640.2806341716787,"[75, 0, 179]",179,a,0.5778122612391599,colour,0.06
161,25,1,1,9,28,428,640.789269257104,642.1925728418864,"[82, 0, 172]",172,l,0.879890589392744,colour,0.06
161,25,1,1,9,29,429,642.7112486510887,643.7845801201765,"[99, 0, 155]",155,l,0.5472840342554264,colour,0.06
161,25,1,1,9,30,430,644.2924771371763,645.21655218862,"[56, 0, 198]",198,a,0.41004702530335635,colour,0.06
161,25,1,1,9,31,431,645.7364481343539,646.7046950446093,"[72, 0, 182]",182,a,0.4449855458224192,colour,0.06
161,25,1,1,9,32,432,647.2209731159965,648.1846049324959,"[76, 0, 178]",178,a,0.44030625507002696,colour,0.06
161,25,1,1,9,33,433,648.7057718210854,649.65654100338,"[86, 0, 168]",168,l,0.4273955716053024,colour,0.06
161,25,1,1,9,34,434,650.1653005442931,651.0406217261334,"[83, 0, 171]",171,l,0.35196490038651973,colour,0.06
161,25,1,1,9,35,435,651.5561542460346,652.1526198671781,"[89, 0, 165]",165,l,0.07323143212124705,colour,0.06
161,25,1,1,9,36,436,652.6531968523632,653.5049104786594,"[78, 0, 176]",176,l,0.3285164588596672,colour,0.06
161,25,1,1,9,37,437,654.0125503138988,654.8246406150283,"[63, 0, 191]",191,a,0.2888537490507588,colour,0.06
161,25,1,1,9,38,438,655.3425559065072,656.2245874457294,"[66, 0, 188]",188,a,0.35855592228472233,colour,0.06
161,25,1,1,9,39,439,656.7350042929174,657.6005805297755,"[79, 0, 175]",175,a,0.3422022322774865,colour,0.06
161,25,1,1,9,40,440,658.1101604530704,659.0086374484817,"[69, 0, 185]",185,a,0.37522193253971636,colour,0.06
161,25,1,1,9,41,441,659.5183930273051,660.0886509180418,"[70, 0, 184]",184,a,0.04698392318096012,colour,0.06
161,25,1,1,9,42,442,660.5965869258507,661.3606279488886,"[96, 0, 158]",158,l,0.24088993563782424,colour,0.06
161,25,1,1,9,43,443,661.877906390524,662.6886367395637,"[62, 0, 192]",192,a,0.2876729971030727,colour,0.06
161,25,1,1,9,44,444,663.2060868982808,663.8085811284254,"[64, 0, 190]",190,a,0.07901900704018772,colour,0.06
161,25,1,1,9,45,445,664.3155852953205,666.3287165329093,"[52, 0, 202]",202,a,1.4897950422600843,colour,0.06
161,25,1,1,9,46,446,666.8470756894094,667.6246169842198,"[97, 0, 157]",157,l,0.254467795137316,colour,0.06
161,25,1,1,9,47,447,668.1440544925863,669.904671413824,"[50, 0, 204]",204,a,1.2410281758056954,colour,0.06
161,25,1,1,9,48,448,670.4217190613854,671.2726292407606,"[51, 0, 203]",203,a,0.3275818610563874,colour,0.06
161,25,1,1,9,49,449,671.7831961434567,672.520704512659,"[68, 0, 186]",186,a,0.214313170989044,colour,0.06
161,25,1,1,9,50,450,673.0332036265172,673.8246165903984,"[55, 0, 199]",199,a,0.2680952793452889,colour,0.06
161,25,1,1,10,1,451,678.4703378415434,679.2486514694174,"[79, 0, 175]",175,l,0.26349397021112964,colour,0.06
161,25,1,1,10,2,452,679.7587788394303,680.5206379526062,"[97, 0, 157]",157,l,0.2385398533078842,colour,0.06
161,25,1,1,10,3,453,681.0401278425707,681.8165840901784,"[57, 0, 197]",197,a,0.2531310800113715,colour,0.06
161,25,1,1,10,4,454,682.3371121595846,683.1046458138153,"[94, 0, 160]",160,l,0.24411868961760774,colour,0.06
161,25,1,1,10,5,455,683.618503698206,684.2326313675148,"[88, 0, 166]",166,l,0.09076548012671992,colour,0.06
161,25,1,1,10,6,456,684.7458149866434,685.5766500200843,"[52, 0, 202]",202,a,0.307437791954726,colour,0.06
161,25,1,1,10,7,457,686.0897300575743,686.8406591415405,"[46, 0, 208]",208,a,0.22763818106614053,colour,0.06
161,25,1,1,10,8,458,687.3554803745938,688.104649358429,"[83, 0, 171]",171,l,0.22585760086076334,colour,0.06
161,25,1,1,10,9,459,688.6211527100531,689.38464589254,"[77, 0, 177]",177,l,0.24035154737066478,colour,0.06
161,25,1,1,10,10,460,689.9025477932882,691.0806192055461,"[86, 0, 168]",168,l,0.6547281277598813,colour,0.06
161,25,1,1,10,11,461,691.59015659336,692.4326561798225,"[89, 0, 165]",165,l,0.3190956495818682,colour,0.06
161,25,1,1,10,12,462,692.9496522335103,694.8406063661096,"[93, 0, 161]",161,l,1.3676399927353486,colour,0.06
161,25,1,1,10,13,463,695.3561132859904,696.192623254261,"[70, 0, 184]",184,a,0.3132013422437012,colour,0.06
161,25,1,1,10,14,464,696.6912952037528,697.6646684205625,"[82, 0, 172]",172,l,0.4503186218207702,colour,0.06
161,25,1,1,10,15,465,698.1757863145904,699.0086571408319,"[95, 0, 159]",159,l,0.30955392942996696,colour,0.06
161,25,1,1,10,16,466,699.5196765732253,700.3766740447027,"[72, 0, 182]",182,a,0.33373413782101125,colour,0.06
161,25,1,1,10,17,467,700.8948161918088,701.8966700274614,"[53, 0, 201]",201,a,0.4785704158130102,colour,0.06
161,25,1,1,10,18,468,702.4104743487551,703.2406607169542,"[80, 0, 174]",174,l,0.30677967437077314,colour,0.06
161,25,1,1,10,19,469,703.754393358191,704.6166884594713,"[54, 0, 200]",200,a,0.3389919891487807,colour,0.06
161,25,1,1,10,20,470,705.129463265941,705.9526809133822,"[78, 0, 176]",176,l,0.29924617771757767,colour,0.06
161,25,1,1,10,21,471,706.4741589407204,707.3046414814889,"[87, 0, 167]",167,l,0.30721566249849275,colour,0.06
161,25,1,1,10,22,472,707.8199050042313,708.7526431041188,"[66, 0, 188]",188,a,0.40951415087329224,colour,0.06
161,25,1,1,10,23,473,709.2731376966112,710.1926224665949,"[98, 0, 156]",156,l,0.3962797255953774,colour,0.06
161,25,1,1,10,24,474,710.7106669397326,711.6406638676999,"[85, 0, 169]",169,l,0.4066465542418882,colour,0.06
161,25,1,1,10,25,475,712.1483793214429,713.0807334210258,"[65, 0, 189]",189,a,0.4090604396769777,colour,0.06
161,25,1,1,10,26,476,713.601597047702,714.5607480721083,"[81, 0, 173]",173,l,0.4356970689841546,colour,0.06
161,25,1,1,10,27,477,715.0780745630036,716.144610210089,"[55, 0, 199]",199,a,0.543333753477782,colour,0.06
161,25,1,1,10,28,478,716.6562617661548,717.7126247508568,"[64, 0, 190]",190,a,0.5332914543105289,colour,0.06
161,25,1,1,10,29,479,718.2199873181526,720.3366623868351,"[76, 0, 178]",178,l,1.5935121658840217,colour,0.06
161,25,1,1,10,30,480,720.8452553307288,721.89663970127,"[90, 0, 164]",164,l,0.5287523728911765,colour,0.06
161,25,1,1,10,31,481,722.4078682662221,723.3607000228367,"[61, 0, 193]",193,a,0.4295191921410151,colour,0.06
161,25,1,1,10,32,482,723.8767555709346,724.8647582175909,"[71, 0, 183]",183,a,0.4646991406334564,colour,0.06
161,25,1,1,10,33,483,725.3768394602812,726.2726497207768,"[62, 0, 192]",192,a,0.3725091175874695,colour,0.06
161,25,1,1,10,34,484,726.7854733641725,727.7447878348758,"[75, 0, 179]",179,a,0.4337821871158667,colour,0.06
161,25,1,1,10,35,485,728.2566973604262,729.1446889793733,"[99, 0, 155]",155,l,0.3646506975055672,colour,0.06
161,25,1,1,10,36,486,729.6631024867529,731.3206174725783,"[91, 0, 163]",163,l,1.1342851291410625,colour,0.06
161,25,1,1,10,37,487,731.8351724653621,732.7046529030195,"[56, 0, 198]",198,a,0.34335699037183076,colour,0.06
161,25,1,1,10,38,488,733.2130843697814,733.9926512173843,"[51, 0, 203]",203,a,0.2563165108440444,colour,0.06
161,25,1,1,10,39,489,734.512012713356,735.760700416693,"[67, 0, 187]",187,a,0.7233393460628577,colour,0.06
161,25,1,1,10,40,490,736.2800024418393,737.2566709727398,"[60, 0, 194]",194,a,0.45345797267509624,colour,0.06
161,25,1,1,10,41,491,737.7522740699351,738.6006845053053,"[59, 0, 195]",195,a,0.32516403711633757,colour,0.06
161,25,1,1,10,42,492,739.1117362331133,740.0086874670233,"[84, 0, 170]",170,l,0.3735232723993249,colour,0.06
161,25,1,1,10,43,493,740.5189660740434,741.5046942569315,"[69, 0, 185]",185,a,0.462359692202881,colour,0.06
161,25,1,1,10,44,494,742.0191464557429,743.0087110978202,"[63, 0, 191]",191,a,0.4662784652900882,colour,0.06
161,25,1,1,10,45,495,743.519218529691,744.4646652698284,"[17, 0, 237]",237,a,0.42197742470307276,colour,0.06
161,25,1,1,10,46,496,744.9724405882298,745.7927043866366,"[26, 0, 228]",228,a,0.2969220892409794,colour,0.06
161,25,1,1,10,47,497,746.3026616149,747.2326983214007,"[74, 0, 180]",180,l,0.40673044353025034,colour,0.06
161,25,1,1,10,48,498,747.7360479862546,748.9366946822847,"[96, 0, 158]",158,l,0.6772431529825553,colour,0.06
161,25,1,1,10,49,499,749.4550884973141,750.384708514146,"[92, 0, 162]",162,l,0.4189125109114684,colour,0.06
161,25,1,1,10,50,500,750.895870125154,751.8566729419399,"[73, 0, 181]",181,a,0.4382361976313405,colour,0.06
161,25,1,1,11,1,501,756.5549829464289,757.4327577922377,"[91, 0, 163]",163,l,0.35364544356707484,colour,0.06
161,25,1,1,11,2,502,757.9465325750643,758.7766732570017,"[93, 0, 161]",161,l,0.3069293360458687,colour,0.06
161,25,1,1,11,3,503,759.2903799043852,760.4968098429963,"[65, 0, 189]",189,a,0.6832512819673866,colour,0.06
161,25,1,1,11,4,504,761.0093034430174,761.9207328696502,"[99, 0, 155]",155,l,0.38809795753331855,colour,0.06
161,25,1,1,11,5,505,762.4312631445937,763.2327231337549,"[63, 0, 191]",191,a,0.27835773868719116,colour,0.06
161,25,1,1,11,6,506,763.7438268492697,764.5207064819406,"[83, 0, 171]",171,l,0.2535292588872835,colour,0.06
161,25,1,1,11,7,507,765.0422171984683,765.8887544996687,"[85, 0, 169]",169,l,0.3231128843035549,colour,0.06
161,25,1,1,11,8,508,766.4017541924841,767.4887288996833,"[80, 0, 174]",174,l,0.563984309148509,colour,0.06
161,25,1,1,11,9,509,767.9955948264105,768.7608087245026,"[58, 0, 196]",196,a,0.24180956732016057,colour,0.06
161,25,1,1,11,10,510,769.2645620820113,770.1927256543422,"[70, 0, 184]",184,a,0.4050719557562843,colour,0.06
161,25,1,1,11,11,511,770.702116925153,771.6167010625941,"[86, 0, 168]",168,l,0.3911644467152655,colour,0.06
161,25,1,1,11,12,512,772.1180334454402,772.7767362724408,"[88, 0, 166]",166,l,0.13538238557521254,colour,0.06
161,25,1,1,11,13,513,773.2898966546636,774.1207084511407,"[59, 0, 195]",195,a,0.3074850534903817,colour,0.06
161,25,1,1,11,14,514,774.6338329932769,775.768708892283,"[54, 0, 200]",200,a,0.611606263788417,colour,0.06
161,25,1,1,11,15,515,776.2901652579894,777.1846888218424,"[98, 0, 156]",156,l,0.37110544845927507,colour,0.06
161,25,1,1,11,16,516,777.6965593565837,778.6007447637967,"[53, 0, 201]",201,a,0.3809551566373557,colour,0.06
161,25,1,1,11,17,517,779.1185722274822,779.9368136239354,"[67, 0, 187]",187,a,0.29487684421474114,colour,0.06
161,25,1,1,11,18,518,780.4468090552837,781.4727359731332,"[4, 0, 250]",250,l,0.5027415657532401,colour,0.06
161,25,1,1,11,19,519,781.994318763609,782.8087091285852,"[55, 0, 199]",199,l,0.29093444033060223,colour,0.06
161,25,1,1,11,20,520,783.3225378683419,784.2487046387396,"[95, 0, 159]",159,l,0.4027738611912355,colour,0.06
161,25,1,1,11,21,521,784.7601289453451,785.5447720810189,"[62, 0, 192]",192,a,0.26129906345158815,colour,0.06
161,25,1,1,11,22,522,786.0570856931154,786.9127484186902,"[97, 0, 157]",157,l,0.33228163176681846,colour,0.06
161,25,1,1,11,23,523,787.4323147148825,788.2647015036782,"[90, 0, 164]",164,l,0.30910336895613,colour,0.06
161,25,1,1,11,24,524,788.776131324179,789.3927634636057,"[73, 0, 181]",181,a,0.09328137181000784,colour,0.06
161,25,1,1,11,25,525,789.901123644202,791.7688053846359,"[74, 0, 180]",180,a,1.3442214835085906,colour,0.06
161,25,1,1,11,26,526,792.2764562475495,793.1367297346005,"[52, 0, 202]",202,a,0.33693650405621156,colour,0.06
161,25,1,1,11,27,527,793.6514863768243,794.4887481981423,"[71, 0, 183]",183,a,0.31395831529516727,colour,0.06
161,25,1,1,11,28,528,794.9953380384832,795.816726662626,"[50, 0, 204]",204,a,0.29799374571302906,colour,0.06
161,25,1,1,11,29,529,796.3235807739547,796.8967228028923,"[66, 0, 188]",188,a,0.04978614131687209,colour,0.06
161,25,1,1,11,30,530,797.4174166817684,798.2406886800309,"[75, 0, 179]",179,a,0.2999397414387204,colour,0.06
161,25,1,1,11,31,531,798.7612470756867,799.7847282065195,"[94, 0, 160]",160,l,0.5000807385658845,colour,0.06
161,25,1,1,11,32,532,800.2926027742215,801.768761667714,"[42, 0, 212]",212,a,0.9528262427775189,colour,0.06
161,25,1,1,11,33,533,802.2772053437075,802.9367663623416,"[56, 0, 198]",198,a,0.13661512528778985,colour,0.06
161,25,1,1,11,34,534,803.4492363315658,804.0647483714274,"[96, 0, 158]",158,l,0.09223886003019288,colour,0.06
161,25,1,1,11,35,535,804.5742302269209,805.6328089922899,"[81, 0, 173]",173,l,0.5355131426476873,colour,0.06
161,25,1,1,11,36,536,806.1525332209421,806.6887371704215,"[60, 0, 194]",194,a,0.012820886448025703,colour,0.06
161,25,1,1,11,37,537,807.1994738210342,807.9847207234125,"[64, 0, 190]",190,a,0.26188510708743706,colour,0.06
161,25,1,1,11,38,538,808.4963907902711,809.3367738454253,"[72, 0, 182]",182,a,0.3294534197775647,colour,0.06
161,25,1,1,11,39,539,809.8434786889702,810.6567588004982,"[89, 0, 165]",165,l,0.2898998054442927,colour,0.06
161,25,1,1,11,40,540,811.1717446614057,812.0647692452767,"[51, 0, 203]",203,a,0.3698439580039121,colour,0.06
161,25,1,1,11,41,541,812.5806026639766,813.408752451709,"[37, 0, 217]",217,a,0.30504438653588295,colour,0.06
161,25,1,1,11,42,542,813.9180558946682,814.7367387930863,"[68, 0, 186]",186,a,0.2953707277774811,colour,0.06
161,25,1,1,11,43,543,815.2462344332016,816.1927264420665,"[77, 0, 177]",177,l,0.4232089828583412,colour,0.06
161,25,1,1,11,44,544,816.699478547147,817.5447362409905,"[76, 0, 178]",178,l,0.3219569447101094,colour,0.06
161,25,1,1,11,45,545,818.0589647349552,818.8810807936825,"[61, 0, 193]",193,a,0.2988145219278522,colour,0.06
161,25,1,1,11,46,546,819.4028171842801,820.0007431884296,"[84, 0, 170]",170,l,0.07448622718220577,colour,0.06
161,25,1,1,11,47,547,820.5122537474381,821.2407516955282,"[57, 0, 197]",197,a,0.2050849527004175,colour,0.06
161,25,1,1,11,48,548,821.7623904122156,822.3447535702144,"[92, 0, 162]",162,l,0.05903050734195858,colour,0.06
161,25,1,1,11,49,549,822.8562582215527,823.6167625026428,"[82, 0, 172]",172,l,0.2371109780506231,colour,0.06
161,25,1,1,11,50,550,824.1374524430139,824.7207824942889,"[78, 0, 176]",176,l,0.05980874813394621,colour,0.06
161,25,1,1,12,1,551,830.6373047505622,831.3207817065995,"[97, 0, 157]",157,l,0.15938733232906088,colour,0.06
161,25,1,1,12,2,552,831.8413720037788,833.09676139988,"[96, 0, 158]",158,l,0.7321437855134718,colour,0.06
161,25,1,1,12,3,553,833.607048671518,834.1767945617321,"[84, 0, 170]",170,l,0.04639315337408334,colour,0.06
161,25,1,1,12,4,554,834.6868671870325,835.6487889218843,"[68, 0, 186]",186,a,0.4386272872798145,colour,0.06
161,25,1,1,12,5,555,836.1557572487509,837.504759635427,"[64, 0, 190]",190,a,0.8256138098076917,colour,0.06
161,25,1,1,12,6,556,838.0153332335758,838.7127543264069,"[67, 0, 187]",187,a,0.17406559910159558,colour,0.06
161,25,1,1,12,7,557,839.23416067363,839.9208053373732,"[50, 0, 204]",204,a,0.16200404870323837,colour,0.06
161,25,1,1,12,8,558,840.4391633123741,843.0168566319626,"[54, 0, 200]",200,a,2.054293321154546,colour,0.06
161,25,1,1,12,9,559,843.5331311587943,844.1047549092909,"[82, 0, 172]",172,l,0.04826549981953576,colour,0.06
161,25,1,1,12,10,560,844.6113510511932,845.1448039825773,"[85, 0, 169]",169,l,0.010477499570697546,colour,0.06
161,25,1,1,12,11,561,845.6610544847208,846.224791852117,"[83, 0, 171]",171,l,0.04888659587595612,colour,0.06
161,25,1,1,12,12,562,846.7464585318812,849.2167963734246,"[87, 0, 167]",167,l,1.9470508770900778,colour,0.06
161,25,1,1,12,13,563,849.7310563751962,850.5368762455182,"[73, 0, 181]",181,a,0.2826794167631306,colour,0.06
161,25,1,1,12,14,564,851.0436547383433,851.6807558703003,"[81, 0, 173]",173,l,0.11370585969416425,colour,0.06
161,25,1,1,12,15,565,852.2000153600238,852.7687951446278,"[70, 0, 184]",184,a,0.04564208799274638,colour,0.06
161,25,1,1,12,16,566,853.2782285570283,854.2168203981128,"[56, 0, 198]",198,a,0.41519420576514676,colour,0.06
161,25,1,1,12,17,567,854.7317310342914,855.8007613053778,"[66, 0, 188]",188,a,0.5457346419570968,colour,0.06
161,25,1,1,12,18,568,856.3099840098293,856.8488326388178,"[94, 0, 160]",160,l,0.01557269220938906,colour,0.06
161,25,1,1,12,19,569,857.3568856190541,858.0407958063297,"[63, 0, 191]",191,a,0.1605184596264735,colour,0.06
161,25,1,1,12,20,570,858.560093499138,859.552839633543,"[61, 0, 193]",193,a,0.4692748497473076,colour,0.06
161,25,1,1,12,21,571,860.0602474931511,860.9768138602376,"[74, 0, 180]",180,a,0.3931592794251628,colour,0.06
161,25,1,1,12,22,572,861.4978255732567,862.2409182926058,"[79, 0, 175]",175,l,0.21992784732719883,colour,0.06
161,25,1,1,12,23,573,862.7540243239491,863.6648452577065,"[91, 0, 163]",163,l,0.3875351508031599,colour,0.06
161,25,1,1,12,24,574,864.1760848502745,864.7367880239035,"[88, 0, 166]",166,l,0.03745559381786734,colour,0.06
161,25,1,1,12,25,575,865.2542039179825,866.0727765393676,"[0, 0, 254]",254,a,0.29510842595482245,colour,0.06
161,25,1,1,12,26,576,866.5824639827479,867.2488184603862,"[89, 0, 165]",165,l,0.1433046088204719,colour,0.06
161,25,1,1,12,27,577,867.7700251273927,868.7048218632117,"[45, 0, 209]",209,a,0.4114290327997878,colour,0.06
161,25,1,1,12,28,578,869.2233365891152,870.2969378431444,"[72, 0, 182]",182,a,0.5503910896368325,colour,0.06
161,25,1,1,12,29,579,870.8173162508756,871.7687979015755,"[98, 0, 156]",156,l,0.42831796017708257,colour,0.06
161,25,1,1,12,30,580,872.2861834694631,873.272809228627,"[77, 0, 177]",177,a,0.4633947209222242,colour,0.06
161,25,1,1,12,31,581,873.7862626326387,874.7688983324333,"[62, 0, 192]",192,a,0.4593566122930497,colour,0.06
161,25,1,1,12,32,582,875.2879983143066,876.2489472482121,"[90, 0, 164]",164,l,0.4376666955649853,colour,0.06
161,25,1,1,12,33,583,876.7568210282479,877.9049608910573,"[75, 0, 179]",179,a,0.6247965783113614,colour,0.06
161,25,1,1,12,34,584,878.401605318475,879.3048096539569,"[58, 0, 196]",196,a,0.37976652779616416,colour,0.06
161,25,1,1,12,35,585,879.8235760478419,880.7528758674162,"[99, 0, 155]",155,l,0.40441895817639306,colour,0.06
161,25,1,1,12,36,586,881.2627251817612,882.4488109772792,"[86, 0, 168]",168,l,0.6628854773007333,colour,0.06
161,25,1,1,12,37,587,882.9661177758826,884.1768536387244,"[92, 0, 162]",162,l,0.6875213661696762,colour,0.06
161,25,1,1,12,38,588,884.6849058312946,885.6648208391853,"[1, 0, 253]",253,a,0.45654966798610985,colour,0.06
161,25,1,1,12,39,589,886.1850117759896,887.456861594459,"[51, 0, 203]",203,a,0.7484986570198089,colour,0.06
161,25,1,1,12,40,590,887.966437579249,888.856798185152,"[76, 0, 178]",178,l,0.3670385890873149,colour,0.06
161,25,1,1,12,41,591,889.3727789024124,890.2168200042215,"[71, 0, 183]",183,a,0.3206552818301134,colour,0.06
161,25,1,1,12,42,592,890.7321800193749,891.5529010735918,"[69, 0, 185]",185,a,0.29731357272248715,colour,0.06
161,25,1,1,12,43,593,892.0604542625952,893.0168944412144,"[60, 0, 194]",194,a,0.43315163877559826,colour,0.06
161,25,1,1,12,44,594,893.5300307988073,894.4808582703699,"[52, 0, 202]",202,a,0.42755626095458865,colour,0.06
161,25,1,1,12,45,595,894.9988889588858,895.7289516592864,"[80, 0, 174]",174,l,0.20725701638730243,colour,0.06
161,25,1,1,12,46,596,896.2490338944481,897.2088461871608,"[55, 0, 199]",199,a,0.4365024851867929,colour,0.06
161,25,1,1,12,47,597,897.717936953064,898.46486101154,"[65, 0, 189]",189,a,0.22364457714138553,colour,0.06
161,25,1,1,12,48,598,898.9855005395366,899.8171441399609,"[93, 0, 161]",161,l,0.3083731774822809,colour,0.06
161,25,1,1,12,49,599,900.3205111340503,901.240847400215,"[78, 0, 176]",176,a,0.39715170179260895,colour,0.06
161,25,1,1,12,50,600,901.7585874299984,902.6408403109526,"[53, 0, 201]",201,a,0.35887808870757,colour,0.06
161,25,1,1,13,1,601,907.7090663473937,908.3048836971284,"[88, 0, 166]",166,l,0.07166037824936211,colour,0.06
161,25,1,1,13,2,602,908.8193169913138,909.5208360574325,"[86, 0, 168]",168,l,0.17808362148934975,colour,0.06
161,25,1,1,13,3,603,910.0381227698526,910.5848920466378,"[81, 0, 173]",173,l,0.02408844215096906,colour,0.06
161,25,1,1,13,4,604,911.1007620930322,912.0008192008245,"[65, 0, 189]",189,a,0.37667207553749904,colour,0.06
161,25,1,1,13,5,605,912.5071593424072,913.0729458933347,"[75, 0, 179]",179,a,0.04279694060096517,colour,0.06
161,25,1,1,13,6,606,913.5853910502046,914.5608685891493,"[98, 0, 156]",156,l,0.45246823626803234,colour,0.06
161,25,1,1,13,7,607,915.0698620749172,917.760868982994,"[95, 0, 159]",159,l,2.167674651253037,colour,0.06
161,25,1,1,13,8,608,918.2734074814944,919.2888718659524,"[82, 0, 172]",172,l,0.4922270446550101,colour,0.06
161,25,1,1,13,9,609,919.8045075736591,920.6008400746505,"[83, 0, 171]",171,l,0.27288130251690745,colour,0.06
161,25,1,1,13,10,610,921.1171114507015,921.9689357478637,"[62, 0, 192]",192,a,0.32846840954152867,colour,0.06
161,25,1,1,13,11,611,922.4766618354479,923.4649129993049,"[64, 0, 190]",190,a,0.4648409254150465,colour,0.06
161,25,1,1,13,12,612,923.9767606909736,924.888865958259,"[94, 0, 160]",160,l,0.38911920157261193,colour,0.06
161,25,1,1,13,13,613,925.3987046387047,926.4408225878724,"[57, 0, 197]",197,a,0.5187025907216594,colour,0.06
161,25,1,1,13,14,614,926.9614455743576,927.9131399021717,"[89, 0, 165]",165,l,0.428472348023206,colour,0.06
161,25,1,1,13,15,615,928.4302769528585,929.4088658794644,"[84, 0, 170]",170,l,0.4554681653389707,colour,0.06
161,25,1,1,13,16,616,929.9147298606695,930.7849310374586,"[80, 0, 174]",174,l,0.3470559971174225,colour,0.06
161,25,1,1,13,17,617,931.3055784424068,932.152864052041,"[61, 0, 193]",193,a,0.3240238513681106,colour,0.06
161,25,1,1,13,18,618,932.6650012209429,933.5208797744126,"[74, 0, 180]",180,l,0.3306853717658669,colour,0.06
161,25,1,1,13,19,619,934.0419505643658,934.9928489283193,"[78, 0, 176]",176,l,0.4276019471581094,colour,0.06
161,25,1,1,13,20,620,935.5108662260463,936.3048986632493,"[96, 0, 158]",158,l,0.2707403526874259,colour,0.06
161,25,1,1,13,21,621,936.8235039738938,937.6968523784308,"[71, 0, 183]",183,a,0.35000787692843005,colour,0.06
161,25,1,1,13,22,622,938.2141560262535,939.1209518483374,"[49, 0, 205]",205,a,0.3835951100336388,colour,0.06
161,25,1,1,13,23,623,939.6361519617494,940.520911282103,"[58, 0, 196]",196,a,0.36436437105294317,colour,0.06
161,25,1,1,13,24,624,941.0395981189795,941.9208482666872,"[63, 0, 191]",191,a,0.3578706292901188,colour,0.06
161,25,1,1,13,25,625,942.4204981370713,943.4808606334263,"[52, 0, 202]",202,a,0.5370404795394279,colour,0.06
161,25,1,1,13,26,626,943.9987511126092,944.9129142281017,"[55, 0, 199]",199,a,0.39081156020984054,colour,0.06
161,25,1,1,13,27,627,945.420654494199,946.3531361999922,"[24, 0, 230]",230,a,0.40915890131145716,colour,0.06
161,25,1,1,13,28,628,946.8739458697382,947.8728694870952,"[48, 0, 206]",206,a,0.4755925420904532,colour,0.06
161,25,1,1,13,29,629,948.3896753129084,949.2968791599851,"[67, 0, 187]",187,a,0.3838192086550407,colour,0.06
161,25,1,1,13,30,630,949.8117736484855,950.7049305648543,"[91, 0, 163]",163,l,0.3698841303703375,colour,0.06
161,25,1,1,13,31,631,951.2180460485397,952.264935842366,"[50, 0, 204]",204,a,0.5235669893445447,colour,0.06
161,25,1,1,13,32,632,952.7806554394192,953.8328846108052,"[51, 0, 203]",203,a,0.5290249147219583,colour,0.06
161,25,1,1,13,33,633,954.3433089411119,955.257220782456,"[70, 0, 184]",184,l,0.39060321531724185,colour,0.06
161,25,1,1,13,34,634,955.7526293194969,956.680894504243,"[92, 0, 162]",162,l,0.4046387245762162,colour,0.06
161,25,1,1,13,35,635,957.1904220459401,958.3208833190147,"[54, 0, 200]",200,a,0.6070392192341387,colour,0.06
161,25,1,1,13,36,636,958.8311906768358,959.7128878403455,"[85, 0, 169]",169,l,0.3585929438122548,colour,0.06
161,25,1,1,13,37,637,960.2219498554477,961.5048758201883,"[66, 0, 188]",188,a,0.7596299417782575,colour,0.06
161,25,1,1,13,38,638,962.0189570155926,962.9608666199492,"[60, 0, 194]",194,a,0.41856868291506544,colour,0.06
161,25,1,1,13,39,639,963.4721924649202,964.4009141178103,"[99, 0, 155]",155,l,0.40544689766829833,colour,0.06
161,25,1,1,13,40,640,964.9097910250421,965.8808933226974,"[97, 0, 157]",157,l,0.4476948161609471,colour,0.06
161,25,1,1,13,41,641,966.3963155655656,967.3368703378364,"[76, 0, 178]",178,l,0.4172693831496872,colour,0.06
161,25,1,1,13,42,642,967.8495041471906,968.6568840437103,"[87, 0, 167]",167,l,0.2839775350294076,colour,0.06
161,25,1,1,13,43,643,969.1776885933941,970.0970638740109,"[53, 0, 201]",201,a,0.3964073318638839,colour,0.06
161,25,1,1,13,44,644,970.615441147529,971.2648850361584,"[79, 0, 175]",175,l,0.12632824742468074,colour,0.06
161,25,1,1,13,45,645,971.7745996550075,972.392908793001,"[93, 0, 161]",161,l,0.09495325043099001,colour,0.06
161,25,1,1,13,46,646,972.8893937126268,973.865229258081,"[72, 0, 182]",182,a,0.45295069832354784,colour,0.06
161,25,1,1,13,47,647,974.3739375989535,975.0169909336255,"[90, 0, 164]",164,l,0.11973683175165206,colour,0.06
161,25,1,1,13,48,648,975.530294282129,976.8409454679932,"[77, 0, 177]",177,a,0.7874386584153399,colour,0.06
161,25,1,1,13,49,649,977.346035540686,978.2568950714194,"[73, 0, 181]",181,a,0.3875036431127228,colour,0.06
161,25,1,1,13,50,650,978.7681661717361,979.5529325813404,"[59, 0, 195]",195,a,0.26157948217587546,colour,0.06
161,25,1,1,14,1,651,984.1178837837651,984.9608804045711,"[89, 0, 165]",165,l,0.3193760683061555,colour,0.06
161,25,1,1,14,2,652,985.4799295802368,986.2889073121478,"[96, 0, 158]",158,l,0.2857707182993181,colour,0.06
161,25,1,1,14,3,653,986.8081337187905,987.7928816176136,"[86, 0, 168]",168,l,0.46142627589870244,colour,0.06
161,25,1,1,14,4,654,988.3101439115126,989.184937338985,"[82, 0, 172]",172,l,0.3518329617800191,colour,0.06
161,25,1,1,14,5,655,989.7008613423677,990.5529392767348,"[76, 0, 178]",178,l,0.328803179145325,colour,0.06
161,25,1,1,14,6,656,991.0603435917292,991.9529392767581,"[61, 0, 193]",193,a,0.3692204989492893,colour,0.06
161,25,1,1,14,7,657,992.4666805825545,993.5769213803578,"[53, 0, 201]",201,a,0.5868593101622537,colour,0.06
161,25,1,1,14,8,658,994.0830689310096,995.216951548995,"[67, 0, 187]",187,a,0.6105499673285522,colour,0.06
161,25,1,1,14,9,659,995.7247548305313,996.6969362677191,"[74, 0, 180]",180,l,0.44879482954274863,colour,0.06
161,25,1,1,14,10,660,997.2092963537434,997.9930950824055,"[65, 0, 189]",189,a,0.2605578442453407,colour,0.06
161,25,1,1,14,11,661,998.5062755508116,999.4169385520509,"[69, 0, 185]",185,a,0.3872594582499005,colour,0.06
161,25,1,1,14,12,662,999.9282636093558,1000.7289189699804,"[87, 0, 167]",167,l,0.27738927002064884,colour,0.06
161,25,1,1,14,13,663,1001.2408647294505,1002.0972501634387,"[90, 0, 164]",164,l,0.33302678941981867,colour,0.06
161,25,1,1,14,14,664,1002.6159641757258,1003.4729978811229,"[93, 0, 161]",161,l,0.3336939655127935,colour,0.06
161,25,1,1,14,15,665,1003.9919615920517,1004.6089604026638,"[84, 0, 170]",170,l,0.09364804299548268,colour,0.06
161,25,1,1,14,16,666,1005.1170236229082,1005.880948461243,"[57, 0, 197]",197,a,0.24055989226326346,colour,0.06
161,25,1,1,14,17,667,1006.3983903491753,1007.1289618992596,"[51, 0, 203]",203,a,0.20743976114317775,colour,0.06
161,25,1,1,14,18,668,1007.6484324907651,1008.360928059963,"[34, 0, 220]",220,a,0.18928461713949218,colour,0.06
161,25,1,1,14,19,669,1008.8673241278157,1009.6249505722662,"[63, 0, 191]",191,a,0.23433751077391207,colour,0.06
161,25,1,1,14,20,670,1010.1340468519484,1010.977228974516,"[92, 0, 162]",162,l,0.3199250904144719,colour,0.06
161,25,1,1,14,21,671,1011.4952639953117,1012.3289540223195,"[85, 0, 169]",169,l,0.3102939670206979,colour,0.06
161,25,1,1,14,22,672,1012.8299039801932,1013.720975085278,"[55, 0, 199]",199,a,0.36785306374076754,colour,0.06
161,25,1,1,14,23,673,1014.2361799248611,1015.1209731160197,"[70, 0, 184]",184,a,0.3613415988511406,colour,0.06
161,25,1,1,14,24,674,1015.6426067127031,1016.4569494221942,"[62, 0, 192]",192,a,0.29101202805759385,colour,0.06
161,25,1,1,14,25,675,1016.9707761927275,1017.6969669878017,"[83, 0, 171]",171,l,0.20287192898103967,colour,0.06
161,25,1,1,14,26,676,1018.205227131315,1019.1289843485574,"[72, 0, 182]",182,a,0.40039187733782455,colour,0.06
161,25,1,1,14,27,677,1019.6429367561359,1020.5769253188046,"[78, 0, 176]",176,a,0.4107161705614999,colour,0.06
161,25,1,1,14,28,678,1021.096146211552,1021.9529766921769,"[71, 0, 183]",183,a,0.3334336329717189,colour,0.06
161,25,1,1,14,29,679,1022.4712141501368,1023.2809618519968,"[91, 0, 163]",163,l,0.28635361115448177,colour,0.06
161,25,1,1,14,30,680,1023.799565193418,1024.616916890489,"[95, 0, 159]",159,l,0.29405646183295175,colour,0.06
161,25,1,1,14,31,681,1025.1277208888205,1025.9849944467423,"[88, 0, 166]",166,l,0.3339038856793195,colour,0.06
161,25,1,1,14,32,682,1026.5028443597257,1027.3049565587426,"[50, 0, 204]",204,a,0.2786869944538921,colour,0.06
161,25,1,1,14,33,683,1027.8041050625034,1028.593280584144,"[52, 0, 202]",202,a,0.2659492095699534,colour,0.06
161,25,1,1,14,34,684,1029.102751018072,1029.888967176841,"[68, 0, 186]",186,a,0.2628074957174249,colour,0.06
161,25,1,1,14,35,685,1030.3997077658423,1031.2969618677744,"[77, 0, 177]",177,a,0.37384189426666126,colour,0.06
161,25,1,1,14,36,686,1031.806188904564,1032.888976629125,"[79, 0, 175]",175,l,0.559501547832042,colour,0.06
161,25,1,1,14,37,687,1033.4000133907539,1034.064967350103,"[64, 0, 190]",190,a,0.14170756103703752,colour,0.06
161,25,1,1,14,38,688,1034.5719341015792,1035.3769257126842,"[59, 0, 195]",195,a,0.28187675756635144,colour,0.06
161,25,1,1,14,39,689,1035.884511197044,1036.6649980701623,"[97, 0, 157]",157,l,0.2571128685376607,colour,0.06
161,25,1,1,14,40,690,1037.181495120225,1038.07297543186,"[98, 0, 156]",156,a,0.36854583979584277,colour,0.06
161,25,1,1,14,41,691,1038.587810843368,1039.2009613793925,"[99, 0, 155]",155,l,0.08971469756215811,colour,0.06
161,25,1,1,14,42,692,1039.7129681850784,1040.4332599465852,"[60, 0, 194]",194,a,0.19702842785045505,colour,0.06
161,25,1,1,14,43,693,1040.947473868262,1041.7369624979328,"[58, 0, 196]",196,a,0.26626192370895296,colour,0.06
161,25,1,1,14,44,694,1042.2444424314308,1043.0569565114565,"[54, 0, 200]",200,a,0.28919403243344277,colour,0.06
161,25,1,1,14,45,695,1043.5726741392282,1044.3050684111076,"[56, 0, 198]",198,a,0.20924397214548662,colour,0.06
161,25,1,1,14,46,696,1044.8104605641565,1045.5449823950767,"[81, 0, 173]",173,l,0.2113352973246947,colour,0.06
161,25,1,1,14,47,697,1046.062314399809,1046.753287830914,"[66, 0, 188]",188,a,0.16793774074176326,colour,0.06
161,25,1,1,14,48,698,1047.2679369530524,1048.080975242774,"[28, 0, 226]",226,a,0.28965798363788053,colour,0.06
161,25,1,1,14,49,699,1048.5963265933096,1049.3529975659912,"[37, 0, 217]",217,a,0.2334647467941977,colour,0.06
161,25,1,1,14,50,700,1049.8619047994143,1050.5209514544695,"[80, 0, 174]",174,l,0.13565532123902813,colour,0.06
161,25,1,1,15,1,701,1055.3772246422013,1058.128972926992,"[53, 0, 201]",201,a,2.230203303624876,colour,0.06
161,25,1,1,15,2,702,1058.641663844115,1059.5770249619964,"[70, 0, 184]",184,l,0.4121462273760699,colour,0.06
161,25,1,1,15,3,703,1060.0948354902794,1061.0729667672422,"[58, 0, 196]",196,a,0.4548108355375007,colour,0.06
161,25,1,1,15,4,704,1061.580286405224,1062.4170756106614,"[85, 0, 169]",169,l,0.31470819911919534,colour,0.06
161,25,1,1,15,5,705,1062.9231857458944,1063.7849696344347,"[2, 0, 252]",252,a,0.33840437012258917,colour,0.06
161,25,1,1,15,6,706,1064.2983371798764,1065.249038620561,"[73, 0, 181]",181,a,0.4275724086910486,colour,0.06
161,25,1,1,15,7,707,1065.7671882507857,1066.6409631911083,"[96, 0, 158]",158,l,0.3504769481951371,colour,0.06
161,25,1,1,15,8,708,1067.1579025308602,1067.9609993462218,"[61, 0, 193]",193,a,0.279705481545534,colour,0.06
161,25,1,1,15,9,709,1068.47119642701,1069.3133128007757,"[87, 0, 167]",167,l,0.31947019760264084,colour,0.06
161,25,1,1,15,10,710,1069.8301564358408,1070.7131430529407,"[82, 0, 172]",172,l,0.35967208340298384,colour,0.06
161,25,1,1,15,11,711,1071.2208758359193,1071.9850511606783,"[72, 0, 182]",182,a,0.24085015716264024,colour,0.06
161,25,1,1,15,12,712,1072.502240986796,1073.241034871142,"[90, 0, 164]",164,l,0.2154529629042372,colour,0.06
161,25,1,1,15,13,713,1073.7524127038778,1074.5449910596944,"[50, 0, 204]",204,a,0.2692331020371057,colour,0.06
161,25,1,1,15,14,714,1075.0650043716887,1075.8890038045356,"[99, 0, 155]",155,l,0.30086882546311244,colour,0.06
161,25,1,1,15,15,715,1076.4088197994279,1077.0009637424955,"[66, 0, 188]",188,a,0.06878254160983488,colour,0.06
161,25,1,1,15,16,716,1077.5182965349522,1078.248971666675,"[74, 0, 180]",180,a,0.2073456318466924,colour,0.06
161,25,1,1,15,17,717,1078.7684895197162,1080.0889671767945,"[95, 0, 159]",159,l,0.7972355911042541,colour,0.06
161,25,1,1,15,18,718,1080.5967172890669,1081.376987940399,"[56, 0, 198]",198,a,0.25698211148846895,colour,0.06
161,25,1,1,15,19,719,1081.8937153907027,1082.7369983379613,"[89, 0, 165]",165,l,0.32004166895058006,colour,0.06
161,25,1,1,15,20,720,1083.2531897631125,1084.065063448681,"[67, 0, 187]",187,a,0.2885875087813474,colour,0.06
161,25,1,1,15,21,721,1084.5814344678656,1085.3690255449037,"[94, 0, 160]",160,l,0.26463533751666546,colour,0.06
161,25,1,1,15,22,722,1085.878776791389,1086.7610273092869,"[65, 0, 189]",189,a,0.35901554115116596,colour,0.06
161,25,1,1,15,23,723,1087.2694753176183,1088.1290245208656,"[71, 0, 183]",183,a,0.336127937072888,colour,0.06
161,25,1,1,15,24,724,1088.644624782377,1089.4890672138426,"[54, 0, 200]",200,a,0.32113459310494363,colour,0.06
161,25,1,1,15,25,725,1090.0040857639979,1090.8330114294076,"[80, 0, 174]",174,l,0.30556741467444226,colour,0.06
161,25,1,1,15,26,726,1091.347905524075,1092.19306554395,"[91, 0, 163]",163,l,0.32200263091363013,colour,0.06
161,25,1,1,15,27,727,1092.7074058903381,1093.4650272147846,"[63, 0, 191]",191,a,0.2342961568501778,colour,0.06
161,25,1,1,15,28,728,1093.9729663733742,1094.9050869219354,"[68, 0, 186]",186,a,0.4086161808227189,colour,0.06
161,25,1,1,15,29,729,1095.4264676691382,1096.2570876623504,"[55, 0, 199]",199,a,0.307385410356801,colour,0.06
161,25,1,1,15,30,730,1096.7577174229664,1097.6410033634165,"[88, 0, 166]",166,l,0.3599528959020972,colour,0.06
161,25,1,1,15,31,731,1098.148489992367,1099.1051180358045,"[59, 0, 195]",195,a,0.4335253991885111,colour,0.06
161,25,1,1,15,32,732,1099.6173560293973,1100.5369920363883,"[86, 0, 168]",168,l,0.3963758241152391,colour,0.06
161,25,1,1,15,33,733,1101.043393224245,1101.8650185501901,"[57, 0, 197]",197,a,0.298317487584427,colour,0.06
161,25,1,1,15,34,734,1102.3715634919936,1103.12113262387,"[81, 0, 173]",173,l,0.22618331195553765,colour,0.06
161,25,1,1,15,35,735,1103.637375642953,1104.6091372397495,"[93, 0, 161]",161,l,0.44851480470970273,colour,0.06
161,25,1,1,15,36,736,1105.1218037384097,1106.0890494907508,"[26, 0, 228]",228,a,0.4438941970583983,colour,0.06
161,25,1,1,15,37,737,1106.60630745237,1107.4970457570744,"[97, 0, 157]",157,l,0.3673694201861508,colour,0.06
161,25,1,1,15,38,738,1108.0126535017043,1108.8650945625268,"[60, 0, 194]",194,a,0.3290461824508384,colour,0.06
161,25,1,1,15,39,739,1109.3722594188293,1110.3370522949263,"[52, 0, 202]",202,l,0.4415870440425351,colour,0.06
161,25,1,1,15,40,740,1110.8567174465861,1111.929067450168,"[75, 0, 179]",179,l,0.549068552965764,colour,0.06
161,25,1,1,15,41,741,1112.4505253912648,1113.3370459933649,"[78, 0, 176]",176,l,0.36314305290579796,colour,0.06
161,25,1,1,15,42,742,1113.856928154477,1114.6810740982764,"[51, 0, 203]",203,a,0.3008806408615783,colour,0.06
161,25,1,1,15,43,743,1115.2007648499566,1116.233022457105,"[76, 0, 178]",178,l,0.5089883657637984,colour,0.06
161,25,1,1,15,44,744,1116.7471410679282,1117.5290572101367,"[98, 0, 156]",156,l,0.25890683953184634,colour,0.06
161,25,1,1,15,45,745,1118.0440793049056,1119.0330996510456,"[64, 0, 190]",190,a,0.4655514245387167,colour,0.06
161,25,1,1,15,46,746,1119.544234480476,1120.4653312643059,"[62, 0, 192]",192,a,0.3977460162132047,colour,0.06
161,25,1,1,15,47,747,1120.9818956621457,1121.8970315785846,"[28, 0, 226]",226,a,0.39197970897657797,colour,0.06
161,25,1,1,15,48,748,1122.4039057761547,1123.3050353280269,"[69, 0, 185]",185,a,0.37777720886515453,colour,0.06
161,25,1,1,15,49,749,1123.8258528746665,1124.7130209605093,"[83, 0, 171]",171,l,0.3637826597550884,colour,0.06
161,25,1,1,15,50,750,1125.232179625542,1126.0732144967187,"[84, 0, 170]",170,l,0.31449670350411907,colour,0.06
161,25,1,1,16,1,751,1130.8130508928443,1131.6490441344213,"[57, 0, 197]",197,a,0.3118992855306715,colour,0.06
161,25,1,1,16,2,752,1132.1577115152613,1133.049050436006,"[81, 0, 173]",173,l,0.3680153285386041,colour,0.06
161,25,1,1,16,3,753,1133.5641036446323,1134.3770643466269,"[82, 0, 172]",172,l,0.28976471605710685,colour,0.06
161,25,1,1,16,4,754,1134.8798689278774,1135.4810772490455,"[92, 0, 162]",162,l,0.07777996582444757,colour,0.06
161,25,1,1,16,5,755,1135.989327940275,1136.8170263798092,"[60, 0, 194]",194,a,0.30443234893027693,colour,0.06
161,25,1,1,16,6,756,1137.3331646356964,1138.1050514757517,"[79, 0, 175]",175,l,0.248582546308171,colour,0.06
161,25,1,1,16,7,757,1138.6145250604604,1139.257075453119,"[87, 0, 167]",167,l,0.11928508977871388,colour,0.06
161,25,1,1,16,8,758,1139.7606133765657,1140.3450828259229,"[93, 0, 161]",161,l,0.06108756782487035,colour,0.06
161,25,1,1,16,9,759,1140.8544177766307,1141.5690377541468,"[89, 0, 165]",165,l,0.19119556056102738,colour,0.06
161,25,1,1,16,10,760,1142.088945121388,1142.8650697502308,"[50, 0, 204]",204,a,0.2527927658520639,colour,0.06
161,25,1,1,16,11,761,1143.3862110387417,1143.9850684899138,"[31, 0, 223]",223,a,0.07572684378828853,colour,0.06
161,25,1,1,16,12,762,1144.4953443400445,1145.193151796353,"[94, 0, 160]",160,l,0.17437870713183656,colour,0.06
161,25,1,1,16,13,763,1145.7142670909525,1146.577082069707,"[63, 0, 191]",191,a,0.3395756697282195,colour,0.06
161,25,1,1,16,14,764,1147.0893689002842,1147.7131489606109,"[70, 0, 184]",184,a,0.10055059747537598,colour,0.06
161,25,1,1,16,15,765,1148.2308574827039,1148.985060219129,"[67, 0, 187]",187,a,0.23163532960461453,colour,0.06
161,25,1,1,16,16,766,1149.4957519712043,1150.1210589745897,"[59, 0, 195]",195,a,0.10196529427776113,colour,0.06
161,25,1,1,16,17,767,1150.6365556544624,1151.313059557462,"[98, 0, 156]",156,l,0.1530869691632688,colour,0.06
161,25,1,1,16,18,768,1151.8251656124485,1152.6810780367232,"[78, 0, 176]",176,a,0.3325478720362298,colour,0.06
161,25,1,1,16,19,769,1153.200280812569,1154.137370522949,"[80, 0, 174]",174,a,0.4138031397596933,colour,0.06
161,25,1,1,16,20,770,1154.653527683462,1155.281068978249,"[52, 0, 202]",202,a,0.10409167170291767,colour,0.06
161,25,1,1,16,21,771,1155.794201397337,1156.617065370665,"[99, 0, 155]",155,l,0.29955652880016714,colour,0.06
161,25,1,1,16,22,772,1157.138005797402,1158.057112868526,"[61, 0, 193]",193,a,0.3956763526657596,colour,0.06
161,25,1,1,16,23,773,1158.5757611084264,1159.3770615897374,"[64, 0, 190]",190,a,0.2784002741682343,colour,0.06
161,25,1,1,16,24,774,1159.8882480130414,1160.8891152631259,"[84, 0, 170]",170,a,0.4774101439397782,colour,0.06
161,25,1,1,16,25,775,1161.4040459854878,1162.2334407221642,"[68, 0, 186]",186,a,0.3060746890841983,colour,0.06
161,25,1,1,16,26,776,1162.7480035918998,1163.5851055114763,"[66, 0, 188]",188,a,0.31404417380690575,colour,0.06
161,25,1,1,16,27,777,1164.0936492244946,1164.6891778847203,"[74, 0, 180]",180,a,0.07212157256435603,colour,0.06
161,25,1,1,16,28,778,1165.2031050861115,1165.8170890014153,"[77, 0, 177]",177,a,0.09059218765469268,colour,0.06
161,25,1,1,16,29,779,1166.3210562176537,1166.9371294888551,"[65, 0, 189]",189,a,0.09281545138219371,colour,0.06
161,25,1,1,16,30,780,1167.4480291918735,1168.0250750277773,"[86, 0, 168]",168,l,0.05385969614144415,colour,0.06
161,25,1,1,16,31,781,1168.541826502711,1169.1771120020421,"[56, 0, 198]",198,a,0.11248808610253036,colour,0.06
161,25,1,1,16,32,782,1169.698050065781,1170.4411305758986,"[88, 0, 166]",166,l,0.22003930591745302,colour,0.06
161,25,1,1,16,33,783,1170.9481831858866,1171.9851445023087,"[69, 0, 185]",185,a,0.5137476074160077,colour,0.06
161,25,1,1,16,34,784,1172.4950615582056,1173.265089048713,"[95, 0, 159]",159,l,0.24653454427607358,colour,0.06
161,25,1,1,16,35,785,1173.7764404937043,1174.6170878199046,"[71, 0, 183]",183,a,0.31747339566936716,colour,0.06
161,25,1,1,16,36,786,1175.1359869400621,1176.1131402960164,"[73, 0, 181]",181,a,0.45346663729287684,colour,0.06
161,25,1,1,16,37,787,1176.6205107402056,1177.5293273888528,"[83, 0, 171]",171,l,0.38575969060184434,colour,0.06
161,25,1,1,16,38,788,1178.0429485714994,1178.7931537655531,"[96, 0, 158]",158,l,0.24008491332642734,colour,0.06
161,25,1,1,16,39,789,1179.311390435847,1180.1373401967576,"[17, 0, 237]",237,a,0.30311059998348355,colour,0.06
161,25,1,1,16,40,790,1180.655551266973,1181.3930899624247,"[91, 0, 163]",163,l,0.21442541730357334,colour,0.06
161,25,1,1,16,41,791,1181.9053681283258,1182.769122431113,"[51, 0, 203]",203,a,0.3408525201957673,colour,0.06
161,25,1,1,16,42,792,1183.2803978637676,1183.8251427693758,"[55, 0, 199]",199,a,0.021664710598997772,colour,0.06
161,25,1,1,16,43,793,1184.343054122408,1185.0251329232124,"[97, 0, 157]",157,l,0.1592526368331164,colour,0.06
161,25,1,1,16,44,794,1185.5461792947026,1186.1451864075498,"[76, 0, 178]",178,a,0.0756886406452395,colour,0.06
161,25,1,1,16,45,795,1186.6556351563195,1187.289153860067,"[0, 0, 254]",254,a,0.10996628674911335,colour,0.06
161,25,1,1,16,46,796,1187.7964490795857,1188.96920592658,"[58, 0, 196]",196,a,0.6494163193856366,colour,0.06
161,25,1,1,16,47,797,1189.4840913566295,1190.3692405850743,"[75, 0, 179]",179,l,0.3690633541555144,colour,0.06
161,25,1,1,16,48,798,1190.8829748017015,1191.6651709688012,"[72, 0, 182]",182,a,0.2591124274767935,colour,0.06
161,25,1,1,16,49,799,1192.1811087567476,1192.9611620048527,"[90, 0, 164]",164,l,0.25683993293205276,colour,0.06
161,25,1,1,16,50,800,1193.4782931478694,1194.1451804998796,"[53, 0, 201]",201,a,0.14338613505242392,colour,0.06
