id,age,condition,counterbalance,block,trialinblock,trial,tstart,tend,trialstim,trialintensity,response,RT,trialtype,colourfreq
062,68,0,2,Practice,1,NA,5.907684681005776e-06,2.369620955105347,"[52, 0, 202]",202,a,1.8453187116829213,colour,0.5
062,68,0,2,Practice,2,NA,2.8757964542855916,4.561701034945145,"[60, 0, 194]",194,a,1.1596090845996514,colour,0.5
062,68,0,2,Practice,3,NA,5.082049856126105,5.937662510543305,"[63, 0, 191]",191,a,0.33240727102020173,colour,0.5
062,68,0,2,Practice,4,NA,6.456978668531519,7.185621011820331,"[29, 0, 225]",225,a,0.20553384591039503,colour,0.5
062,68,0,2,Practice,5,NA,7.7069300285984355,8.26563980613355,"[44, 0, 210]",210,a,0.03560403707524529,colour,0.5
062,68,0,2,Practice,6,NA,8.78538958813806,10.017609231108509,"[43, 0, 211]",211,a,0.709316733002197,colour,0.5
062,68,0,2,Practice,7,NA,10.535122363893606,11.769571173019358,"[48, 0, 206]",206,a,0.7112225519122148,colour,0.5
062,68,0,2,Practice,8,NA,12.28516391460289,13.521576044102403,"[39, 0, 215]",215,a,0.7132480998916435,colour,0.5
062,68,0,2,Practice,9,NA,14.035055803982686,15.113568532680802,"[59, 0, 195]",195,a,0.5552652038204542,colour,0.5
062,68,0,2,Practice,10,NA,15.628763884040382,16.521646936314937,"[79, 0, 175]",175,a,0.36970523807030986,colour,0.5
062,68,0,2,1,1,1,6.307546160674974,8.415973432747705,"[95, 0, 159]",159,l,1.5843026530201314,colour,0.5
062,68,0,2,1,2,2,8.933493654752965,9.856001380034286,"[2, 0, 252]",252,a,0.39944136938720476,colour,0.5
062,68,0,2,1,3,3,10.372622846352897,11.631971756542043,"[68, 0, 186]",186,a,0.7360360069396847,colour,0.5
062,68,0,2,1,4,4,12.12725151689665,12.767956799860258,"[45, 0, 209]",209,a,0.11757591177229187,colour,0.5
062,68,0,2,1,5,5,13.285329723606992,14.97593603317,"[80, 0, 174]",174,l,1.16717643416996,colour,0.5
062,68,0,2,1,6,6,15.488639917195542,16.2719590589586,"[14, 0, 240]",240,a,0.2601161214406602,colour,0.5
062,68,0,2,1,7,7,16.785519951034075,17.815911441448407,"[29, 0, 225]",225,a,0.507179805485066,colour,0.5
062,68,0,2,1,8,8,18.323054225449596,22.896003097201174,"[62, 0, 192]",192,l,4.049718282236427,colour,0.5
062,68,0,2,1,9,9,23.416912360684364,23.944461073479033,"[9, 0, 245]",245,a,0.013753876424743794,colour,0.5
062,68,0,2,1,10,10,24.454408038229303,25.44795921019613,"[72, 0, 182]",182,l,0.4688605967712647,colour,0.5
062,68,0,2,1,11,11,25.95589047310932,26.663963047827565,"[28, 0, 226]",226,a,0.18489318513093167,colour,0.5
062,68,0,2,1,12,12,27.17462484236239,28.415951771239634,"[90, 0, 164]",164,l,0.7181912561536592,colour,0.5
062,68,0,2,1,13,13,28.92451279328452,29.519985301682027,"[69, 0, 185]",185,a,0.07226870038357447,colour,0.5
062,68,0,2,1,14,14,30.033859694864077,30.735946210141265,"[46, 0, 208]",208,a,0.1787771566414449,colour,0.5
062,68,0,2,1,15,15,31.248950598368538,31.911929819860234,"[85, 0, 169]",169,l,0.13980967804673128,colour,0.5
062,68,0,2,1,16,16,32.42078189381209,34.97589704245547,"[66, 0, 188]",188,a,2.0322941585618537,colour,0.5
062,68,0,2,1,17,17,35.48330527839789,36.447968662490894,"[11, 0, 243]",243,a,0.4414284622762352,colour,0.5
062,68,0,2,1,18,18,36.9676298292361,38.911923518331605,"[41, 0, 213]",213,a,1.4210654626549513,colour,0.5
062,68,0,2,1,19,19,39.42262390973701,40.64793746991927,"[64, 0, 190]",190,l,0.7024086809869914,colour,0.5
062,68,0,2,1,20,20,41.157043180443,42.855909220161266,"[27, 0, 227]",227,l,1.1756823178293416,colour,0.5
062,68,0,2,1,21,21,43.37575194973033,44.77589948429886,"[60, 0, 194]",194,l,0.8768874066299759,colour,0.5
062,68,0,2,1,22,22,45.29764606355093,46.10389725985806,"[32, 0, 222]",222,a,0.283061960581108,colour,0.5
062,68,0,2,1,23,23,46.61073757042686,48.94393528958972,"[23, 0, 231]",231,a,1.8098615790222539,colour,0.5
062,68,0,2,1,24,24,49.45747845861115,50.031873137602815,"[3, 0, 251]",251,a,0.051140064890205394,colour,0.5
062,68,0,2,1,25,25,50.551173541764,51.47188769413333,"[98, 0, 156]",156,l,0.3974181844787381,colour,0.5
062,68,0,2,1,26,26,51.988712384787505,52.7759156319662,"[87, 0, 167]",167,l,0.2762078654122888,colour,0.5
062,68,0,2,1,27,27,53.28881486341561,55.791919154522475,"[96, 0, 158]",158,l,1.9799445938006102,colour,0.5
062,68,0,2,1,28,28,56.304535604824196,56.984104391140136,"[49, 0, 205]",205,a,0.15666784557834035,colour,0.5
062,68,0,2,1,29,29,57.49194782648192,59.36796759123172,"[39, 0, 215]",215,a,1.3527324614660756,colour,0.5
062,68,0,2,1,30,30,59.88253160807653,60.487847499825875,"[8, 0, 246]",246,a,0.08212114218258648,colour,0.5
062,68,0,2,1,31,31,60.995179329722305,61.791894736095855,"[86, 0, 168]",168,l,0.2734489769100037,colour,0.5
062,68,0,2,1,32,32,62.307712363523024,66.63184769517466,"[16, 0, 238]",238,a,3.800946489773196,colour,0.5
062,68,0,2,1,33,33,67.15141867127386,67.77585104128593,"[88, 0, 166]",166,l,0.1011639713178738,colour,0.5
062,68,0,2,1,34,34,68.2920384897443,68.89585343586805,"[31, 0, 223]",223,a,0.08081672551998054,colour,0.5
062,68,0,2,1,35,35,69.41708762198323,70.00786509684986,"[1, 0, 253]",253,a,0.06765282982087228,colour,0.5
062,68,0,2,1,36,36,70.52639986514623,71.11994961926757,"[21, 0, 233]",233,a,0.07028726311182254,colour,0.5
062,68,0,2,1,37,37,71.63577197284394,73.30388694110297,"[82, 0, 172]",172,l,1.1448690187644388,colour,0.5
062,68,0,2,1,38,38,73.82329683434727,75.60790778971204,"[61, 0, 193]",193,l,1.2614122673439851,colour,0.5
062,68,0,2,1,39,39,76.12013551439668,78.53583955674912,"[51, 0, 203]",203,a,1.8925211081550515,colour,0.5
062,68,0,2,1,40,40,79.04204577588462,79.62386759540459,"[12, 0, 242]",242,a,0.058929149538016645,colour,0.5
062,68,0,2,1,41,41,80.13566681606244,81.65585416054455,"[73, 0, 181]",181,l,0.9968866504459584,colour,0.5
062,68,0,2,1,42,42,82.16703661897554,82.71186255103021,"[26, 0, 228]",228,a,0.021552807211264735,colour,0.5
062,68,0,2,1,43,43,83.23017834116763,83.80785690485936,"[94, 0, 160]",160,l,0.055432982047932455,colour,0.5
062,68,0,2,1,44,44,84.32397070418665,86.00784816148735,"[59, 0, 195]",195,a,1.1606543508496543,colour,0.5
062,68,0,2,1,45,45,86.5270434088743,89.25582871811639,"[25, 0, 229]",229,a,2.205590953522915,colour,0.5
062,68,0,2,1,46,46,89.77705896577754,91.73586271487147,"[99, 0, 155]",155,l,1.4355664642025658,colour,0.5
062,68,0,2,1,47,47,92.24575651046325,93.21583093940717,"[75, 0, 179]",179,l,0.44690764241750003,colour,0.5
062,68,0,2,1,48,48,93.72514853886969,94.31986919599512,"[17, 0, 237]",237,a,0.07146289226147928,colour,0.5
062,68,0,2,1,49,49,94.83447456662907,95.57581606779786,"[38, 0, 216]",216,a,0.21799078874028055,colour,0.5
062,68,0,2,1,50,50,96.08453699115853,96.97582221178891,"[67, 0, 187]",187,l,0.3680573880337761,colour,0.5
062,68,0,2,2,1,51,102.72714100381563,104.20784375041694,"[77, 0, 177]",177,l,0.9565288968478853,colour,0.5
062,68,0,2,2,2,52,104.72936111152376,108.44788122876707,"[30, 0, 224]",224,a,3.195251718545478,colour,0.5
062,68,0,2,2,3,53,108.96547588758767,109.71979342009945,"[81, 0, 173]",173,l,0.23104361997684464,colour,0.5
062,68,0,2,2,4,54,110.231159016741,113.15983712120942,"[60, 0, 194]",194,a,2.4145851269749983,colour,0.5
062,68,0,2,2,5,55,113.67872910747246,114.23979368791333,"[13, 0, 241]",241,l,0.03793402771043475,colour,0.5
062,68,0,2,2,6,56,114.75682317828614,116.11977750873484,"[90, 0, 164]",164,l,0.8396170087726205,colour,0.5
062,68,0,2,2,7,57,116.63185360285934,119.43981920911028,"[35, 0, 219]",219,l,2.2844246663953527,colour,0.5
062,68,0,2,2,8,58,119.95993487368833,120.83178893341028,"[20, 0, 234]",234,a,0.34859590101405047,colour,0.5
062,68,0,2,2,9,59,121.35055134446884,121.89580932516037,"[34, 0, 220]",220,a,0.02363428126773215,colour,0.5
062,68,0,2,2,10,60,122.39893055162611,122.94379389901587,"[42, 0, 212]",212,a,0.021590222546365112,colour,0.5
062,68,0,2,2,11,61,123.46141494549374,124.80820545822644,"[61, 0, 193]",193,a,0.8234720956461388,colour,0.5
062,68,0,2,2,12,62,125.32079945932855,125.91976734752097,"[21, 0, 233]",233,a,0.07575541557525867,colour,0.5
062,68,0,2,2,13,63,126.43029050839687,128.7598223126115,"[82, 0, 172]",172,l,1.8064871098249569,colour,0.5
062,68,0,2,2,14,64,129.2740637699062,130.21575453335754,"[53, 0, 201]",201,a,0.41836722637162893,colour,0.5
062,68,0,2,2,15,65,130.7271957483572,131.64774487941395,"[76, 0, 178]",178,l,0.3972968800335366,colour,0.5
062,68,0,2,2,16,66,132.16689837916783,132.89575418677487,"[52, 0, 202]",202,a,0.20576897174032638,colour,0.5
062,68,0,2,2,17,67,133.41691905606058,134.01576760903117,"[33, 0, 221]",221,a,0.07564632033972885,colour,0.5
062,68,0,2,2,18,68,134.5262954960599,135.18379120511236,"[78, 0, 176]",176,l,0.13426315031028935,colour,0.5
062,68,0,2,2,19,69,135.69819610833292,136.57578928629664,"[83, 0, 171]",171,l,0.35366508787410567,colour,0.5
062,68,0,2,2,20,70,137.08958491035446,137.69578892395657,"[14, 0, 240]",240,a,0.08298287637808244,colour,0.5
062,68,0,2,2,21,71,138.21473841168336,138.82377220600029,"[37, 0, 217]",217,a,0.08601154913048958,colour,0.5
062,68,0,2,2,22,72,139.3395882580444,140.79980118673484,"[66, 0, 188]",188,a,0.9373895755379635,colour,0.5
062,68,0,2,2,23,73,141.3082881658047,141.87179419518725,"[43, 0, 211]",211,a,0.04027465217586723,colour,0.5
062,68,0,2,2,24,74,142.38639011353007,142.93580001464943,"[86, 0, 168]",168,l,0.026502658853132743,colour,0.5
062,68,0,2,2,25,75,143.44891783041385,143.9837759239017,"[9, 0, 245]",245,a,0.011658223931590328,colour,0.5
062,68,0,2,2,26,76,144.4958268119044,145.08776652516826,"[79, 0, 175]",175,l,0.06872724064669455,colour,0.5
062,68,0,2,2,27,77,145.6057239157999,149.05579059386218,"[40, 0, 214]",214,a,2.926788433225738,colour,0.5
062,68,0,2,2,28,78,149.57524577935328,150.49575788892253,"[50, 0, 204]",204,a,0.3979254576297535,colour,0.5
062,68,0,2,2,29,79,151.0119981126918,151.59172112894885,"[95, 0, 159]",159,l,0.05502377645825618,colour,0.5
062,68,0,2,2,30,80,152.10718350763636,152.67982005981685,"[4, 0, 250]",250,a,0.049430774939537514,colour,0.5
062,68,0,2,2,31,81,153.20094633223198,153.9517539126573,"[55, 0, 199]",199,a,0.22753878788353177,colour,0.5
062,68,0,2,2,32,82,154.4665065815534,155.31973922694306,"[63, 0, 191]",191,a,0.329879963734129,colour,0.5
062,68,0,2,2,33,83,155.82591866457733,157.89576009445955,"[47, 0, 207]",207,a,1.5465702742658323,colour,0.5
062,68,0,2,2,34,84,158.3938995677927,159.11176747670106,"[57, 0, 197]",197,a,0.1947184515884146,colour,0.5
062,68,0,2,2,35,85,159.62823219246638,161.3918039152959,"[68, 0, 186]",186,a,1.2403497979175881,colour,0.5
062,68,0,2,2,36,86,161.89711728643306,162.50373365639098,"[0, 0, 254]",254,a,0.08340035272703972,colour,0.5
062,68,0,2,2,37,87,163.02248661515478,163.71972686019217,"[91, 0, 163]",163,l,0.1739509725230164,colour,0.5
062,68,0,2,2,38,88,164.22565029817997,164.85571741734748,"[48, 0, 206]",206,a,0.10759862091072137,colour,0.5
062,68,0,2,2,39,89,165.3662610581996,165.9277328749995,"[5, 0, 249]",249,a,0.03818766428230447,colour,0.5
062,68,0,2,2,40,90,166.4464881968379,167.0397602898047,"[36, 0, 218]",218,a,0.07031128769449424,colour,0.5
062,68,0,2,2,41,91,167.55560627411614,168.08775549749407,"[41, 0, 213]",213,a,0.008850104724842822,colour,0.5
062,68,0,2,2,42,92,168.60248768641395,169.14373001725835,"[7, 0, 247]",247,a,0.01797275061107939,colour,0.5
062,68,0,2,2,43,93,169.66502131098605,170.40774324101585,"[38, 0, 216]",216,a,0.2197835739571019,colour,0.5
062,68,0,2,2,44,94,170.91501756945217,171.64775866401033,"[74, 0, 180]",180,l,0.20947702816556557,colour,0.5
062,68,0,2,2,45,95,172.16501697868443,175.80781318799927,"[6, 0, 248]",248,a,3.119590038229944,colour,0.5
062,68,0,2,2,46,96,176.32126183407308,177.0477356634292,"[23, 0, 231]",231,a,0.2034090488414222,colour,0.5
062,68,0,2,2,47,97,177.54398310244505,178.16778925793915,"[98, 0, 156]",156,l,0.10080045181894093,colour,0.5
062,68,0,2,2,48,98,178.68440284734606,179.28772863722043,"[92, 0, 162]",162,l,0.0800593604108144,colour,0.5
062,68,0,2,2,49,99,179.79384781647968,180.76771025250855,"[56, 0, 198]",198,a,0.45075945249118377,colour,0.5
062,68,0,2,2,50,100,181.27817866884652,181.82372770144502,"[12, 0, 242]",242,a,0.022310960015602177,colour,0.5
062,68,0,2,3,1,101,189.77731969156957,190.84770856684918,"[29, 0, 225]",225,a,0.5462784346673288,colour,0.5
062,68,0,2,3,2,102,191.35748578414132,191.9758210302498,"[41, 0, 213]",213,a,0.0951613703618932,colour,0.5
062,68,0,2,3,3,103,192.48246008571368,194.31178197022018,"[28, 0, 226]",226,a,1.3061027165131236,colour,0.5
062,68,0,2,3,4,104,194.8263199932553,195.77569074612256,"[46, 0, 208]",208,a,0.42625122781464597,colour,0.5
062,68,0,2,3,5,105,196.29493955651196,197.2156604042575,"[11, 0, 243]",243,a,0.39742960600415245,colour,0.5
062,68,0,2,3,6,106,197.723930768243,198.25575034283975,"[4, 0, 250]",250,a,0.008531089777534362,colour,0.5
062,68,0,2,3,7,107,198.77076216214846,200.81569482636405,"[68, 0, 186]",186,l,1.521694591632695,colour,0.5
062,68,0,2,3,8,108,201.3333060267032,203.5196521082944,"[6, 0, 248]",248,a,1.6630875290356926,colour,0.5
062,68,0,2,3,9,109,204.02714580873362,204.8557016635241,"[49, 0, 205]",205,a,0.30532880988539546,colour,0.5
062,68,0,2,3,10,110,205.37078595042112,207.38367376034876,"[48, 0, 206]",206,a,1.489683608066116,colour,0.5
062,68,0,2,3,11,111,207.8897783673201,209.94371552373923,"[18, 0, 236]",236,a,1.530758554523345,colour,0.5
062,68,0,2,3,12,112,210.44900920259533,211.60771086690875,"[17, 0, 237]",237,a,0.6355770192676573,colour,0.5
062,68,0,2,3,13,113,212.12082001806994,212.66364285134478,"[23, 0, 231]",231,a,0.01961666218994651,colour,0.5
062,68,0,2,3,14,114,213.18326660275852,213.95978009236205,"[98, 0, 156]",156,l,0.2535806473715638,colour,0.5
062,68,0,2,3,15,115,214.48017617501682,215.03167857787048,"[7, 0, 247]",247,a,0.028273388717934722,colour,0.5
062,68,0,2,3,16,116,215.54268498731108,216.199646247871,"[85, 0, 169]",169,l,0.13371452337378287,colour,0.5
062,68,0,2,3,17,117,216.71461789492605,217.68765325517234,"[79, 0, 175]",175,l,0.4497401800508669,colour,0.5
062,68,0,2,3,18,118,218.19897277187556,218.99965105278898,"[50, 0, 204]",204,a,0.27741106375469826,colour,0.5
062,68,0,2,3,19,119,219.51147035957183,220.0796808747764,"[99, 0, 155]",155,l,0.0449582641813322,colour,0.5
062,68,0,2,3,20,120,220.58962783952666,221.28768019421113,"[52, 0, 202]",202,a,0.17488320508346078,colour,0.5
062,68,0,2,3,21,121,221.80836851030836,222.55167805799283,"[97, 0, 157]",157,l,0.22008013970480533,colour,0.5
062,68,0,2,3,22,122,223.0593785273777,224.96769757067887,"[12, 0, 242]",242,a,1.3832850347316707,colour,0.5
062,68,0,2,3,23,123,225.4842197879043,226.11970267806828,"[31, 0, 223]",223,a,0.11334640375571325,colour,0.5
062,68,0,2,3,24,124,226.63930870642798,227.21564386274258,"[91, 0, 163]",163,l,0.053111262172024,colour,0.5
062,68,0,2,3,25,125,227.73306798641715,229.03970475757524,"[61, 0, 193]",193,a,0.7833675847723498,colour,0.5
062,68,0,2,3,26,126,229.56111499267718,230.3356167189013,"[73, 0, 181]",181,l,0.25120418295409763,colour,0.5
062,68,0,2,3,27,127,230.84314271468247,232.69565737952144,"[45, 0, 209]",209,a,1.3273010626726318,colour,0.5
062,68,0,2,3,28,128,233.20454765649993,233.75980852801513,"[16, 0, 238]",238,a,0.03211102035129443,colour,0.5
062,68,0,2,3,29,129,234.26699502888005,235.03962677614254,"[84, 0, 170]",170,l,0.2493428685957042,colour,0.5
062,68,0,2,3,30,130,235.54823624120036,236.24768280934586,"[72, 0, 182]",182,l,0.17616044640089967,colour,0.5
062,68,0,2,3,31,131,236.76695209970785,238.07162476280428,"[64, 0, 190]",190,l,0.7814078090123076,colour,0.5
062,68,0,2,3,32,132,238.57954263496867,240.7196508479865,"[56, 0, 198]",198,a,1.6168701404349122,colour,0.5
062,68,0,2,3,33,133,241.23569099818633,244.62362341112748,"[35, 0, 219]",219,a,2.864972789207968,colour,0.5
062,68,0,2,3,34,134,245.14280526776201,245.8236052154607,"[47, 0, 207]",207,a,0.15659459029484424,colour,0.5
062,68,0,2,3,35,135,246.33126984489354,247.15967288758839,"[70, 0, 184]",184,l,0.3051070748078928,colour,0.5
062,68,0,2,3,36,136,247.6776113736305,251.9516570266387,"[77, 0, 177]",177,l,3.7506252299099287,colour,0.5
062,68,0,2,3,37,137,252.45960207414828,253.383607988133,"[26, 0, 228]",228,a,0.40073436452803435,colour,0.5
062,68,0,2,3,38,138,253.8971326464125,255.94360524696822,"[65, 0, 189]",189,a,1.5232825771381613,colour,0.5
062,68,0,2,3,39,139,256.46132396715984,258.9035779298356,"[30, 0, 224]",224,a,1.9175602367176907,colour,0.5
062,68,0,2,3,40,140,259.4160459003433,260.0716200366587,"[24, 0, 230]",230,a,0.13236048216276686,colour,0.5
062,68,0,2,3,41,141,260.58795714644657,261.1195912197618,"[32, 0, 222]",222,a,0.008595680457801791,colour,0.5
062,68,0,2,3,42,142,261.6348302879851,262.1996868139686,"[76, 0, 178]",178,l,0.041732274781679735,colour,0.5
062,68,0,2,3,43,143,262.71291530034796,265.4235703207378,"[60, 0, 194]",194,a,2.1874264001016854,colour,0.5
062,68,0,2,3,44,144,265.9316165865712,266.6717340155774,"[81, 0, 173]",173,l,0.21689077794871992,colour,0.5
062,68,0,2,3,45,145,267.18165183575184,267.7116971358737,"[15, 0, 239]",239,a,0.0068485813280858565,colour,0.5
062,68,0,2,3,46,146,268.23011768894503,268.9756162305348,"[93, 0, 161]",161,l,0.22272087452802225,colour,0.5
062,68,0,2,3,47,147,269.4957964857931,270.2475685941208,"[59, 0, 195]",195,a,0.22852694652465289,colour,0.5
062,68,0,2,3,48,148,270.7614043904323,271.35161157685434,"[5, 0, 249]",249,a,0.0669238215959922,colour,0.5
062,68,0,2,3,49,149,271.8707772858179,272.5275888850447,"[95, 0, 159]",159,l,0.13359124969429104,colour,0.5
062,68,0,2,3,50,150,273.0426597811929,274.3196679408866,"[96, 0, 158]",158,a,0.7537850532426091,colour,0.5
062,68,0,2,4,1,151,287.9077408779449,290.5035788750647,"[83, 0, 171]",171,l,2.0718650086273556,colour,0.5
062,68,0,2,4,2,152,291.01788374150055,291.78360074137527,"[51, 0, 203]",203,a,0.24175306983306655,colour,0.5
062,68,0,2,4,3,153,292.29988862045866,293.2395833743576,"[92, 0, 162]",162,l,0.416392878327315,colour,0.5
062,68,0,2,4,4,154,293.7529910604899,296.18355332236024,"[11, 0, 243]",243,a,1.9072824416507501,colour,0.5
062,68,0,2,4,5,155,296.690441682098,297.3355355867061,"[32, 0, 222]",222,a,0.12181250900903251,colour,0.5
062,68,0,2,4,6,156,297.84669835285604,299.58361460474043,"[80, 0, 174]",174,a,1.2139408743241802,colour,0.5
062,68,0,2,4,7,157,300.09681985422867,301.1195608936505,"[36, 0, 218]",218,a,0.49807055035125813,colour,0.5
062,68,0,2,4,8,158,301.6294239692834,303.67953846020464,"[22, 0, 232]",232,a,1.539287675073865,colour,0.5
062,68,0,2,4,9,159,304.19518555248214,304.74351671047407,"[18, 0, 236]",236,a,0.025223054461093852,colour,0.5
062,68,0,2,4,10,160,305.25945446081096,305.7836350059406,"[16, 0, 238]",238,a,0.0009558632955304347,colour,0.5
062,68,0,2,4,11,161,306.306342568485,307.0715617475071,"[79, 0, 175]",175,l,0.24200198025573627,colour,0.5
062,68,0,2,4,12,162,307.5876601868549,308.5115790609598,"[29, 0, 225]",225,a,0.4008844197051076,colour,0.5
062,68,0,2,4,13,163,309.0251687037671,309.6235387343222,"[33, 0, 221]",221,a,0.0752642900988576,colour,0.5
062,68,0,2,4,14,164,310.12728853838416,312.20755978773013,"[60, 0, 194]",194,a,1.557145028917148,colour,0.5
062,68,0,2,4,15,165,312.72090209549424,313.8875232073515,"[43, 0, 211]",211,a,0.643454325330822,colour,0.5
062,68,0,2,4,16,166,314.40846319079355,314.9755024091537,"[96, 0, 158]",158,l,0.04380587192281382,colour,0.5
062,68,0,2,4,17,167,315.4864651017342,316.06354974624264,"[93, 0, 161]",161,l,0.05382412272592774,colour,0.5
062,68,0,2,4,18,168,316.58036301537504,317.15156163723077,"[31, 0, 223]",223,a,0.04796251849984401,colour,0.5
062,68,0,2,4,19,169,317.65845748003267,318.9195381293721,"[42, 0, 212]",212,a,0.7378559675089491,colour,0.5
062,68,0,2,4,20,170,319.4397042061901,319.9995797667325,"[0, 0, 254]",254,a,0.03650515583285596,colour,0.5
062,68,0,2,4,21,171,320.5180011074917,322.7595600114364,"[67, 0, 187]",187,l,1.7183491882460658,colour,0.5
062,68,0,2,4,22,172,323.2735939120903,324.2635898397275,"[46, 0, 208]",208,a,0.46690082101122243,colour,0.5
062,68,0,2,4,23,173,324.7610223601878,326.58352638332144,"[47, 0, 207]",207,a,1.29919230141968,colour,0.5
062,68,0,2,4,24,174,327.10483658163866,329.1835021224324,"[85, 0, 169]",169,a,1.555644083295192,colour,0.5
062,68,0,2,4,25,175,329.6985722308891,330.31153660440395,"[1, 0, 253]",253,a,0.0897326024605718,colour,0.5
062,68,0,2,4,26,176,330.82350005868284,332.8635549450046,"[41, 0, 213]",213,a,1.516724653865822,colour,0.5
062,68,0,2,4,27,177,333.370395255577,333.92748553995625,"[5, 0, 249]",249,a,0.033964851641940186,colour,0.5
062,68,0,2,4,28,178,334.4485338309423,335.12750121501085,"[75, 0, 179]",179,l,0.16477003748514107,colour,0.5
062,68,0,2,4,29,179,335.6427391016987,336.7836259474934,"[53, 0, 201]",201,a,0.6176708285638597,colour,0.5
062,68,0,2,4,30,180,337.29892330486837,338.88753502272084,"[40, 0, 214]",214,a,1.063277205084887,colour,0.5
062,68,0,2,4,31,181,339.3947565758426,339.9595441788406,"[97, 0, 157]",157,l,0.041477456670691026,colour,0.5
062,68,0,2,4,32,182,340.4728640374051,342.15150413577067,"[82, 0, 172]",172,l,1.1553799704306584,colour,0.5
062,68,0,2,4,33,183,342.6604160742572,343.24751936341636,"[28, 0, 226]",226,a,0.06399282255733851,colour,0.5
062,68,0,2,4,34,184,343.7541048558778,344.3434530650229,"[61, 0, 193]",193,a,0.0662755517187179,colour,0.5
062,68,0,2,4,35,185,344.86347735741947,345.51946109317214,"[88, 0, 166]",166,a,0.13275550930848112,colour,0.5
062,68,0,2,4,36,186,346.03535709587595,349.53546264649776,"[76, 0, 178]",178,a,2.976848573449388,colour,0.5
062,68,0,2,4,37,187,350.0510152158313,350.5994830382515,"[73, 0, 181]",181,l,0.025343965065985685,colour,0.5
062,68,0,2,4,38,188,351.1135236342816,351.73547753386447,"[25, 0, 229]",229,a,0.09870283009513514,colour,0.5
062,68,0,2,4,39,189,352.25412021585726,352.7914938012618,"[58, 0, 196]",196,a,0.014183955830958439,colour,0.5
062,68,0,2,4,40,190,353.3009709081998,354.0074862173715,"[71, 0, 183]",183,l,0.18327802428029827,colour,0.5
062,68,0,2,4,41,191,354.5197430866283,356.8475537855229,"[52, 0, 202]",202,a,1.8046612415746495,colour,0.5
062,68,0,2,4,42,192,357.3634478189997,358.15150571115373,"[48, 0, 206]",206,a,0.26481588111346355,colour,0.5
062,68,0,2,4,43,193,358.6489248408652,360.7034255903527,"[10, 0, 244]",244,a,1.5312772491924989,colour,0.5
062,68,0,2,4,44,194,361.21315003233394,362.98354197960725,"[65, 0, 189]",189,a,1.2471944407880073,colour,0.5
062,68,0,2,4,45,195,363.481827963511,364.015519880144,"[7, 0, 247]",247,l,0.010347111892770045,colour,0.5
062,68,0,2,4,46,196,364.5287448219133,366.75169806534905,"[59, 0, 195]",195,a,1.6996954785718117,colour,0.5
062,68,0,2,4,47,197,367.26456027531094,370.0314777166095,"[24, 0, 230]",230,a,2.243745534775371,colour,0.5
062,68,0,2,4,48,198,370.5333441509574,371.24742365893326,"[99, 0, 155]",155,l,0.19084773692156887,colour,0.5
062,68,0,2,4,49,199,371.7677291570981,372.34345030810437,"[35, 0, 219]",219,a,0.05254491218511248,colour,0.5
062,68,0,2,4,50,200,372.862523069507,373.87144485412864,"[54, 0, 200]",200,a,0.4857266412109311,colour,0.5
062,68,0,2,5,1,201,389.92739810623243,392.10348293427523,"[49, 0, 205]",205,a,1.6520196796773234,colour,0.5
062,68,0,2,5,2,202,392.6176196286324,394.6154081855275,"[68, 0, 186]",186,l,1.4745591489154322,colour,0.5
062,68,0,2,5,3,203,395.1333151639228,395.9514565592217,"[94, 0, 160]",160,l,0.29488717504864326,colour,0.5
062,68,0,2,5,4,204,396.4489595780469,398.6634624700564,"[86, 0, 168]",168,l,1.6912620625080308,colour,0.5
062,68,0,2,5,5,205,399.1833902702783,402.4554233722156,"[40, 0, 214]",214,a,2.7489663521955663,colour,0.5
062,68,0,2,5,6,206,402.9650816481335,403.51142388578955,"[37, 0, 217]",217,a,0.023123463510273723,colour,0.5
062,68,0,2,5,7,207,404.02948879627365,405.6313853204265,"[0, 0, 254]",254,a,1.078504457938834,colour,0.5
062,68,0,2,5,8,208,406.1389629099831,407.135372613393,"[67, 0, 187]",187,a,0.47331814139397466,colour,0.5
062,68,0,2,5,9,209,407.65453359621097,410.00744604511783,"[69, 0, 185]",185,l,1.8299784251357778,colour,0.5
062,68,0,2,5,10,210,410.5138456424502,411.0394085856751,"[44, 0, 210]",210,a,0.0022279846198216546,colour,0.5
062,68,0,2,5,11,211,411.5609566667408,414.1914314161186,"[24, 0, 230]",230,a,2.1070551139673626,colour,0.5
062,68,0,2,5,12,212,414.70163634974233,415.30338675717576,"[80, 0, 174]",174,l,0.07840875345573295,colour,0.5
062,68,0,2,5,13,213,415.81093914061057,416.3834087022551,"[18, 0, 236]",236,a,0.0489294094768411,colour,0.5
062,68,0,2,5,14,214,416.90480318353,417.4314188760727,"[32, 0, 222]",222,a,0.0038073055184213445,colour,0.5
062,68,0,2,5,15,215,417.95164954357097,419.7355279461008,"[12, 0, 242]",242,a,1.2607789636022062,colour,0.5
062,68,0,2,5,16,216,420.24849767591513,420.86339740675976,"[6, 0, 248]",248,a,0.09147536928867339,colour,0.5
062,68,0,2,5,17,217,421.3735034851379,423.0233877339124,"[10, 0, 244]",244,a,1.126457524143916,colour,0.5
062,68,0,2,5,18,218,423.52971092519874,424.3915743033067,"[57, 0, 197]",197,a,0.3386087640101323,colour,0.5
062,68,0,2,5,19,219,424.9047685251171,427.06343356178695,"[22, 0, 232]",232,a,1.6356085269144387,colour,0.5
062,68,0,2,5,20,220,427.5766289651365,429.5113655966379,"[29, 0, 225]",225,a,1.411522189653624,colour,0.5
062,68,0,2,5,21,221,430.0301291892356,430.78338964012437,"[42, 0, 212]",212,a,0.23396595440863166,colour,0.5
062,68,0,2,5,22,222,431.29177540087403,432.9913665103595,"[43, 0, 211]",211,a,1.1758934190729633,colour,0.5
062,68,0,2,5,23,223,433.51348015372423,434.255335623413,"[96, 0, 158]",158,l,0.21926803005408146,colour,0.5
062,68,0,2,5,24,224,434.7645350691928,436.8793576062999,"[82, 0, 172]",172,l,1.5915348399757931,colour,0.5
062,68,0,2,5,25,225,437.3771784585333,437.9513829100906,"[14, 0, 240]",240,a,0.0510632649929903,colour,0.5
062,68,0,2,5,26,226,438.4708798432148,441.9593878221349,"[63, 0, 191]",191,l,2.9653301647158514,colour,0.5
062,68,0,2,5,27,227,442.47080264947726,443.03132687373727,"[70, 0, 184]",184,l,0.037295210127922473,colour,0.5
062,68,0,2,5,28,228,443.54901920627526,444.07936028444965,"[13, 0, 241]",241,a,0.0056764967921481,colour,0.5
062,68,0,2,5,29,229,444.5973464258095,445.2793676887486,"[89, 0, 165]",165,l,0.15723104480275651,colour,0.5
062,68,0,2,5,30,230,445.78640452827676,446.3833645915438,"[50, 0, 204]",204,a,0.07369245226072962,colour,0.5
062,68,0,2,5,31,231,446.8957817559676,447.55933284128696,"[7, 0, 247]",247,a,0.14026575126263197,colour,0.5
062,68,0,2,5,32,232,448.06767212825434,449.5913713940463,"[27, 0, 227]",227,a,1.000422596338467,colour,0.5
062,68,0,2,5,33,233,450.09886627602464,450.71132731484613,"[47, 0, 207]",207,a,0.08636837325320812,colour,0.5
062,68,0,2,5,34,234,451.22668926290135,452.9833946813487,"[28, 0, 226]",226,a,1.2341148280502239,colour,0.5
062,68,0,2,5,35,235,453.49231252751997,454.0713565539445,"[1, 0, 253]",253,a,0.055809892299294006,colour,0.5
062,68,0,2,5,36,236,454.58615254585675,455.90333020094477,"[72, 0, 182]",182,l,0.7939679393894039,colour,0.5
062,68,0,2,5,37,237,456.41461309000806,456.9513844854737,"[84, 0, 170]",170,l,0.018537525214924244,colour,0.5
062,68,0,2,5,38,238,457.4720282970193,458.8233216466215,"[97, 0, 157]",157,l,0.8282596828939859,colour,0.5
062,68,0,2,5,39,239,459.3314325031315,460.4553422400204,"[59, 0, 195]",195,a,0.6007244396168971,colour,0.5
062,68,0,2,5,40,240,460.97394593129866,461.527308073124,"[62, 0, 192]",192,a,0.03019377991586225,colour,0.5
062,68,0,2,5,41,241,462.0363610083368,463.5833432451145,"[21, 0, 233]",233,a,1.0238481394335395,colour,0.5
062,68,0,2,5,42,242,464.09886785140407,464.75135463197876,"[93, 0, 161]",161,l,0.12930502791277831,colour,0.5
062,68,0,2,5,43,243,465.2707365621827,465.7993183320141,"[95, 0, 159]",159,l,0.005477998602145817,colour,0.5
062,68,0,2,5,44,244,466.3176116729519,467.6153680132775,"[83, 0, 171]",171,l,0.7745088154479163,colour,0.5
062,68,0,2,5,45,245,468.1300647560929,468.90339479162503,"[71, 0, 183]",183,l,0.25010929215568467,colour,0.5
062,68,0,2,5,46,246,469.39900104999106,471.079318142969,"[81, 0, 173]",173,l,1.1571932356237085,colour,0.5
062,68,0,2,5,47,247,471.5863927916798,472.15135132367504,"[20, 0, 234]",234,a,0.04171730864982237,colour,0.5
062,68,0,2,5,48,248,472.6644856809544,474.5673023072268,"[46, 0, 208]",208,a,1.379463944616873,colour,0.5
062,68,0,2,5,49,249,475.08642193625565,475.8313076540726,"[64, 0, 190]",190,a,0.22166300521348603,colour,0.5
062,68,0,2,5,50,250,476.34081193635575,477.79131538920046,"[60, 0, 194]",194,a,0.9273146109626396,colour,0.5
062,68,0,2,6,1,251,485.82164662123614,489.16729813246275,"[59, 0, 195]",195,a,2.822121205201256,colour,0.5
062,68,0,2,6,2,252,489.6817837740309,490.39930628033835,"[44, 0, 210]",210,a,0.20013107181875966,colour,0.5
062,68,0,2,6,3,253,490.90203799349547,491.63929216491306,"[62, 0, 192]",192,a,0.214034609576629,colour,0.5
062,68,0,2,6,4,254,492.1396521398019,492.70330743667,"[10, 0, 244]",244,a,0.04043100888156914,colour,0.5
062,68,0,2,6,5,255,493.21772179218533,495.25529426962385,"[18, 0, 236]",236,a,1.5143363740826317,colour,0.5
062,68,0,2,6,6,256,495.7646185644626,496.32728964115086,"[45, 0, 209]",209,a,0.03941016105818562,colour,0.5
062,68,0,2,6,7,257,496.8427315398658,497.79930769818384,"[75, 0, 179]",179,l,0.4333597472468682,colour,0.5
062,68,0,2,6,8,258,498.31335498959015,498.87129519279915,"[28, 0, 226]",226,a,0.03473600135112065,colour,0.5
062,68,0,2,6,9,259,499.39148883880625,500.007284568419,"[83, 0, 171]",171,l,0.0925962538967724,colour,0.5
062,68,0,2,6,10,260,500.51652379260486,501.0632732666236,"[93, 0, 161]",161,l,0.023553542916488368,colour,0.5
062,68,0,2,6,11,261,501.5789621065378,502.16729222477807,"[37, 0, 217]",217,a,0.06514363943279022,colour,0.5
062,68,0,2,6,12,262,502.68839762337666,504.0392601058811,"[71, 0, 183]",183,l,0.8279099479914294,colour,0.5
062,68,0,2,6,13,263,504.5384535100675,505.0633083188841,"[26, 0, 228]",228,a,0.01202095573535189,colour,0.5
062,68,0,2,6,14,264,505.57491022289105,506.1113200680884,"[46, 0, 208]",208,a,0.025585786272131372,colour,0.5
062,68,0,2,6,15,265,506.62497351388083,507.15925304816847,"[24, 0, 230]",230,a,0.011051307843445102,colour,0.5
062,68,0,2,6,16,266,507.67186359078187,510.28729816397026,"[52, 0, 202]",202,a,2.0923914541817794,colour,0.5
062,68,0,2,6,17,267,510.7875915789482,511.47122997196493,"[2, 0, 252]",252,a,0.1605109910487954,colour,0.5
062,68,0,2,6,18,268,511.99069460974715,512.6233118792479,"[87, 0, 167]",167,l,0.10932839083397994,colour,0.5
062,68,0,2,6,19,269,513.1313313635801,514.263243649435,"[68, 0, 186]",186,l,0.6085722072602948,colour,0.5
062,68,0,2,6,20,270,514.7739637331179,515.3116460934834,"[34, 0, 220]",220,a,0.014472644666966517,colour,0.5
062,68,0,2,6,21,271,515.8208018223995,516.5352763575247,"[90, 0, 164]",164,l,0.19127466556528816,colour,0.5
062,68,0,2,6,22,272,517.0551423239885,517.7352199588349,"[95, 0, 159]",159,l,0.15712628186884103,colour,0.5
062,68,0,2,6,23,273,518.2427195669588,518.8152982238353,"[57, 0, 197]",197,a,0.04936736579838907,colour,0.5
062,68,0,2,6,24,274,519.322757265858,520.2792365381574,"[76, 0, 178]",178,a,0.43331484884402016,colour,0.5
062,68,0,2,6,25,275,520.7914949828009,522.5352369729626,"[20, 0, 234]",234,a,1.2205850497775828,colour,0.5
062,68,0,2,6,26,276,523.041473518213,523.615264431879,"[89, 0, 165]",165,l,0.05060089024846093,colour,0.5
062,68,0,2,6,27,277,524.1351831736538,524.7352424080345,"[16, 0, 238]",238,a,0.07684991252608597,colour,0.5
062,68,0,2,6,28,278,525.2444895091321,526.6792324421658,"[99, 0, 155]",155,a,0.9232650903941249,colour,0.5
062,68,0,2,6,29,279,527.1864366660811,528.0632260051534,"[65, 0, 189]",189,l,0.35359340797003824,colour,0.5
062,68,0,2,6,30,280,528.5772437581363,529.5912433942249,"[78, 0, 176]",176,l,0.49093485557386884,colour,0.5
062,68,0,2,6,31,281,530.110227146517,531.5672255073296,"[58, 0, 196]",196,a,0.9337500482433825,colour,0.5
062,68,0,2,6,32,282,532.078949109633,533.9673265681158,"[92, 0, 162]",162,l,1.3651405674390844,colour,0.5
062,68,0,2,6,33,283,534.4852638726188,536.0392329305323,"[49, 0, 205]",205,a,1.03073610532374,colour,0.5
062,68,0,2,6,34,284,536.5477084880804,537.1992823345281,"[7, 0, 247]",247,a,0.1282782724047138,colour,0.5
062,68,0,2,6,35,285,537.7195606573441,538.7112343672816,"[98, 0, 156]",156,l,0.46848447421143646,colour,0.5
062,68,0,2,6,36,286,539.2195740480929,542.7592425718722,"[3, 0, 251]",251,a,3.016620284779492,colour,0.5
062,68,0,2,6,37,287,543.2663503036129,543.847187902953,"[23, 0, 231]",231,a,0.05752824070077622,colour,0.5
062,68,0,2,6,38,288,544.3601816573464,544.9432559059096,"[50, 0, 204]",204,a,0.05984799134603236,colour,0.5
062,68,0,2,6,39,289,545.4539787465146,547.5592316229668,"[47, 0, 207]",207,a,1.5821554067515535,colour,0.5
062,68,0,2,6,40,290,548.0789967649507,548.6072378583303,"[6, 0, 248]",248,a,0.005001839261240093,colour,0.5
062,68,0,2,6,41,291,549.1265264471258,549.6792867928598,"[25, 0, 229]",229,a,0.029532906984968577,colour,0.5
062,68,0,2,6,42,292,550.1908934230123,550.9032368595363,"[51, 0, 203]",203,a,0.18914593003864866,colour,0.5
062,68,0,2,6,43,293,551.4096947460203,552.7671903763039,"[27, 0, 227]",227,a,0.8342886715036002,colour,0.5
062,68,0,2,6,44,294,553.2846956321737,555.1833170149948,"[82, 0, 172]",172,l,1.3754530209116638,colour,0.5
062,68,0,2,6,45,295,555.6909036629986,557.0072506976976,"[54, 0, 200]",200,a,0.79312274671247,colour,0.5
062,68,0,2,6,46,296,557.5189695738482,560.5592450137156,"[15, 0, 239]",239,a,2.517012161162711,colour,0.5
062,68,0,2,6,47,297,561.0659147891383,561.7431941509203,"[40, 0, 214]",214,a,0.1540416830466711,colour,0.5
062,68,0,2,6,48,298,562.2533203154235,563.6071606645892,"[4, 0, 250]",250,a,0.8306688364937145,colour,0.5
062,68,0,2,6,49,299,564.1284066660701,564.6871810342855,"[74, 0, 180]",180,l,0.03562215397323598,colour,0.5
062,68,0,2,6,50,300,565.2065125522531,565.74331072922,"[39, 0, 215]",215,a,0.013519144442398101,colour,0.5
062,68,0,2,7,1,301,576.3859186803311,578.1911931395225,"[55, 0, 199]",199,a,1.2814361658965936,colour,0.5
062,68,0,2,7,2,302,578.6992421622745,579.9671587898847,"[4, 0, 250]",250,a,0.7445954536051431,colour,0.5
062,68,0,2,7,3,303,580.4805396945158,582.3114385368463,"[53, 0, 201]",201,a,1.307685975865752,colour,0.5
062,68,0,2,7,4,304,582.8242633314767,585.2231233847378,"[46, 0, 208]",208,a,1.8759906201703416,colour,0.5
062,68,0,2,7,5,305,585.7305083837891,587.3351783687358,"[36, 0, 218]",218,a,1.0900370451163326,colour,0.5
062,68,0,2,7,6,306,587.8469933432207,590.4711665628201,"[2, 0, 252]",252,a,2.100911516281485,colour,0.5
062,68,0,2,7,7,307,590.9895394605737,592.6953836568246,"[26, 0, 228]",228,a,1.1827037973816914,colour,0.5
062,68,0,2,7,8,308,593.2082301129631,594.2071501882965,"[35, 0, 219]",219,a,0.47554061217670096,colour,0.5
062,68,0,2,7,9,309,594.7238346699123,595.3911658854086,"[96, 0, 158]",158,l,0.14405848450041958,colour,0.5
062,68,0,2,7,10,310,595.911591900327,598.7991596122338,"[49, 0, 205]",205,a,2.364318217802065,colour,0.5
062,68,0,2,7,11,311,599.3178302572669,599.935126538654,"[34, 0, 220]",220,a,0.09408065800380427,colour,0.5
062,68,0,2,7,12,312,600.4427773834941,601.135172145976,"[95, 0, 159]",159,l,0.16898576090534334,colour,0.5
062,68,0,2,7,13,313,601.6497751535389,602.3911910915267,"[75, 0, 179]",179,l,0.21817707771333517,colour,0.5
062,68,0,2,7,14,314,602.8997253320704,603.8631437701879,"[56, 0, 198]",198,a,0.4401969070531777,colour,0.5
062,68,0,2,7,15,315,604.3841412550901,605.1591829436475,"[65, 0, 189]",189,a,0.25178983137811883,colour,0.5
062,68,0,2,7,16,316,605.665387193556,606.2231371693342,"[11, 0, 243]",243,a,0.03452608163570403,colour,0.5
062,68,0,2,7,17,317,606.7435308889144,609.2791384706034,"[15, 0, 239]",239,a,2.012766505478794,colour,0.5
062,68,0,2,7,18,318,609.7903366828577,610.351089731419,"[76, 0, 178]",178,l,0.037897400066867704,colour,0.5
062,68,0,2,7,19,319,610.8684067290887,611.6151206782306,"[41, 0, 213]",213,a,0.2233506336560822,colour,0.5
062,68,0,2,7,20,320,612.1340126644973,612.9271172943118,"[87, 0, 167]",167,l,0.2697921204089653,colour,0.5
062,68,0,2,7,21,321,613.446615802819,615.2391631410901,"[16, 0, 238]",238,a,1.269412453239056,colour,0.5
062,68,0,2,7,22,322,615.7606552960788,617.0711214281146,"[33, 0, 221]",221,a,0.7871744964504614,colour,0.5
062,68,0,2,7,23,323,617.5888373913876,620.1431451565259,"[24, 0, 230]",230,a,2.0311760308723024,colour,0.5
062,68,0,2,7,24,324,620.6513379329226,621.8951433322327,"[89, 0, 165]",165,l,0.7205484221376537,colour,0.5
062,68,0,2,7,25,325,622.4013172560299,623.5192015489156,"[78, 0, 176]",176,l,0.5954228838490963,colour,0.5
062,68,0,2,7,26,326,624.0263782036382,625.1831126091238,"[63, 0, 191]",191,a,0.633565255884605,colour,0.5
062,68,0,2,7,27,327,625.7001409179575,626.8311095497302,"[59, 0, 195]",195,a,0.607822719062824,colour,0.5
062,68,0,2,7,28,328,627.3406524288839,629.1190926112176,"[39, 0, 215]",215,a,1.255283635793603,colour,0.5
062,68,0,2,7,29,329,629.6375856318809,630.9591570286066,"[85, 0, 169]",169,l,0.7984506901339046,colour,0.5
062,68,0,2,7,30,330,631.4656397273611,632.1431900549251,"[81, 0, 173]",173,l,0.15433352264153655,colour,0.5
062,68,0,2,7,31,331,632.6531334750653,633.2470932224678,"[14, 0, 240]",240,a,0.0707965054862143,colour,0.5
062,68,0,2,7,32,332,633.7624650166617,634.391127288538,"[30, 0, 224]",224,a,0.10543010697801947,colour,0.5
062,68,0,2,7,33,333,634.9031013766471,635.9590853487061,"[77, 0, 177]",177,l,0.5327667732926784,colour,0.5
062,68,0,2,7,34,334,636.4656558750321,637.5110867539479,"[79, 0, 175]",175,l,0.5222042278546724,colour,0.5
062,68,0,2,7,35,335,638.029061473786,639.0870721753563,"[74, 0, 180]",180,l,0.534749785943859,colour,0.5
062,68,0,2,7,36,336,639.6071689353485,640.2150964173416,"[17, 0, 237]",237,a,0.0846153664351732,colour,0.5
062,68,0,2,7,37,337,640.7322117660588,641.8390766525954,"[43, 0, 211]",211,a,0.5836579277602141,colour,0.5
062,68,0,2,7,38,338,642.3572057599122,643.2310900937591,"[9, 0, 245]",245,a,0.35061317823419813,colour,0.5
062,68,0,2,7,39,339,643.7506264114418,644.7190955256774,"[1, 0, 253]",253,a,0.4452798785059713,colour,0.5
062,68,0,2,7,40,340,645.2349415099852,645.9830610941171,"[54, 0, 200]",200,a,0.22509536971483612,colour,0.5
062,68,0,2,7,41,341,646.5005592607667,647.0950361274554,"[58, 0, 196]",196,a,0.07122540335694794,colour,0.5
062,68,0,2,7,42,342,647.5989316543928,648.5270670396094,"[64, 0, 190]",190,a,0.40486226037319284,colour,0.5
062,68,0,2,7,43,343,649.02719976558,649.9830614879647,"[70, 0, 184]",184,a,0.4335487931421085,colour,0.5
062,68,0,2,7,44,344,650.4824868672149,651.3431486223672,"[67, 0, 187]",187,a,0.33732955346567906,colour,0.5
062,68,0,2,7,45,345,651.8594613137248,652.4390464840217,"[18, 0, 236]",236,a,0.05629865470473305,colour,0.5
062,68,0,2,7,46,346,652.9532131106462,653.4791222441636,"[66, 0, 188]",188,a,0.0027198977913940325,colour,0.5
062,68,0,2,7,47,347,654.0001220921367,654.5430993128939,"[27, 0, 227]",227,a,0.020121966106671607,colour,0.5
062,68,0,2,7,48,348,655.0571615704357,656.6390806698182,"[60, 0, 194]",194,a,1.0586995375451806,colour,0.5
062,68,0,2,7,49,349,657.1508609858902,658.9111043194607,"[37, 0, 217]",217,a,1.2359655085747363,colour,0.5
062,68,0,2,7,50,350,659.4176019843508,660.1433078147602,"[7, 0, 247]",247,a,0.20179191876013647,colour,0.5
062,68,0,2,8,1,351,687.9681205608649,689.3349932613019,"[11, 0, 243]",243,a,0.8428036136137962,colour,0.5
062,68,0,2,8,2,352,689.8439579750957,690.4870735932018,"[99, 0, 155]",155,l,0.11993425929176738,colour,0.5
062,68,0,2,8,3,353,690.9918166758944,691.606985403294,"[69, 0, 185]",185,a,0.09200706086630817,colour,0.5
062,68,0,2,8,4,354,692.1168177589716,692.9669740762911,"[77, 0, 177]",177,a,0.3268512909853598,colour,0.5
062,68,0,2,8,5,355,693.4761573744036,694.0230730512703,"[22, 0, 232]",232,a,0.023629161274584476,colour,0.5
062,68,0,2,8,6,356,694.540683070074,695.8869993926892,"[76, 0, 178]",178,l,0.8231286622722109,colour,0.5
062,68,0,2,8,7,357,696.4000313501092,698.1589927162167,"[83, 0, 171]",171,l,1.2357721303815197,colour,0.5
062,68,0,2,8,8,358,698.6655596979363,699.2391627472462,"[79, 0, 175]",175,l,0.05092817595141241,colour,0.5
062,68,0,2,8,9,359,699.7593248856065,700.2870122320564,"[80, 0, 174]",174,l,0.004378381658170838,colour,0.5
062,68,0,2,8,10,360,700.8061838487047,701.3750249107325,"[13, 0, 241]",241,a,0.04562819556304021,colour,0.5
062,68,0,2,8,11,361,701.8843425101986,702.7989882893926,"[74, 0, 180]",180,l,0.39015212680533295,colour,0.5
062,68,0,2,8,12,362,703.3074713300084,705.943103093814,"[38, 0, 216]",216,a,2.1123483989795204,colour,0.5
062,68,0,2,8,13,363,706.4646425102765,707.0150015793188,"[66, 0, 188]",188,a,0.027053255016653566,colour,0.5
062,68,0,2,8,14,364,707.527269870101,708.127012846453,"[19, 0, 235]",235,a,0.07741468712993083,colour,0.5
062,68,0,2,8,15,365,708.6272054369583,709.3189960402742,"[84, 0, 170]",170,l,0.16862381678947713,colour,0.5
062,68,0,2,8,16,366,709.8302505724532,710.4470064976631,"[37, 0, 217]",217,a,0.09353636337255011,colour,0.5
062,68,0,2,8,17,367,710.9551945479143,711.5029802297358,"[48, 0, 206]",206,a,0.02464725217942032,colour,0.5
062,68,0,2,8,18,368,712.0176777602464,713.0230183067288,"[75, 0, 179]",179,l,0.4828224236771348,colour,0.5
062,68,0,2,8,19,369,713.5333240648324,715.1830066646544,"[85, 0, 169]",169,l,1.126397265765263,colour,0.5
062,68,0,2,8,20,370,715.6896236647626,716.2949943010535,"[16, 0, 238]",238,a,0.08220936360157793,colour,0.5
062,68,0,2,8,21,371,716.8146420770463,718.4311041934307,"[64, 0, 190]",190,a,1.0931775700191793,colour,0.5
062,68,0,2,8,22,372,718.9272204818626,720.623000741216,"[45, 0, 209]",209,a,1.1727095711576112,colour,0.5
062,68,0,2,8,23,373,721.130216386653,721.7189687073878,"[96, 0, 158]",158,l,0.06417477922877879,colour,0.5
062,68,0,2,8,24,374,722.2253104094161,722.7829729514706,"[92, 0, 162]",162,l,0.0349927886891237,colour,0.5
062,68,0,2,8,25,375,723.3034009356197,724.0789770726697,"[59, 0, 195]",195,a,0.252345941382373,colour,0.5
062,68,0,2,8,26,376,724.6003534370502,726.1590163469555,"[88, 0, 166]",166,l,1.0354366526917147,colour,0.5
062,68,0,2,8,27,377,726.6784254525082,728.2710256448627,"[54, 0, 200]",200,a,1.0693530613243638,colour,0.5
062,68,0,2,8,28,378,728.7877948032838,729.3830050105025,"[6, 0, 248]",248,a,0.072171026669821,colour,0.5
062,68,0,2,8,29,379,729.8971062587552,731.8549935291157,"[70, 0, 184]",184,l,1.4346590439163265,colour,0.5
062,68,0,2,8,30,380,732.3658542156809,733.1749533096008,"[86, 0, 168]",168,l,0.2858086398700834,colour,0.5
062,68,0,2,8,31,381,733.6939681756994,735.6629402307772,"[7, 0, 247]",247,a,1.44577848705012,colour,0.5
062,68,0,2,8,32,382,736.1784841355038,737.2069150624666,"[73, 0, 181]",181,l,0.5052964357746532,colour,0.5
062,68,0,2,8,33,383,737.7252375479802,739.8149945688674,"[42, 0, 212]",212,a,1.5665067390909826,colour,0.5
062,68,0,2,8,34,384,740.3345836618646,741.0149499855434,"[46, 0, 208]",208,a,0.15709950036762166,colour,0.5
062,68,0,2,8,35,385,741.5220746526466,742.1749950572375,"[27, 0, 227]",227,l,0.12977843033877434,colour,0.5
062,68,0,2,8,36,386,742.6939646310857,743.750929672562,"[10, 0, 244]",244,a,0.5337793503567809,colour,0.5
062,68,0,2,8,37,387,744.2723320307523,744.9109199997147,"[98, 0, 156]",156,l,0.11533493024398922,colour,0.5
062,68,0,2,8,38,388,745.4289258333556,746.1589564824208,"[72, 0, 182]",182,l,0.2191435748427466,colour,0.5
062,68,0,2,8,39,389,746.6665458873431,747.3189483849565,"[47, 0, 207]",207,a,0.12910652972277603,colour,0.5
062,68,0,2,8,40,390,747.8384181427318,749.318914908079,"[39, 0, 215]",215,a,0.9574855478349491,colour,0.5
062,68,0,2,8,41,391,749.8384161735048,750.3909413934089,"[2, 0, 252]",252,a,0.029759368208033266,colour,0.5
062,68,0,2,8,42,392,750.9009151396604,751.4309399598096,"[29, 0, 225]",225,a,0.01765609873837093,colour,0.5
062,68,0,2,8,43,393,751.9510107259885,753.8549246061339,"[68, 0, 186]",186,a,1.3900174316077027,colour,0.5
062,68,0,2,8,44,394,754.3635466742489,756.3030039392434,"[25, 0, 229]",229,a,1.4161959555203794,colour,0.5
062,68,0,2,8,45,395,756.8167294587838,757.9509473168473,"[15, 0, 239]",239,a,0.6110739145806292,colour,0.5
062,68,0,2,8,46,396,758.4573516403252,759.9430440169708,"[36, 0, 218]",218,a,0.9624984147703799,colour,0.5
062,68,0,2,8,47,397,760.4572878373365,761.0469708152523,"[89, 0, 165]",165,l,0.0664271822788578,colour,0.5
062,68,0,2,8,48,398,761.5684161026111,762.2869098321971,"[8, 0, 246]",246,a,0.19518988478375832,colour,0.5
062,68,0,2,8,49,399,762.8074087085552,763.4229539523585,"[34, 0, 220]",220,a,0.09225518360108254,colour,0.5
062,68,0,2,8,50,400,763.93239640088,764.6149044569902,"[20, 0, 234]",234,a,0.15960002614883706,colour,0.5
062,68,0,2,9,1,401,772.2193511314763,773.3109127529569,"[12, 0, 242]",242,a,0.5676516482853913,colour,0.5
062,68,0,2,9,2,402,773.8297350285502,774.4549086160005,"[18, 0, 236]",236,a,0.10187565033629653,colour,0.5
062,68,0,2,9,3,403,774.972696259174,775.7268964256909,"[66, 0, 188]",188,l,0.23096878931028186,colour,0.5
062,68,0,2,9,4,404,776.2402336134619,777.9348922005156,"[59, 0, 195]",195,a,1.171423271389358,colour,0.5
062,68,0,2,9,5,405,778.4433449150201,780.2628612253466,"[0, 0, 254]",254,a,1.2963069884754077,colour,0.5
062,68,0,2,9,6,406,780.7713635643959,781.3508719347956,"[84, 0, 170]",170,l,0.05643650066485861,colour,0.5
062,68,0,2,9,7,407,781.8651602597165,783.430879701431,"[83, 0, 171]",171,l,1.0424687660743075,colour,0.5
062,68,0,2,9,8,408,783.9464909537601,784.470882600137,"[13, 0, 241]",241,a,0.001298902825510595,colour,0.5
062,68,0,2,9,9,409,784.9932869015611,785.622892433672,"[68, 0, 186]",186,a,0.10630917037997278,colour,0.5
062,68,0,2,9,10,410,786.1339870645352,787.142879310737,"[41, 0, 213]",213,a,0.48570576739439275,colour,0.5
062,68,0,2,9,11,411,787.6371811524368,788.3668853034906,"[90, 0, 164]",164,l,0.20658265677047893,colour,0.5
062,68,0,2,9,12,412,788.8872101000889,789.4948870962762,"[39, 0, 215]",215,a,0.0845862218629918,colour,0.5
062,68,0,2,9,13,413,790.0137779010074,790.6948582667792,"[89, 0, 165]",165,l,0.15778479173241067,colour,0.5
062,68,0,2,9,14,414,791.2012129657123,792.5909031116134,"[98, 0, 156]",156,l,0.8664501040912,colour,0.5
062,68,0,2,9,15,415,793.1074788918413,794.6709018198017,"[82, 0, 172]",172,l,1.0391029614838772,colour,0.5
062,68,0,2,9,16,416,795.187279889531,795.7268408934615,"[48, 0, 206]",206,a,0.016495041876623873,colour,0.5
062,68,0,2,9,17,417,796.2341762679644,796.9508713046453,"[73, 0, 181]",181,a,0.19438092590280576,colour,0.5
062,68,0,2,9,18,418,797.4684498157985,798.9588293490597,"[31, 0, 223]",223,a,0.9670961684350914,colour,0.5
062,68,0,2,9,19,419,799.4684903818961,800.198877855084,"[97, 0, 157]",157,l,0.2072132035937102,colour,0.5
062,68,0,2,9,20,420,800.7200104290314,802.1428328369548,"[86, 0, 168]",168,l,0.8995929999437067,colour,0.5
062,68,0,2,9,21,421,802.6605491940718,803.3428760812021,"[25, 0, 229]",229,a,0.15908605762888328,colour,0.5
062,68,0,2,9,22,422,803.8636447418066,804.422866518631,"[9, 0, 245]",245,a,0.035913599724153755,colour,0.5
062,68,0,2,9,23,423,804.9418175817409,805.5188403924876,"[21, 0, 233]",233,a,0.05384539039005176,colour,0.5
062,68,0,2,9,24,424,806.0355103018192,806.6468126468535,"[1, 0, 253]",253,a,0.08811074623372406,colour,0.5
062,68,0,2,9,25,425,807.1633998486031,807.926817183954,"[63, 0, 191]",191,a,0.24129187661674223,colour,0.5
062,68,0,2,9,26,426,808.4396526124146,809.1829200186185,"[75, 0, 179]",179,a,0.21997458907935652,colour,0.5
062,68,0,2,9,27,427,809.6897162184832,811.7429180651452,"[11, 0, 243]",243,a,1.5300275770678127,colour,0.5
062,68,0,2,9,28,428,812.2521836769884,814.5988737590887,"[24, 0, 230]",230,a,1.8234917879235581,colour,0.5
062,68,0,2,9,29,429,815.1115677969756,815.7588629047059,"[69, 0, 185]",185,l,0.12403182902926346,colour,0.5
062,68,0,2,9,30,430,816.2677579078263,816.9428187372832,"[35, 0, 219]",219,a,0.1517845538473921,colour,0.5
062,68,0,2,9,31,431,817.4553985599414,818.1508672874188,"[22, 0, 232]",232,a,0.17253588524181396,colour,0.5
062,68,0,2,9,32,432,818.6584543292665,819.3988190933196,"[60, 0, 194]",194,a,0.21712826685325126,colour,0.5
062,68,0,2,9,33,433,819.9084446800516,821.9668752210455,"[64, 0, 190]",190,a,1.5355036064465821,colour,0.5
062,68,0,2,9,34,434,822.4873575558886,823.4948091148472,"[43, 0, 211]",211,a,0.4851012143844855,colour,0.5
062,68,0,2,9,35,435,824.0021314924452,827.7269015456841,"[62, 0, 192]",192,a,3.201580423665291,colour,0.5
062,68,0,2,9,36,436,828.2365137416673,830.198841621288,"[81, 0, 173]",173,l,1.4401685501688917,colour,0.5
062,68,0,2,9,37,437,830.6928118449832,831.894822741906,"[34, 0, 220]",220,a,0.6787523443672399,colour,0.5
062,68,0,2,9,38,438,832.4115162819689,833.5028494729922,"[93, 0, 161]",161,l,0.5680159554722195,colour,0.5
062,68,0,2,9,39,439,834.020938801903,835.0148310441691,"[36, 0, 218]",218,a,0.4708353386631643,colour,0.5
062,68,0,2,9,40,440,835.5226803871956,836.5269039875275,"[33, 0, 221]",221,a,0.48098277083045105,colour,0.5
062,68,0,2,9,41,441,837.0383448086795,838.0228524977283,"[6, 0, 248]",248,a,0.46147087157442,colour,0.5
062,68,0,2,9,42,442,838.5383436271441,839.4708168279176,"[49, 0, 205]",205,a,0.4094029064217466,colour,0.5
062,68,0,2,9,43,443,839.9913936857083,840.9589179643226,"[58, 0, 196]",196,a,0.44458237793151056,colour,0.5
062,68,0,2,9,44,444,841.4757997625893,842.46299820485,"[4, 0, 250]",250,a,0.463903262065287,colour,0.5
062,68,0,2,9,45,445,842.9758170917958,843.9427844727143,"[71, 0, 183]",183,l,0.44363596692710416,colour,0.5
062,68,0,2,9,46,446,844.4602117471513,845.5588015435569,"[14, 0, 240]",240,a,0.5754746036509459,colour,0.5
062,68,0,2,9,47,447,846.069529897999,847.1107639580841,"[72, 0, 182]",182,l,0.5179396675775934,colour,0.5
062,68,0,2,9,48,448,847.6321064517397,848.6148552262894,"[74, 0, 180]",180,l,0.45954890498978784,colour,0.5
062,68,0,2,9,49,449,849.1320914856078,850.1267733883251,"[94, 0, 160]",160,l,0.47162696834493545,colour,0.5
062,68,0,2,9,50,450,850.6476692610559,851.6308433888662,"[37, 0, 217]",217,a,0.4599183321734017,colour,0.5
062,68,0,2,10,1,451,856.9749246376414,858.9428778141228,"[58, 0, 196]",196,a,1.4438222559001588,colour,0.5
062,68,0,2,10,2,452,859.4601392795594,861.6068109296866,"[75, 0, 179]",179,l,1.6234686298012093,colour,0.5
062,68,0,2,10,3,453,862.1163691688198,863.102798036758,"[69, 0, 185]",185,l,0.4631900076637976,colour,0.5
062,68,0,2,10,4,454,863.6118434889031,865.7907580976607,"[70, 0, 184]",184,l,1.6539101386078983,colour,0.5
062,68,0,2,10,5,455,866.2938852318111,867.3747992371973,"[98, 0, 156]",156,l,0.5577661234456173,colour,0.5
062,68,0,2,10,6,456,867.875188356662,869.0547650198932,"[16, 0, 238]",238,a,0.6563102337640885,colour,0.5
062,68,0,2,10,7,457,869.5626513844036,870.6387892240673,"[37, 0, 217]",217,a,0.5528914963215357,colour,0.5
062,68,0,2,10,8,458,871.1576477334565,872.1747331499064,"[94, 0, 160]",160,l,0.4938170177556458,colour,0.5
062,68,0,2,10,9,459,872.6888643304264,873.8707280551171,"[11, 0, 243]",243,a,0.6586429813141876,colour,0.5
062,68,0,2,10,10,460,874.3920134411601,875.4148427020009,"[76, 0, 178]",178,l,0.4995175391268276,colour,0.5
062,68,0,2,10,11,461,875.9232891149732,877.3107619100883,"[23, 0, 231]",231,a,0.8642311779221927,colour,0.5
062,68,0,2,10,12,462,877.8295168380791,879.1267670867928,"[5, 0, 249]",249,a,0.7746088522289938,colour,0.5
062,68,0,2,10,13,463,879.6420238780702,880.3667604544316,"[32, 0, 222]",222,a,0.20150441146324738,colour,0.5
062,68,0,2,10,14,464,880.8764309395629,882.3907551044358,"[67, 0, 187]",187,a,0.9910309539045556,colour,0.5
062,68,0,2,10,15,465,882.9076550196005,885.6787625843499,"[21, 0, 233]",233,l,2.247873036776582,colour,0.5
062,68,0,2,10,16,466,886.1889289211067,890.814816156806,"[31, 0, 223]",223,l,4.103122959386383,colour,0.5
062,68,0,2,10,17,467,891.3322520958463,892.2787312342407,"[84, 0, 170]",170,l,0.42166686490236316,colour,0.5
062,68,0,2,10,18,468,892.7869665459657,894.1027200553253,"[54, 0, 200]",200,a,0.7925737259283778,colour,0.5
062,68,0,2,10,19,469,894.6151462781963,895.6867363825913,"[83, 0, 171]",171,l,0.5512271047700779,colour,0.5
062,68,0,2,10,20,470,896.2059875560517,896.8307413040857,"[93, 0, 161]",161,l,0.101529460047459,colour,0.5
062,68,0,2,10,21,471,897.3465947714612,898.2227169360704,"[43, 0, 211]",211,a,0.3528880304802442,colour,0.5
062,68,0,2,10,22,472,898.737217543774,899.6307468966916,"[30, 0, 224]",224,a,0.37034523718466517,colour,0.5
062,68,0,2,10,23,473,900.1434755929913,900.9667094120414,"[36, 0, 218]",218,a,0.30006388175752363,colour,0.5
062,68,0,2,10,24,474,901.4870854085711,902.5107397759639,"[71, 0, 183]",183,l,0.5003576118142519,colour,0.5
062,68,0,2,10,25,475,903.0185237406185,903.9987007033269,"[17, 0, 237]",237,a,0.45697276084683836,colour,0.5
062,68,0,2,10,26,476,904.5184859314395,905.110686764343,"[14, 0, 240]",240,a,0.06816364757469273,colour,0.5
062,68,0,2,10,27,477,905.6297630703557,906.6787003567442,"[63, 0, 191]",191,a,0.5256425000370655,colour,0.5
062,68,0,2,10,28,478,907.1923065410665,908.1266859545976,"[4, 0, 250]",250,a,0.41124807310916367,colour,0.5
062,68,0,2,10,29,479,908.6361347046513,909.4867218890722,"[45, 0, 209]",209,a,0.3273656533565372,colour,0.5
062,68,0,2,10,30,480,909.9955566338176,910.8706937905517,"[33, 0, 221]",221,a,0.3520782839077583,colour,0.5
062,68,0,2,10,31,481,911.3861041816162,912.2787186311798,"[26, 0, 228]",228,a,0.36942403230204945,colour,0.5
062,68,0,2,10,32,482,912.780207761436,913.6707182877471,"[27, 0, 227]",227,a,0.3659995447160327,colour,0.5
062,68,0,2,10,33,483,914.187623322905,915.1027712552568,"[42, 0, 212]",212,a,0.39093981802943745,colour,0.5
062,68,0,2,10,34,484,915.6111302345016,916.5587330144226,"[19, 0, 235]",235,a,0.42343011170305545,colour,0.5
062,68,0,2,10,35,485,917.0652838484675,918.0147184043235,"[74, 0, 180]",180,l,0.42627367701061303,colour,0.5
062,68,0,2,10,36,486,918.5339731223976,919.5667162649552,"[66, 0, 188]",188,l,0.5095432729976892,colour,0.5
062,68,0,2,10,37,487,920.0809372422773,921.2386889509762,"[8, 0, 246]",246,a,0.6345502637595928,colour,0.5
062,68,0,2,10,38,488,921.7527220639386,923.4066794640203,"[56, 0, 198]",198,a,1.1307457151560811,colour,0.5
062,68,0,2,10,39,489,923.9246443377197,924.4547057855125,"[10, 0, 244]",244,a,0.0069293196793296374,colour,0.5
062,68,0,2,10,40,490,924.9714981808247,926.0226945656395,"[7, 0, 247]",247,a,0.5281906811433146,colour,0.5
062,68,0,2,10,41,491,926.5339605193403,927.286725906295,"[51, 0, 203]",203,a,0.22954464358190307,colour,0.5
062,68,0,2,10,42,492,927.7871902502702,928.6066852929362,"[52, 0, 202]",202,a,0.2964609821065096,colour,0.5
062,68,0,2,10,43,493,929.1152411949879,930.7746903782718,"[3, 0, 251]",251,a,1.1361071354585874,colour,0.5
062,68,0,2,10,44,494,931.2750290854965,932.0226567564605,"[73, 0, 181]",181,l,0.22434942612744635,colour,0.5
062,68,0,2,10,45,495,932.5406708608571,933.1106958227938,"[80, 0, 174]",174,l,0.046744354025577195,colour,0.5
062,68,0,2,10,46,496,933.6188366115712,934.1427639139729,"[90, 0, 164]",164,l,0.0006872605918033514,colour,0.5
062,68,0,2,10,47,497,934.6656810023815,935.798672425215,"[13, 0, 241]",241,a,0.6097245995188132,colour,0.5
062,68,0,2,10,48,498,936.2938639641507,939.5826764644953,"[60, 0, 194]",194,l,2.765686279915826,colour,0.5
062,68,0,2,10,49,499,940.0906691673226,949.0786631777191,"[68, 0, 186]",186,a,8.465059198933886,colour,0.5
062,68,0,2,10,50,500,949.592747490613,950.5746384694212,"[57, 0, 197]",197,a,0.45853120793253765,colour,0.5
062,68,0,2,11,1,501,960.5919121440711,962.4146048192524,"[95, 0, 159]",159,l,1.2984743208726286,colour,0.5
062,68,0,2,11,2,502,962.9210142627235,964.2226381669461,"[20, 0, 234]",234,a,0.7784559361571155,colour,0.5
062,68,0,2,11,3,503,964.7334358382177,965.5826804029493,"[91, 0, 163]",163,l,0.326535032960237,colour,0.5
062,68,0,2,11,4,504,966.092912118078,966.6306519799,"[53, 0, 201]",201,a,0.014517543066176586,colour,0.5
062,68,0,2,11,5,505,967.1397698996407,968.0226512426198,"[83, 0, 171]",171,l,0.35967674727362464,colour,0.5
062,68,0,2,11,6,506,968.5302969674667,970.0066717446498,"[1, 0, 253]",253,a,0.9533698612031003,colour,0.5
062,68,0,2,11,7,507,970.514677444382,971.4305918002901,"[25, 0, 229]",229,a,0.3925849111437856,colour,0.5
062,68,0,2,11,8,508,971.9521973828159,972.8306192119453,"[35, 0, 219]",219,a,0.3551589442722616,colour,0.5
062,68,0,2,11,9,509,973.3428028259186,974.2546085844151,"[47, 0, 207]",207,a,0.3885314521176042,colour,0.5
062,68,0,2,11,10,510,974.7647091489525,975.7026162376242,"[13, 0, 241]",241,a,0.41462648076048936,colour,0.5
062,68,0,2,11,11,511,976.2177765367269,977.1186373256933,"[79, 0, 175]",175,l,0.3775321318935312,colour,0.5
062,68,0,2,11,12,512,977.6397509950511,978.7746186983713,"[44, 0, 210]",210,a,0.6116579876215837,colour,0.5
062,68,0,2,11,13,513,979.2959533151152,980.2546326089978,"[65, 0, 189]",189,a,0.43544476590977865,colour,0.5
062,68,0,2,11,14,514,980.7666571093469,981.6865934166344,"[50, 0, 204]",204,a,0.39680181610310683,colour,0.5
062,68,0,2,11,15,515,982.204077798684,983.4865899507931,"[99, 0, 155]",155,l,0.7594221654762805,colour,0.5
062,68,0,2,11,16,516,984.0009176602725,985.9986073619184,"[33, 0, 221]",221,a,1.4744311490903783,colour,0.5
062,68,0,2,11,17,517,986.5165151280016,987.5025765379869,"[85, 0, 169]",169,l,0.4659678007592447,colour,0.5
062,68,0,2,11,18,518,988.0136947995816,989.2065940782923,"[69, 0, 185]",185,l,0.6704882819103659,colour,0.5
062,68,0,2,11,19,519,989.716794679618,990.6545867653695,"[0, 0, 254]",254,a,0.41491004960334976,colour,0.5
062,68,0,2,11,20,520,991.1698872735069,992.1826246344099,"[28, 0, 226]",226,a,0.4895126790688664,colour,0.5
062,68,0,2,11,21,521,992.6917587018215,994.9505975819447,"[73, 0, 181]",181,l,1.7358186041637964,colour,0.5
062,68,0,2,11,22,522,995.4573965387244,996.502580082597,"[98, 0, 156]",156,l,0.5218856067549495,colour,0.5
062,68,0,2,11,23,523,997.0205843408548,998.3826166787294,"[60, 0, 194]",194,a,0.8389742527360795,colour,0.5
062,68,0,2,11,24,524,998.8832184748244,999.5185887251428,"[84, 0, 170]",170,l,0.11214399310483714,colour,0.5
062,68,0,2,11,25,525,1000.0393270596323,1001.1506034108606,"[4, 0, 250]",250,a,0.5880284325030516,colour,0.5
062,68,0,2,11,26,526,1001.6641749367664,1002.6866654903788,"[26, 0, 228]",228,a,0.49912014890287537,colour,0.5
062,68,0,2,11,27,527,1003.1955888503871,1004.2065972290584,"[48, 0, 206]",206,a,0.48786955518153263,colour,0.5
062,68,0,2,11,28,528,1004.7268625549696,1005.7665854294428,"[62, 0, 192]",192,a,0.5165426971943816,colour,0.5
062,68,0,2,11,29,529,1006.2738093456392,1007.3985540352223,"[41, 0, 213]",213,a,0.6019453610097116,colour,0.5
062,68,0,2,11,30,530,1007.9144063210624,1008.9905780314475,"[29, 0, 225]",225,a,0.5529753854352748,colour,0.5
062,68,0,2,11,31,531,1009.5081585118278,1010.6546025191928,"[55, 0, 199]",199,a,0.62324531934064,colour,0.5
062,68,0,2,11,32,532,1011.164362013431,1012.2945299570783,"[32, 0, 222]",222,a,0.606900726488675,colour,0.5
062,68,0,2,11,33,533,1012.8050015241824,1013.7025323485068,"[27, 0, 227]",227,a,0.3742982655821834,colour,0.5
062,68,0,2,11,34,534,1014.2112355488171,1015.2625729303581,"[64, 0, 190]",190,a,0.5280705582263181,colour,0.5
062,68,0,2,11,35,535,1015.77376799185,1016.7745848276463,"[61, 0, 193]",193,a,0.47762720622267807,colour,0.5
062,68,0,2,11,36,536,1017.2893162288783,1018.3505797013531,"[18, 0, 236]",236,a,0.538075812128227,colour,0.5
062,68,0,2,11,37,537,1018.8674886749686,1019.8625498510082,"[14, 0, 240]",240,a,0.47188572490995284,colour,0.5
062,68,0,2,11,38,538,1020.3830526658203,1021.3266086820877,"[39, 0, 215]",215,a,0.42115722868038574,colour,0.5
062,68,0,2,11,39,539,1021.8364244962504,1022.8465538115197,"[63, 0, 191]",191,a,0.48713306389254285,colour,0.5
062,68,0,2,11,40,540,1023.3674626811589,1024.2785339175898,"[30, 0, 224]",224,a,0.3878457669088675,colour,0.5
062,68,0,2,11,41,541,1024.777239347066,1025.7185626525643,"[11, 0, 243]",243,a,0.4181494297517929,colour,0.5
062,68,0,2,11,42,542,1026.2303138240568,1027.2385763111306,"[89, 0, 165]",165,l,0.48591489941463806,colour,0.5
062,68,0,2,11,43,543,1027.7458884487423,1028.7508631126548,"[82, 0, 172]",172,l,0.4817279267263075,colour,0.5
062,68,0,2,11,44,544,1029.2615071841356,1030.518541463669,"[24, 0, 230]",230,a,0.7337973884859821,colour,0.5
062,68,0,2,11,45,545,1031.0271343872118,1032.9745756904304,"[77, 0, 177]",177,l,1.4242055937102123,colour,0.5
062,68,0,2,11,46,546,1033.4961481899227,1034.4625641869861,"[15, 0, 239]",239,a,0.4417525972130534,colour,0.5
062,68,0,2,11,47,547,1034.9824364549786,1036.0625304738023,"[51, 0, 203]",203,a,0.5568590970069636,colour,0.5
062,68,0,2,11,48,548,1036.5761862826694,1037.6305015308753,"[57, 0, 197]",197,a,0.5311153786460636,colour,0.5
062,68,0,2,11,49,549,1038.138667131927,1039.182567920645,"[22, 0, 232]",232,a,0.5207584206182219,colour,0.5
062,68,0,2,11,50,550,1039.701662343552,1041.2785201329934,"[81, 0, 173]",173,l,1.0536575260375685,colour,0.5
062,68,0,2,12,1,551,1085.4730326033277,1087.5345304139373,"[79, 0, 175]",175,l,1.536088467175432,colour,0.5
062,68,0,2,12,2,552,1088.0533392987818,1089.1424933420385,"[6, 0, 248]",248,a,0.5660542104851629,colour,0.5
062,68,0,2,12,3,553,1089.6626196404504,1090.2544234769775,"[4, 0, 250]",250,a,0.06622474563482683,colour,0.5
062,68,0,2,12,4,554,1090.7743453695148,1091.726455318607,"[32, 0, 222]",222,a,0.4289159872168966,colour,0.5
062,68,0,2,12,5,555,1092.2439456083448,1093.4704446438154,"[47, 0, 207]",207,a,0.7033511535337311,colour,0.5
062,68,0,2,12,6,556,1093.9781809531523,1094.9344412472929,"[68, 0, 186]",186,a,0.4328969786547532,colour,0.5
062,68,0,2,12,7,557,1095.4469159131731,1096.3664189902884,"[77, 0, 177]",177,l,0.3961748138863186,colour,0.5
062,68,0,2,12,8,558,1096.8844898084571,1098.4864461971447,"[71, 0, 183]",183,a,1.0787647898869182,colour,0.5
062,68,0,2,12,9,559,1098.993905633015,1100.0704455890445,"[59, 0, 195]",195,a,0.5517461932831793,colour,0.5
062,68,0,2,12,10,560,1100.5892718030955,1101.8144156158196,"[55, 0, 199]",199,a,0.701966392367467,colour,0.5
062,68,0,2,12,11,561,1102.3236146677555,1103.7424639611563,"[54, 0, 200]",200,a,0.8956064946723927,colour,0.5
062,68,0,2,12,12,562,1104.2610700155092,1105.1664312782705,"[17, 0, 237]",237,a,0.3819904642077745,colour,0.5
062,68,0,2,12,13,563,1105.683045655369,1106.5664653853019,"[75, 0, 179]",179,l,0.36014187894397764,colour,0.5
062,68,0,2,12,14,564,1107.0737842182898,1108.0304036996276,"[94, 0, 160]",160,l,0.4334743563194934,colour,0.5
062,68,0,2,12,15,565,1108.5424727045283,1109.478429075887,"[60, 0, 194]",194,a,0.41265173886858975,colour,0.5
062,68,0,2,12,16,566,1109.99756642797,1110.9505003020786,"[82, 0, 172]",172,l,0.4325086468816153,colour,0.5
062,68,0,2,12,17,567,1111.464538535034,1112.4784208051278,"[58, 0, 196]",196,a,0.490591422199941,colour,0.5
062,68,0,2,12,18,568,1112.9980811841815,1113.9904240378128,"[44, 0, 210]",210,a,0.467512069397344,colour,0.5
062,68,0,2,12,19,569,1114.487242946816,1115.38250718965,"[29, 0, 225]",225,a,0.37212187473778613,colour,0.5
062,68,0,2,12,20,570,1115.893602214357,1116.8144333388736,"[3, 0, 251]",251,a,0.3977549224800896,colour,0.5
062,68,0,2,12,21,571,1117.3310784359273,1118.2304875099726,"[31, 0, 223]",223,a,0.3762363798341539,colour,0.5
062,68,0,2,12,22,572,1118.7372470821938,1119.6224324219984,"[57, 0, 197]",197,a,0.36207211628061486,colour,0.5
062,68,0,2,12,23,573,1120.1435642082542,1121.0865176407387,"[8, 0, 246]",246,a,0.41978822134115035,colour,0.5
062,68,0,2,12,24,574,1121.5915608337855,1122.5024063966812,"[1, 0, 253]",253,a,0.3853976225909719,colour,0.5
062,68,0,2,12,25,575,1123.0156778122328,1124.00644725265,"[42, 0, 212]",212,a,0.4675266416852537,colour,0.5
062,68,0,2,12,26,576,1124.5157266490896,1125.5184355191996,"[69, 0, 185]",185,a,0.47953105590568157,colour,0.5
062,68,0,2,12,27,577,1126.0247992765835,1127.3264109715928,"[73, 0, 181]",181,l,0.7782684656485799,colour,0.5
062,68,0,2,12,28,578,1127.8373342796112,1128.838408690437,"[39, 0, 215]",215,a,0.4780104180026683,colour,0.5
062,68,0,2,12,29,579,1129.3529002396936,1130.3104074490366,"[22, 0, 232]",232,a,0.4342309337371262,colour,0.5
062,68,0,2,12,30,580,1130.8216663135172,1131.710390749984,"[52, 0, 202]",202,a,0.3656372067525808,colour,0.5
062,68,0,2,12,31,581,1132.2284296666548,1132.9103875204491,"[21, 0, 233]",233,a,0.1590269807857112,colour,0.5
062,68,0,2,12,32,582,1133.4315216697796,1134.5984208366353,"[7, 0, 247]",247,a,0.6436799988623534,colour,0.5
062,68,0,2,12,33,583,1135.1198641547708,1136.038401916292,"[27, 0, 227]",227,a,0.3953276519787323,colour,0.5
062,68,0,2,12,34,584,1136.5572868133386,1137.5824031356387,"[19, 0, 235]",235,a,0.5018435913043504,colour,0.5
062,68,0,2,12,35,585,1138.0885636686871,1138.9583787896809,"[16, 0, 238]",238,a,0.346708592845971,colour,0.5
062,68,0,2,12,36,586,1139.4792147978806,1140.3103775167692,"[48, 0, 206]",206,a,0.3085465285257669,colour,0.5
062,68,0,2,12,37,587,1140.822990028617,1142.766373540504,"[92, 0, 162]",162,a,1.420133230090869,colour,0.5
062,68,0,2,12,38,588,1143.2760574163876,1143.9103981542794,"[10, 0, 244]",244,a,0.11102625926287146,colour,0.5
062,68,0,2,12,39,589,1144.4167126809625,1146.3503678124143,"[5, 0, 249]",249,a,1.410420209635049,colour,0.5
062,68,0,2,12,40,590,1146.8697946410211,1148.4784129282161,"[53, 0, 201]",201,l,1.085374306927406,colour,0.5
062,68,0,2,12,41,591,1148.9947831210375,1151.102340782003,"[64, 0, 190]",190,l,1.5841581116837915,colour,0.5
062,68,0,2,12,42,592,1151.6197530903082,1152.7183606097678,"[74, 0, 180]",180,l,0.575318246948882,colour,0.5
062,68,0,2,12,43,593,1153.2291444964394,1153.8303825107323,"[78, 0, 176]",176,l,0.07892390351480572,colour,0.5
062,68,0,2,12,44,594,1154.3384945487815,1154.886334187453,"[72, 0, 182]",182,l,0.024648827562486986,colour,0.5
062,68,0,2,12,45,595,1155.4010006041572,1155.950404203748,"[61, 0, 193]",193,l,0.025290402059908956,colour,0.5
062,68,0,2,12,46,596,1156.4644404674764,1157.110333878678,"[9, 0, 245]",245,a,0.12272859390213853,colour,0.5
062,68,0,2,12,47,597,1157.6207140736005,1158.5023311721707,"[90, 0, 164]",164,l,0.35857201034013997,colour,0.5
062,68,0,2,12,48,598,1159.0111954553358,1159.9983950791357,"[43, 0, 211]",211,a,0.46394422201046837,colour,0.5
062,68,0,2,12,49,599,1160.5111883661157,1161.5264301912575,"[63, 0, 191]",191,a,0.49191395576053765,colour,0.5
062,68,0,2,12,50,600,1162.0425396582832,1162.9663911847892,"[23, 0, 231]",231,a,0.40060242624531384,colour,0.5
062,68,0,2,13,1,601,1170.9635200502853,1172.1903203776492,"[1, 0, 253]",253,a,0.702791498919396,colour,0.5
062,68,0,2,13,2,602,1172.691828412495,1174.4303361944876,"[27, 0, 227]",227,a,1.2240851557216956,colour,0.5
062,68,0,2,13,3,603,1174.9516523004895,1175.7743008649632,"[83, 0, 171]",171,l,0.2993904057657346,colour,0.5
062,68,0,2,13,4,604,1176.295449586578,1177.286391137528,"[39, 0, 215]",215,a,0.46785904738135287,colour,0.5
062,68,0,2,13,5,605,1177.7829189946206,1178.4303393452537,"[81, 0, 173]",173,l,0.12407554588935454,colour,0.5
062,68,0,2,13,6,606,1178.9393072098137,1179.6543221011161,"[44, 0, 210]",210,a,0.1918658278264047,colour,0.5
062,68,0,2,13,7,607,1180.1736492867822,1182.0863404102129,"[69, 0, 185]",185,a,1.3894321770276292,colour,0.5
062,68,0,2,13,8,608,1182.5955201637116,1183.1823064071577,"[78, 0, 176]",176,l,0.0637427305955498,colour,0.5
062,68,0,2,13,9,609,1183.6892353329895,1184.4463641354705,"[20, 0, 234]",234,a,0.233958471340884,colour,0.5
062,68,0,2,13,10,610,1184.9549184621428,1185.5503393767613,"[82, 0, 172]",172,l,0.07237661407634732,colour,0.5
062,68,0,2,13,11,611,1186.0642110130248,1187.5743111837182,"[21, 0, 233]",233,a,0.9868491012057348,colour,0.5
062,68,0,2,13,12,612,1188.0955812097818,1189.1182915292447,"[17, 0, 237]",237,a,0.49961718206395744,colour,0.5
062,68,0,2,13,13,613,1189.6267997759787,1190.5343232511477,"[24, 0, 230]",230,a,0.3843897716724314,colour,0.5
062,68,0,2,13,14,614,1191.0485710099674,1192.070368789151,"[74, 0, 180]",180,l,0.49858254964419757,colour,0.5
062,68,0,2,13,15,615,1192.5798139945946,1193.6542890180863,"[10, 0, 244]",244,a,0.5512196217023302,colour,0.5
062,68,0,2,13,16,616,1194.1735933607051,1195.1743605719566,"[99, 0, 155]",155,l,0.477375145033875,colour,0.5
062,68,0,2,13,17,617,1195.6892640837214,1197.286362386796,"[84, 0, 170]",170,a,1.0739165504164703,colour,0.5
062,68,0,2,13,18,618,1197.798560573061,1198.7503333903078,"[66, 0, 188]",188,a,0.4286056368764548,colour,0.5
062,68,0,2,13,19,619,1199.2673022284544,1200.1823229486727,"[98, 0, 156]",156,l,0.3917885553200904,colour,0.5
062,68,0,2,13,20,620,1200.6892932282972,1201.726348586446,"[61, 0, 193]",193,a,0.5139070823679504,colour,0.5
062,68,0,2,13,21,621,1202.2339490190461,1203.1503096020351,"[53, 0, 201]",201,a,0.3930248366923479,colour,0.5
062,68,0,2,13,22,622,1203.671557572743,1204.5502992045076,"[94, 0, 160]",160,l,0.3558139095221122,colour,0.5
062,68,0,2,13,23,623,1205.062137022036,1206.0222885108124,"[62, 0, 192]",192,a,0.43697564379908727,colour,0.5
062,68,0,2,13,24,624,1206.530909791236,1207.5583222334499,"[80, 0, 174]",174,l,0.5047848303256615,colour,0.5
062,68,0,2,13,25,625,1208.0776478437328,1208.9823332674277,"[46, 0, 208]",208,a,0.3812720898167754,colour,0.5
062,68,0,2,13,26,626,1209.4995722836647,1210.4543658967486,"[59, 0, 195]",195,a,0.42967059540751507,colour,0.5
062,68,0,2,13,27,627,1210.9731086155298,1211.614277060933,"[64, 0, 190]",190,a,0.11800087118535885,colour,0.5
062,68,0,2,13,28,628,1212.1292841540926,1213.6142987224412,"[34, 0, 220]",220,a,0.9618643233370676,colour,0.5
062,68,0,2,13,29,629,1214.1292739141063,1216.0782638182682,"[37, 0, 217]",217,a,1.4256864532071631,colour,0.5
062,68,0,2,13,30,630,1216.5980116310457,1217.8382724198564,"[42, 0, 212]",212,a,0.7172783220266865,colour,0.5
062,68,0,2,13,31,631,1218.3480118279695,1218.9583271959054,"[91, 0, 163]",163,l,0.0870938368680072,colour,0.5
062,68,0,2,13,32,632,1219.4730022772128,1220.5263884436245,"[2, 0, 252]",252,a,0.5301146169513231,colour,0.5
062,68,0,2,13,33,633,1221.0354701295655,1222.48629929273,"[89, 0, 165]",165,l,0.9275520998671709,colour,0.5
062,68,0,2,13,34,634,1223.0042389603077,1224.5982692060752,"[49, 0, 205]",205,a,1.0708587330918817,colour,0.5
062,68,0,2,13,35,635,1225.1163049719835,1226.1262582382624,"[75, 0, 179]",179,l,0.48672897829237627,colour,0.5
062,68,0,2,13,36,636,1226.647581433488,1228.750266042709,"[63, 0, 191]",191,a,1.5781259723080439,colour,0.5
062,68,0,2,13,37,637,1229.2594481592823,1230.5343248265308,"[0, 0, 254]",254,a,0.7515826685885258,colour,0.5
062,68,0,2,13,38,638,1231.0406594393353,1232.7823424046474,"[31, 0, 223]",223,a,1.2184125973872142,colour,0.5
062,68,0,2,13,39,639,1233.2906505778083,1233.8782465678305,"[26, 0, 228]",228,a,0.06438351740143844,colour,0.5
062,68,0,2,13,40,640,1234.3843834701402,1235.9022309778447,"[43, 0, 211]",211,a,0.9946515766023367,colour,0.5
062,68,0,2,13,41,641,1236.417520064464,1237.5902709894108,"[45, 0, 209]",209,a,0.6498267473180022,colour,0.5
062,68,0,2,13,42,642,1238.104980335287,1239.4382828173802,"[5, 0, 249]",249,a,0.8102664523103158,colour,0.5
062,68,0,2,13,43,643,1239.94872248299,1240.6862763709178,"[58, 0, 196]",196,a,0.21432605533118476,colour,0.5
062,68,0,2,13,44,644,1241.1918260494203,1242.5742406853533,"[41, 0, 213]",213,a,0.8591497818488278,colour,0.5
062,68,0,2,13,45,645,1243.0824303109875,1243.7982517981,"[73, 0, 181]",181,l,0.19292645405585063,colour,0.5
062,68,0,2,13,46,646,1244.3195230057026,1244.862264706786,"[14, 0, 240]",240,a,0.019458336257230258,colour,0.5
062,68,0,2,13,47,647,1245.3820097626449,1245.950318739251,"[32, 0, 222]",222,a,0.045042547142656986,colour,0.5
062,68,0,2,13,48,648,1246.4601640918336,1247.0302627028977,"[70, 0, 184]",184,l,0.04686841539296438,colour,0.5
062,68,0,2,13,49,649,1247.538302273355,1248.254243489533,"[3, 0, 251]",251,a,0.19293905711674597,colour,0.5
062,68,0,2,13,50,650,1248.772652227235,1249.4702638686795,"[76, 0, 178]",178,l,0.17444958106352715,colour,0.5
062,68,0,2,14,1,651,1259.0686594992003,1259.8541877209937,"[47, 0, 207]",207,a,0.2614102981169708,colour,0.5
062,68,0,2,14,2,652,1260.366331162717,1261.3502957386663,"[51, 0, 203]",203,a,0.46078400482656434,colour,0.5
062,68,0,2,14,3,653,1261.8665796792993,1262.4301955916053,"[29, 0, 225]",225,a,0.04034239361863001,colour,0.5
062,68,0,2,14,4,654,1262.944860826774,1264.5822066066794,"[7, 0, 247]",247,a,1.114266427102848,colour,0.5
062,68,0,2,14,5,655,1265.088488050329,1266.086199413483,"[87, 0, 167]",167,l,0.4745646627525275,colour,0.5
062,68,0,2,14,6,656,1266.6040528288722,1267.7342065940757,"[67, 0, 187]",187,l,0.6070318770762242,colour,0.5
062,68,0,2,14,7,657,1268.2447659887512,1269.3742494287253,"[31, 0, 223]",223,a,0.6063166534477205,colour,0.5
062,68,0,2,14,8,658,1269.885405105655,1270.430217646961,"[78, 0, 176]",176,l,0.02164851169800386,colour,0.5
062,68,0,2,14,9,659,1270.9478709887808,1271.5182126025866,"[99, 0, 155]",155,l,0.04712283966000541,colour,0.5
062,68,0,2,14,10,660,1272.0260020810783,1273.6142353133,"[34, 0, 220]",220,a,1.0650081565436267,colour,0.5
062,68,0,2,14,11,661,1274.1353840349148,1275.774183498972,"[37, 0, 217]",217,a,1.1155999883449113,colour,0.5
062,68,0,2,14,12,662,1276.2916245580054,1276.9182514357635,"[95, 0, 159]",159,l,0.11169382757361745,colour,0.5
062,68,0,2,14,13,663,1277.439538003342,1278.742198509215,"[70, 0, 184]",184,l,0.7793645379861118,colour,0.5
062,68,0,2,14,14,664,1279.2437951593201,1280.9502277609172,"[98, 0, 156]",156,l,1.1833158334629843,colour,0.5
062,68,0,2,14,15,665,1281.4624755717232,1282.3581777708787,"[56, 0, 198]",198,a,0.37242513585442794,colour,0.5
062,68,0,2,14,16,666,1282.8687568578353,1283.5101675182923,"[35, 0, 219]",219,a,0.11822457549351384,colour,0.5
062,68,0,2,14,17,667,1284.0250300701118,1284.7101859502654,"[79, 0, 175]",175,l,0.16202414588769898,colour,0.5
062,68,0,2,14,18,668,1285.228082294827,1286.2381801024458,"[71, 0, 183]",183,l,0.4877447061226121,colour,0.5
062,68,0,2,14,19,669,1286.7593642701686,1287.3341783947326,"[93, 0, 161]",161,l,0.05154887663593399,colour,0.5
062,68,0,2,14,20,670,1287.8530451748775,1288.9742035063282,"[53, 0, 201]",201,l,0.5978525174214155,colour,0.5
062,68,0,2,14,21,671,1289.4938571900057,1290.0701706848085,"[16, 0, 238]",238,a,0.0532183881769015,colour,0.5
062,68,0,2,14,22,672,1290.5874557809839,1291.7181825915504,"[2, 0, 252]",252,a,0.6081275555661705,colour,0.5
062,68,0,2,14,23,673,1292.22802991336,1293.6861723956754,"[66, 0, 188]",188,a,0.9355672518940992,colour,0.5
062,68,0,2,14,24,674,1294.1968054394783,1295.7182113422787,"[69, 0, 185]",185,l,0.998193824027112,colour,0.5
062,68,0,2,14,25,675,1296.2280129779974,1298.3262026272641,"[15, 0, 239]",239,a,1.5756372618925525,colour,0.5
062,68,0,2,14,26,676,1298.837377996475,1299.4542591645877,"[18, 0, 236]",236,a,0.09405427035017055,colour,0.5
062,68,0,2,14,27,677,1299.9624023164397,1301.6221898131043,"[42, 0, 212]",212,a,1.136531307183759,colour,0.5
062,68,0,2,14,28,678,1302.1343108056244,1302.8462265258167,"[86, 0, 168]",168,l,0.18870915525621967,colour,0.5
062,68,0,2,14,29,679,1303.3530152426101,1305.838240518362,"[59, 0, 195]",195,a,1.9595701726539119,colour,0.5
062,68,0,2,14,30,680,1306.3554925315038,1307.0221565725333,"[73, 0, 181]",181,l,0.14350946371632745,colour,0.5
062,68,0,2,14,31,681,1307.5431067959616,1308.1821551704415,"[39, 0, 215]",215,a,0.11572798816268914,colour,0.5
062,68,0,2,14,32,682,1308.6992441315015,1309.2461523253041,"[27, 0, 227]",227,a,0.02395644697753596,colour,0.5
062,68,0,2,14,33,683,1309.7617537314873,1310.3421667652583,"[97, 0, 157]",157,l,0.057534542229404906,colour,0.5
062,68,0,2,14,34,684,1310.85553585452,1311.5181460426757,"[4, 0, 250]",250,a,0.13951271845508018,colour,0.5
062,68,0,2,14,35,685,1312.0273332792422,1312.7021329890595,"[92, 0, 162]",162,l,0.15147538504606928,colour,0.5
062,68,0,2,14,36,686,1313.2148597161322,1313.838164900004,"[83, 0, 171]",171,l,0.10000803444927442,colour,0.5
062,68,0,2,14,37,687,1314.3555287652998,1315.0541754330116,"[20, 0, 234]",234,l,0.17552871803854941,colour,0.5
062,68,0,2,14,38,688,1315.574245017655,1316.7661777992362,"[26, 0, 228]",228,l,0.6686470536806155,colour,0.5
062,68,0,2,14,39,689,1317.277337020776,1320.1420971333537,"[49, 0, 205]",205,l,2.341485412351176,colour,0.5
062,68,0,2,14,40,690,1320.6526596787953,1321.2780620905469,"[45, 0, 209]",209,a,0.10254203711156151,colour,0.5
062,68,0,2,14,41,691,1321.7933173064412,1322.542220643336,"[68, 0, 186]",186,a,0.22579838413003017,colour,0.5
062,68,0,2,14,42,692,1323.0588054820146,1323.5981778338937,"[9, 0, 245]",245,a,0.016378857420932036,colour,0.5
062,68,0,2,14,43,693,1324.0939306028267,1325.334155945533,"[76, 0, 178]",178,a,0.7170546177221695,colour,0.5
062,68,0,2,14,44,694,1325.8439323751336,1327.6861326172693,"[46, 0, 208]",208,a,1.3190578740395722,colour,0.5
062,68,0,2,14,45,695,1328.2032479659829,1329.710135931873,"[21, 0, 233]",233,a,0.9836861271032831,colour,0.5
062,68,0,2,14,46,696,1330.2188474029426,1331.990105416713,"[1, 0, 253]",253,a,1.2477162862232944,colour,0.5
062,68,0,2,14,47,697,1332.4876454570294,1333.5101273460386,"[41, 0, 213]",213,a,0.51162553474569,colour,0.5
062,68,0,2,14,48,698,1334.022142394093,1334.598112061678,"[19, 0, 235]",235,a,0.052837145627563586,colour,0.5
062,68,0,2,14,49,699,1335.115846141849,1338.5181586457365,"[74, 0, 180]",180,l,2.87905080056953,colour,0.5
062,68,0,2,14,50,700,1339.0377032341785,1339.8781268387647,"[80, 0, 174]",174,l,0.3172662703509559,colour,0.5
062,68,0,2,15,1,701,1360.3088399435037,1364.5660943827352,"[21, 0, 233]",233,a,3.7331254878736218,colour,0.5
062,68,0,2,15,2,702,1365.0753414838364,1366.0620873974913,"[10, 0, 244]",244,a,0.46178200960639515,colour,0.5
062,68,0,2,15,3,703,1366.5790337864382,1368.6301198944784,"[14, 0, 240]",240,a,1.5283210440356925,colour,0.5
062,68,0,2,15,4,704,1369.1414736757506,1370.1100853620956,"[71, 0, 183]",183,a,0.4453255645967147,colour,0.5
062,68,0,2,15,5,705,1370.6258439126832,1372.5100718138056,"[56, 0, 198]",198,a,1.3615538154554088,colour,0.5
062,68,0,2,15,6,706,1373.0164465988673,1374.3100797694897,"[75, 0, 179]",179,l,0.7702958489462617,colour,0.5
062,68,0,2,15,7,707,1374.8289776634374,1375.4220705566513,"[87, 0, 167]",167,l,0.06984536833624588,colour,0.5
062,68,0,2,15,8,708,1375.9384466571537,1376.4627524451898,"[36, 0, 218]",218,a,0.001277241317438893,colour,0.5
062,68,0,2,15,9,709,1376.985270961839,1378.6940654555656,"[45, 0, 209]",209,a,1.185592261092097,colour,0.5
062,68,0,2,15,10,710,1379.2039561003912,1380.0620669175187,"[2, 0, 252]",252,a,0.3350389473926043,colour,0.5
062,68,0,2,15,11,711,1380.5789589557717,1381.2701288584067,"[99, 0, 155]",155,l,0.16801138686423656,colour,0.5
062,68,0,2,15,12,712,1381.782126183407,1384.7580551273568,"[82, 0, 172]",172,l,2.4526806313806446,colour,0.5
062,68,0,2,15,13,713,1385.266478303438,1386.4140325615772,"[9, 0, 245]",245,a,0.6242756194587855,colour,0.5
062,68,0,2,15,14,714,1386.9227223711387,1388.286085513333,"[27, 0, 227]",227,a,0.8401900541393843,colour,0.5
062,68,0,2,15,15,715,1388.7976941127163,1391.6060685307093,"[98, 0, 156]",156,l,2.288187073514564,colour,0.5
062,68,0,2,15,16,716,1392.1227352892747,1392.6380854219606,"[93, 0, 161]",161,l,0.0019247234995418694,colour,0.5
062,68,0,2,15,17,717,1393.160152985387,1394.8701357113205,"[89, 0, 165]",165,l,1.186916763883346,colour,0.5
062,68,0,2,15,18,718,1395.3789027146195,1396.4460545728216,"[11, 0, 243]",243,a,0.5442871512605052,colour,0.5
062,68,0,2,15,19,719,1396.9585036387398,1397.598076221726,"[54, 0, 200]",200,a,0.11803986189988791,colour,0.5
062,68,0,2,15,20,720,1398.1133085945767,1399.6541440829023,"[41, 0, 213]",213,a,1.0179869290514034,colour,0.5
062,68,0,2,15,21,721,1400.1617126140081,1400.8140394932598,"[91, 0, 163]",163,l,0.13644111653411528,colour,0.5
062,68,0,2,15,22,722,1401.3168476124665,1401.958069620876,"[57, 0, 197]",197,a,0.11808830491281697,colour,0.5
062,68,0,2,15,23,723,1402.473225587677,1403.5099895000749,"[78, 0, 176]",176,l,0.5135266275065078,colour,0.5
062,68,0,2,15,24,724,1404.0201566245196,1404.566029792055,"[92, 0, 162]",162,l,0.022735131737135816,colour,0.5
062,68,0,2,15,25,725,1405.082706002915,1405.6460604017375,"[29, 0, 225]",225,a,0.04021557533269515,colour,0.5
062,68,0,2,15,26,726,1406.160700430788,1406.966011911467,"[96, 0, 158]",158,l,0.28200645434480975,colour,0.5
062,68,0,2,15,27,727,1407.4732480368766,1407.998062279592,"[23, 0, 231]",231,a,0.0015745947530376725,colour,0.5
062,68,0,2,15,28,728,1408.5219155390187,1410.0060167793963,"[3, 0, 251]",251,a,0.9608367801374698,colour,0.5
062,68,0,2,15,29,729,1410.5219624066485,1411.0860458136958,"[35, 0, 219]",219,a,0.0392924012230651,colour,0.5
062,68,0,2,15,30,730,1411.6000623851432,1412.1820082660306,"[88, 0, 166]",166,l,0.05867078681694693,colour,0.5
062,68,0,2,15,31,731,1412.6813737807497,1413.9499772751078,"[50, 0, 204]",204,a,0.7461310576400138,colour,0.5
062,68,0,2,15,32,732,1414.4626539837845,1415.133998879901,"[4, 0, 250]",250,a,0.1481174573636963,colour,0.5
062,68,0,2,15,33,733,1415.650158365319,1416.1740691262057,"[85, 0, 169]",169,l,0.0006845036732556764,colour,0.5
062,68,0,2,15,34,734,1416.697062620664,1417.2860374641677,"[28, 0, 226]",226,a,0.07524971780730993,colour,0.5
062,68,0,2,15,35,735,1417.7864773897163,1418.3660590153995,"[34, 0, 220]",220,a,0.05633488849707646,colour,0.5
062,68,0,2,15,36,736,1418.8689368452797,1420.3980172236552,"[5, 0, 249]",249,a,1.0058041027696163,colour,0.5
062,68,0,2,15,37,737,1420.915779266863,1422.2940069301076,"[8, 0, 246]",246,a,0.8556299836272956,colour,0.5
062,68,0,2,15,38,738,1422.8094330749955,1423.4460675697264,"[86, 0, 168]",168,l,0.11337357910451829,colour,0.5
062,68,0,2,15,39,739,1423.9656657211744,1424.5740587286818,"[69, 0, 185]",185,l,0.0851419380196603,colour,0.5
062,68,0,2,15,40,740,1425.090647111967,1425.646062764812,"[52, 0, 202]",202,a,0.03219490946867154,colour,0.5
062,68,0,2,15,41,741,1426.1531799488475,1427.9660123053109,"[60, 0, 194]",194,a,1.2884777315739484,colour,0.5
062,68,0,2,15,42,742,1428.4826262885617,1430.6620154812808,"[22, 0, 232]",232,a,1.6565047934927861,colour,0.5
062,68,0,2,15,43,743,1431.1701019193642,1433.0539785102083,"[72, 0, 182]",182,l,1.3607220135309035,colour,0.5
062,68,0,2,15,44,744,1433.5606376517972,1435.3899823793472,"[76, 0, 178]",178,l,1.303972799447365,colour,0.5
062,68,0,2,15,45,745,1435.906519168857,1436.4459730467788,"[13, 0, 241]",241,a,0.016282759090245236,colour,0.5
062,68,0,2,15,46,746,1436.9534624149164,1437.4859956377659,"[46, 0, 208]",208,a,0.00752678347271285,colour,0.5
062,68,0,2,15,47,747,1438.0021917508238,1438.5739988641471,"[48, 0, 206]",206,a,0.0455415495307534,colour,0.5
062,68,0,2,15,48,748,1439.083440131133,1439.7820387496795,"[63, 0, 191]",191,a,0.17533573368928046,colour,0.5
062,68,0,2,15,49,749,1440.302135115824,1443.3979813837032,"[25, 0, 229]",229,a,2.572569992273202,colour,0.5
062,68,0,2,15,50,750,1443.9116348294992,1445.718022690231,"[17, 0, 237]",237,a,1.2832450987880293,colour,0.5
062,68,0,2,16,1,751,1468.74312956024,1470.141961256617,"[72, 0, 182]",182,l,0.8749103016598383,colour,0.5
062,68,0,2,16,2,752,1470.6501725437593,1472.0299736202178,"[91, 0, 163]",163,l,0.8565523700417543,colour,0.5
062,68,0,2,16,3,753,1472.5407567192015,1473.357971001933,"[53, 0, 201]",201,a,0.2915300350578036,colour,0.5
062,68,0,2,16,4,754,1473.8714476110508,1474.4299293519725,"[97, 0, 157]",157,l,0.03549218492116779,colour,0.5
062,68,0,2,16,5,755,1474.9494979649971,1476.7340037635877,"[1, 0, 253]",253,a,1.2599062017288816,colour,0.5
062,68,0,2,16,6,756,1477.2480601134412,1477.7819268975254,"[26, 0, 228]",228,a,0.01096426795993466,colour,0.5
062,68,0,2,16,7,757,1478.2949631872507,1479.8779263713477,"[4, 0, 250]",250,a,1.0597428345681692,colour,0.5
062,68,0,2,16,8,758,1480.376193450662,1481.829990634349,"[49, 0, 205]",205,a,0.9304716773804103,colour,0.5
062,68,0,2,16,9,759,1482.3450012721187,1482.8782993431414,"[85, 0, 169]",169,l,0.010061967666842975,colour,0.5
062,68,0,2,16,10,760,1483.3918901674842,1483.9579317749121,"[22, 0, 232]",232,a,0.042932322357955854,colour,0.5
062,68,0,2,16,11,761,1484.47163326987,1485.26990239718,"[64, 0, 190]",190,a,0.27514290688122855,colour,0.5
062,68,0,2,16,12,762,1485.7841678790537,1486.549873063559,"[20, 0, 234]",234,a,0.24240842892686487,colour,0.5
062,68,0,2,16,13,763,1487.0698827836677,1488.541910686843,"[47, 0, 207]",207,a,0.9541882723824529,colour,0.5
062,68,0,2,16,14,764,1489.039841028156,1490.3179338386617,"[15, 0, 239]",239,a,0.7548464671635884,colour,0.5
062,68,0,2,16,15,765,1490.8366777389783,1492.1819046846358,"[3, 0, 251]",251,a,0.8220329837822646,colour,0.5
062,68,0,2,16,16,766,1492.6960598897385,1494.7659064396103,"[19, 0, 235]",235,a,1.5465639727372036,colour,0.5
062,68,0,2,16,17,767,1495.2748498857436,1495.8779377928731,"[18, 0, 236]",236,a,0.0798813421970408,colour,0.5
062,68,0,2,16,18,768,1496.3841747319675,1497.0698882975048,"[79, 0, 175]",175,l,0.1628047478843655,colour,0.5
062,68,0,2,16,19,769,1497.5872746120003,1498.7019226755037,"[61, 0, 193]",193,a,0.5915608337891172,colour,0.5
062,68,0,2,16,20,770,1499.2145107689175,1500.5979041111968,"[57, 0, 197]",197,a,0.8600225437257905,colour,0.5
062,68,0,2,16,21,771,1501.1051815903957,1502.6778807640294,"[2, 0, 252]",252,a,1.0471673442152678,colour,0.5
062,68,0,2,16,22,772,1503.1855359411675,1503.7419086388436,"[77, 0, 177]",177,l,0.03313698816782562,colour,0.5
062,68,0,2,16,23,773,1504.2481983532525,1504.8538911552496,"[44, 0, 210]",210,a,0.08247442169522401,colour,0.5
062,68,0,2,16,24,774,1505.373031658095,1506.5099312109232,"[69, 0, 185]",185,a,0.6221106501361646,colour,0.5
062,68,0,2,16,25,775,1507.0208143466916,1507.6299186393735,"[75, 0, 179]",179,l,0.0859249030945648,colour,0.5
062,68,0,2,16,26,776,1508.144909584862,1508.7578857737426,"[33, 0, 221]",221,a,0.08965422718392801,colour,0.5
062,68,0,2,16,27,777,1509.2614091165779,1509.8539053336935,"[95, 0, 159]",159,l,0.06913959700250416,colour,0.5
062,68,0,2,16,28,778,1510.3727236708291,1510.9978547229548,"[24, 0, 230]",230,a,0.10188352724799188,colour,0.5
062,68,0,2,16,29,779,1511.5144974569375,1512.5258819581686,"[83, 0, 171]",171,l,0.48811807176389266,colour,0.5
062,68,0,2,16,30,780,1513.0457869153433,1513.6219172719393,"[96, 0, 158]",158,l,0.052852505607006606,colour,0.5
062,68,0,2,16,31,781,1514.139531229197,1514.7339033329554,"[98, 0, 156]",156,l,0.07112221580609912,colour,0.5
062,68,0,2,16,32,782,1515.2489616260464,1515.821890805517,"[11, 0, 243]",243,a,0.049719069927959936,colour,0.5
062,68,0,2,16,33,783,1516.3426586784262,1516.8699588746385,"[0, 0, 254]",254,a,0.00393569918742287,colour,0.5
062,68,0,2,16,34,784,1517.3895306384293,1518.8938605770782,"[50, 0, 204]",204,a,0.9810178230909514,colour,0.5
062,68,0,2,16,35,785,1519.407597911988,1520.325868646185,"[60, 0, 194]",194,a,0.39516853835084476,colour,0.5
062,68,0,2,16,36,786,1520.8324714678529,1521.3578686020737,"[17, 0, 237]",237,a,0.010677942202164559,colour,0.5
062,68,0,2,16,37,787,1521.871948188822,1522.4378578579672,"[58, 0, 196]",196,a,0.04274721492038225,colour,0.5
062,68,0,2,16,38,788,1522.9407908262328,1525.1178854744212,"[55, 0, 199]",199,a,1.6538569694530452,colour,0.5
062,68,0,2,16,39,789,1525.6282759093301,1526.173841089596,"[37, 0, 217]",217,a,0.02240587680716999,colour,0.5
062,68,0,2,16,40,790,1526.6857454670317,1527.9818472619445,"[10, 0, 244]",244,a,0.7730405590082228,colour,0.5
062,68,0,2,16,41,791,1528.5000531691549,1529.701893530928,"[32, 0, 222]",222,a,0.678610166101862,colour,0.5
062,68,0,2,16,42,792,1530.2209540831136,1530.8698182717562,"[76, 0, 178]",178,l,0.12615741378976963,colour,0.5
062,68,0,2,16,43,793,1531.377202483116,1532.7738688163263,"[88, 0, 166]",166,l,0.8734113252648967,colour,0.5
062,68,0,2,16,44,794,1533.2834369015982,1533.837839189684,"[70, 0, 184]",184,l,0.03152497808332555,colour,0.5
062,68,0,2,16,45,795,1534.345886243209,1536.157846231643,"[52, 0, 202]",202,a,1.2886754420687794,colour,0.5
062,68,0,2,16,46,796,1536.6739990216847,1537.7578184261438,"[62, 0, 192]",192,a,0.5605813318761648,colour,0.5
062,68,0,2,16,47,797,1538.2677760247243,1538.8058896460352,"[28, 0, 226]",226,a,0.01521543748822296,colour,0.5
062,68,0,2,16,48,798,1539.3173521286953,1540.1018153919576,"[14, 0, 240]",240,a,0.2611747784430918,colour,0.5
062,68,0,2,16,49,799,1540.6142565809605,1541.757859386089,"[48, 0, 206]",206,a,0.6203261356749863,colour,0.5
062,68,0,2,16,50,800,1542.270439602591,1543.1338173170734,"[21, 0, 233]",233,a,0.3401735126208223,colour,0.5
