id,age,condition,counterbalance,block,trialinblock,trial,tstart,tend,trialstim,trialintensity,response,RT,trialtype,colourfreq
171,21,0,1,Practice,1,NA,5.5000127758830786e-06,1.2153028000029735,"[87, 0, 167]",167,l,0.597009999997681,colour,0.5
171,21,0,1,Practice,2,NA,1.735374400013825,5.607317699992564,"[34, 0, 220]",220,a,3.348692799976561,colour,0.5
171,21,0,1,Practice,3,NA,6.125786899996456,6.799312200018903,"[3, 0, 251]",251,a,0.1501478000136558,colour,0.5
171,21,0,1,Practice,4,NA,7.313370100018801,7.86332279999624,"[13, 0, 241]",241,a,0.02683459999389015,colour,0.5
171,21,0,1,Practice,5,NA,8.375763599993661,9.015346800006228,"[18, 0, 236]",236,a,0.1161388999898918,colour,0.5
171,21,0,1,Practice,6,NA,9.532469400000991,10.095304899994517,"[95, 0, 159]",159,l,0.03980729999602772,colour,0.5
171,21,0,1,Practice,7,NA,10.610210700018797,13.69531900002039,"[70, 0, 184]",184,a,2.561847500008298,colour,0.5
171,21,0,1,Practice,8,NA,14.203933200013125,14.735416200011969,"[14, 0, 240]",240,a,0.008013200014829636,colour,0.5
171,21,0,1,Practice,9,NA,15.250721799995517,15.927305799996248,"[69, 0, 185]",185,l,0.15329129999736324,colour,0.5
171,21,0,1,Practice,10,NA,16.440847799996845,17.191256799997063,"[67, 0, 187]",187,l,0.22694809999666177,colour,0.5
171,21,0,1,1,1,1,4.154520699987188,5.176026999979513,"[46, 0, 208]",208,a,0.49737749999621883,colour,0.5
171,21,0,1,1,2,2,5.686697400000412,6.439978999987943,"[37, 0, 217]",217,a,0.22992350001004525,colour,0.5
171,21,0,1,1,3,3,6.952300599979935,7.855911599996034,"[89, 0, 165]",165,l,0.38055220001842827,colour,0.5
171,21,0,1,1,4,4,8.37417519997689,9.279927900002804,"[59, 0, 195]",195,a,0.3823417000239715,colour,0.5
171,21,0,1,1,5,5,9.795973100000992,10.687929499981692,"[41, 0, 213]",213,a,0.36827909998828545,colour,0.5
171,21,0,1,1,6,6,11.20281819999218,11.983953399991151,"[8, 0, 246]",246,a,0.2580572000006214,colour,0.5
171,21,0,1,1,7,7,12.499703899986343,13.295964199991431,"[1, 0, 253]",253,a,0.27285539999138564,colour,0.5
171,21,0,1,1,8,8,13.812341699987883,14.68805669998983,"[52, 0, 202]",202,a,0.3524313000089023,colour,0.5
171,21,0,1,1,9,9,15.202735200000461,16.02394309997908,"[18, 0, 236]",236,a,0.29779809998581186,colour,0.5
171,21,0,1,1,10,10,16.53087799999048,17.407943300000625,"[15, 0, 239]",239,a,0.3536882000043988,colour,0.5
171,21,0,1,1,11,11,17.9215890999767,19.01596319998498,"[78, 0, 176]",176,l,0.57107299999916,colour,0.5
171,21,0,1,1,12,12,19.53095429998939,20.071998300001724,"[69, 0, 185]",185,l,0.017787500022677705,colour,0.5
171,21,0,1,1,13,13,20.59351219999371,21.49596569998539,"[20, 0, 234]",234,a,0.3791270999936387,colour,0.5
171,21,0,1,1,14,14,22.01538209998398,22.791881999990437,"[21, 0, 233]",233,a,0.2531936999876052,colour,0.5
171,21,0,1,1,15,15,23.312320199998794,23.92794639998465,"[7, 0, 247]",247,a,0.09237790000042878,colour,0.5
171,21,0,1,1,16,16,24.437217099999543,25.239931099989917,"[77, 0, 177]",177,l,0.27935230001457967,colour,0.5
171,21,0,1,1,17,17,25.749764699983643,26.51193819998298,"[45, 0, 209]",209,a,0.2388407999824267,colour,0.5
171,21,0,1,1,18,18,27.03095729998313,27.63996309999493,"[48, 0, 206]",206,a,0.08604700001887977,colour,0.5
171,21,0,1,1,19,19,28.15591139998287,28.799942499987083,"[35, 0, 219]",219,a,0.1208514999889303,colour,0.5
171,21,0,1,1,20,20,29.31230729998788,29.99190819999785,"[75, 0, 179]",179,l,0.15689800001564436,colour,0.5
171,21,0,1,1,21,21,30.50006379999104,31.287962199974572,"[27, 0, 227]",227,a,0.264512099995045,colour,0.5
171,21,0,1,1,22,22,31.796858599991538,32.53596809998271,"[2, 0, 252]",252,a,0.21581749999313615,colour,0.5
171,21,0,1,1,23,23,33.04697209998267,34.06398349997471,"[53, 0, 201]",201,a,0.4937305999919772,colour,0.5
171,21,0,1,1,24,24,34.5782659999968,35.44020489999093,"[72, 0, 182]",182,l,0.3386105000099633,colour,0.5
171,21,0,1,1,25,25,35.95319839997683,36.51192389999051,"[93, 0, 161]",161,l,0.03543570000329055,colour,0.5
171,21,0,1,1,26,26,37.03125390000059,37.55991969999741,"[63, 0, 191]",191,a,0.005596300004981458,colour,0.5
171,21,0,1,1,27,27,38.078415299998596,38.759895700000925,"[68, 0, 186]",186,a,0.1582877000037115,colour,0.5
171,21,0,1,1,28,28,39.28129669997725,39.895909599988954,"[16, 0, 238]",238,a,0.09123319998616353,colour,0.5
171,21,0,1,1,29,29,40.40628850000212,41.05594079999719,"[28, 0, 226]",226,a,0.12653619999764487,colour,0.5
171,21,0,1,1,30,30,41.56261880000238,42.36789689998841,"[82, 0, 172]",172,l,0.2819683999987319,colour,0.5
171,21,0,1,1,31,31,42.87501779999002,43.655956299975514,"[81, 0, 173]",173,l,0.2576379999809433,colour,0.5
171,21,0,1,1,32,32,44.171938399987994,44.92788579998887,"[22, 0, 232]",232,a,0.23274020000826567,colour,0.5
171,21,0,1,1,33,33,45.437560399994254,46.07189919997472,"[55, 0, 199]",199,a,0.1113970999722369,colour,0.5
171,21,0,1,1,34,34,46.57813469998655,47.143927600001916,"[73, 0, 181]",181,l,0.042539300018688664,colour,0.5
171,21,0,1,1,35,35,47.656254999979865,48.335924599989085,"[51, 0, 203]",203,l,0.15641470000264235,colour,0.5
171,21,0,1,1,36,36,48.84377169999061,49.367978099995526,"[31, 0, 223]",223,a,0.0007546000124420971,colour,0.5
171,21,0,1,1,37,37,49.890588499984005,50.671945299982326,"[47, 0, 207]",207,a,0.257952199986903,colour,0.5
171,21,0,1,1,38,38,51.18755139998393,51.92794839999988,"[99, 0, 155]",155,l,0.21787650001351722,colour,0.5
171,21,0,1,1,39,39,52.43751739998697,53.023923300002934,"[0, 0, 254]",254,a,0.06301700000767596,colour,0.5
171,21,0,1,1,40,40,53.531305999989854,54.14392429997679,"[56, 0, 198]",198,l,0.08929929998703301,colour,0.5
171,21,0,1,1,41,41,54.65627539998968,55.27990759999375,"[19, 0, 235]",235,a,0.10045120000722818,colour,0.5
171,21,0,1,1,42,42,55.79684639998595,56.440229799976805,"[80, 0, 174]",174,l,0.12001549999695271,colour,0.5
171,21,0,1,1,43,43,56.95316499998444,57.61597429998801,"[62, 0, 192]",192,l,0.13951859998633154,colour,0.5
171,21,0,1,1,44,44,58.12503719999222,58.759894399991026,"[88, 0, 166]",166,l,0.1115194000012707,colour,0.5
171,21,0,1,1,45,45,59.28120149997994,59.83193359998404,"[4, 0, 250]",250,a,0.027601899986620992,colour,0.5
171,21,0,1,1,46,46,60.34376109999721,60.94394469997496,"[23, 0, 231]",231,a,0.07705469999928027,colour,0.5
171,21,0,1,1,47,47,61.4531267999846,62.07990759998211,"[49, 0, 205]",205,a,0.10387349998927675,colour,0.5
171,21,0,1,1,48,48,62.59365729999263,63.15192829997977,"[94, 0, 160]",160,l,0.034861199994338676,colour,0.5
171,21,0,1,1,49,49,63.67183739997563,64.44798840000294,"[85, 0, 169]",169,l,0.25285509999957867,colour,0.5
171,21,0,1,1,50,50,64.96873579997919,65.67192599998089,"[96, 0, 158]",158,l,0.1798285999975633,colour,0.5
171,21,0,1,2,1,51,70.29599099999177,71.07989409999573,"[54, 0, 200]",200,l,0.25978270001360215,colour,0.5
171,21,0,1,2,2,52,71.59362639999017,72.36787639997783,"[77, 0, 177]",177,l,0.25107549998210743,colour,0.5
171,21,0,1,2,3,53,72.87494789998163,73.54391859998577,"[94, 0, 160]",160,l,0.14567140000872314,colour,0.5
171,21,0,1,2,4,54,74.06228009998449,74.75990629999433,"[73, 0, 181]",181,a,0.17413110000779852,colour,0.5
171,21,0,1,2,5,55,75.28109949998907,76.08793259999948,"[68, 0, 186]",186,l,0.2834236000198871,colour,0.5
171,21,0,1,2,6,56,76.593679099984,77.31192079998436,"[91, 0, 163]",163,l,0.19485860000713728,colour,0.5
171,21,0,1,2,7,57,77.82816879998427,78.51989529997809,"[55, 0, 199]",199,a,0.16847189998952672,colour,0.5
171,21,0,1,2,8,58,79.0312111999956,79.69593819999136,"[69, 0, 185]",185,a,0.1419762000150513,colour,0.5
171,21,0,1,2,9,59,80.20309999998426,80.80790159999742,"[30, 0, 224]",224,a,0.08151449999422766,colour,0.5
171,21,0,1,2,10,60,81.32810569999856,81.88795409997692,"[57, 0, 197]",197,a,0.03645179999875836,colour,0.5
171,21,0,1,2,11,61,82.40619859998696,83.60794609997538,"[35, 0, 219]",219,a,0.6785816999909002,colour,0.5
171,21,0,1,2,12,62,84.12494739997783,84.83190959997592,"[90, 0, 164]",164,l,0.1836590999737382,colour,0.5
171,21,0,1,2,13,63,85.34359829997993,86.02388899997459,"[12, 0, 242]",242,a,0.15683529997477308,colour,0.5
171,21,0,1,2,14,64,86.53113089999533,87.15189049998298,"[29, 0, 225]",225,a,0.09736899999552406,colour,0.5
171,21,0,1,2,15,65,87.67190789998858,88.23991279999609,"[3, 0, 251]",251,a,0.044786600017687306,colour,0.5
171,21,0,1,2,16,66,88.74998120000237,89.35198519998812,"[26, 0, 228]",228,a,0.07870360001106746,colour,0.5
171,21,0,1,2,17,67,89.85925939999288,90.98409339998034,"[15, 0, 239]",239,a,0.6014806999883149,colour,0.5
171,21,0,1,2,18,68,91.49996849999297,92.13589449998108,"[78, 0, 176]",176,l,0.11261999999987893,colour,0.5
171,21,0,1,2,19,69,92.65619300000253,93.46388060000027,"[99, 0, 155]",155,l,0.28466110001318157,colour,0.5
171,21,0,1,2,20,70,93.98422929999651,94.75186879999819,"[4, 0, 250]",250,a,0.244328000000678,colour,0.5
171,21,0,1,2,21,71,95.2654994999757,95.83186239999486,"[39, 0, 215]",215,a,0.04297720000613481,colour,0.5
171,21,0,1,2,22,72,96.34364409997943,96.96789919998264,"[38, 0, 216]",216,a,0.10095239998190664,colour,0.5
171,21,0,1,2,23,73,97.484263499995,98.22385889998986,"[84, 0, 170]",170,l,0.21623280001222156,colour,0.5
171,21,0,1,2,24,74,98.73426749999635,99.47190469998168,"[56, 0, 198]",198,l,0.21419490000698715,colour,0.5
171,21,0,1,2,25,75,99.98418169998331,100.6158723999979,"[46, 0, 208]",208,a,0.10825650001061149,colour,0.5
171,21,0,1,2,26,76,101.12483009998687,101.90389549999963,"[92, 0, 162]",162,l,0.2556893000146374,colour,0.5
171,21,0,1,2,27,77,102.42172319997917,103.45590119998087,"[59, 0, 195]",195,a,0.5108536999905482,colour,0.5
171,21,0,1,2,28,78,103.96858909999719,104.60787879998679,"[49, 0, 205]",205,a,0.11589919999823906,colour,0.5
171,21,0,1,2,29,79,105.12486739997985,105.72800329999882,"[58, 0, 196]",196,a,0.08005630000843666,colour,0.5
171,21,0,1,2,30,80,106.23417079998762,106.8639189999958,"[37, 0, 217]",217,a,0.10623390000546351,colour,0.5
171,21,0,1,2,31,81,107.37483629997587,108.00787919998402,"[20, 0, 234]",234,a,0.10965599998598918,colour,0.5
171,21,0,1,2,32,82,108.51550280000083,109.23988399998052,"[96, 0, 158]",158,l,0.20110259999637492,colour,0.5
171,21,0,1,2,33,83,109.7496977999981,110.41593529999955,"[87, 0, 167]",167,l,0.14261270000133663,colour,0.5
171,21,0,1,2,34,84,110.93729189998703,111.69585160000133,"[42, 0, 212]",212,l,0.2351230000203941,colour,0.5
171,21,0,1,2,35,85,112.20288659998914,112.86394369998015,"[24, 0, 230]",230,a,0.13757130000158213,colour,0.5
171,21,0,1,2,36,86,113.37480399999185,113.95994729999802,"[1, 0, 253]",253,a,0.061723000020720065,colour,0.5
171,21,0,1,2,37,87,114.4685134999745,115.13593229997787,"[62, 0, 192]",192,l,0.14433879998978227,colour,0.5
171,21,0,1,2,38,88,115.65618749998976,116.41585839999607,"[89, 0, 165]",165,l,0.23665259999688715,colour,0.5
171,21,0,1,2,39,89,116.93734949998907,117.63188279999304,"[45, 0, 209]",209,a,0.17122039999230765,colour,0.5
171,21,0,1,2,40,90,118.14034759998322,118.79992609997862,"[82, 0, 172]",172,l,0.13655379999545403,colour,0.5
171,21,0,1,2,41,91,119.312351999979,120.01585559998057,"[31, 0, 223]",223,a,0.18020109998178668,colour,0.5
171,21,0,1,2,42,92,120.53106849998585,121.11989889998222,"[52, 0, 202]",202,a,0.0655010000045877,colour,0.5
171,21,0,1,2,43,93,121.64036029999261,122.23187219997635,"[71, 0, 183]",183,l,0.06825539999408647,colour,0.5
171,21,0,1,2,44,94,122.74969329999294,123.35182449998683,"[36, 0, 218]",218,a,0.07866379999904893,colour,0.5
171,21,0,1,2,45,95,123.85920999999507,124.45588189997943,"[21, 0, 233]",233,a,0.07334459997946396,colour,0.5
171,21,0,1,2,46,96,124.96858789998805,125.67988650000188,"[79, 0, 175]",175,l,0.18794920001528226,colour,0.5
171,21,0,1,2,47,97,126.18729020000319,127.6238827999914,"[9, 0, 245]",245,l,0.9141055000072811,colour,0.5
171,21,0,1,2,48,98,128.1404329999932,128.8319442999782,"[10, 0, 244]",244,a,0.16833399998722598,colour,0.5
171,21,0,1,2,49,99,129.34351710000192,130.01588619998074,"[17, 0, 237]",237,a,0.1492246999987401,colour,0.5
171,21,0,1,2,50,100,130.53105559997493,131.7358804999967,"[18, 0, 236]",236,a,0.681603000004543,colour,0.5
171,21,0,1,3,1,101,136.40678879999905,137.20786419999786,"[70, 0, 184]",184,l,0.27695570001378655,colour,0.5
171,21,0,1,3,2,102,137.7201654999808,138.35187279997626,"[44, 0, 210]",210,a,0.10834239999530837,colour,0.5
171,21,0,1,3,3,103,138.86075019999407,139.57582769999863,"[75, 0, 179]",179,l,0.19176489999517798,colour,0.5
171,21,0,1,3,4,104,140.0950541999773,140.73594759998377,"[6, 0, 248]",248,a,0.117687299993122,colour,0.5
171,21,0,1,3,5,105,141.25125669999397,141.93591420000303,"[84, 0, 170]",170,l,0.1618554000160657,colour,0.5
171,21,0,1,3,6,106,142.45444199998747,143.13584000000264,"[46, 0, 208]",208,a,0.15811040002154186,colour,0.5
171,21,0,1,3,7,107,143.64183719997527,144.95184309998876,"[81, 0, 173]",173,l,0.7870072000077926,colour,0.5
171,21,0,1,3,8,108,145.4698655999964,146.05589759998838,"[28, 0, 226]",226,a,0.06258880000677891,colour,0.5
171,21,0,1,3,9,109,146.56382729997858,147.16792649999843,"[63, 0, 191]",191,a,0.08137180001358502,colour,0.5
171,21,0,1,3,10,110,147.68862839997746,148.23189759999514,"[62, 0, 192]",192,a,0.019842800014885142,colour,0.5
171,21,0,1,3,11,111,148.7512120999745,149.61582330000238,"[88, 0, 166]",166,l,0.34116500001982786,colour,0.5
171,21,0,1,3,12,112,150.12625729999854,150.66460339998594,"[78, 0, 176]",176,l,0.014944099995773286,colour,0.5
171,21,0,1,3,13,113,151.17310489999363,151.8478393999976,"[20, 0, 234]",234,a,0.1517943000071682,colour,0.5
171,21,0,1,3,14,114,152.3607054000022,153.11985769998864,"[97, 0, 157]",157,l,0.23579499998595566,colour,0.5
171,21,0,1,3,15,115,153.6263160999806,154.27990449999925,"[54, 0, 200]",200,a,0.1302074000122957,colour,0.5
171,21,0,1,3,16,116,154.79811699999846,155.57585379999364,"[17, 0, 237]",237,a,0.2544927000126336,colour,0.5
171,21,0,1,3,17,117,156.0950394999818,156.64786719999393,"[7, 0, 247]",247,a,0.02950920001603663,colour,0.5
171,21,0,1,3,18,118,157.1574566999916,157.72796639997978,"[22, 0, 232]",232,a,0.047035900002811104,colour,0.5
171,21,0,1,3,19,119,158.23561699999846,158.7599257999973,"[24, 0, 230]",230,a,0.0009054999973159283,colour,0.5
171,21,0,1,3,20,120,159.2825034999987,159.91181479999796,"[72, 0, 182]",182,l,0.10602239999570884,colour,0.5
171,21,0,1,3,21,121,160.42301969998516,161.11985269997967,"[29, 0, 225]",225,a,0.1734567999956198,colour,0.5
171,21,0,1,3,22,122,161.62626859999727,162.20004749999498,"[23, 0, 231]",231,a,0.05083799999556504,colour,0.5
171,21,0,1,3,23,123,162.71999979999964,163.31985369999893,"[40, 0, 214]",214,a,0.07646740000927821,colour,0.5
171,21,0,1,3,24,124,163.82929719999083,164.41589899998507,"[32, 0, 222]",222,a,0.06310369999846444,colour,0.5
171,21,0,1,3,25,125,164.92316589999245,165.6638505999872,"[86, 0, 168]",168,l,0.21796690000337549,colour,0.5
171,21,0,1,3,26,126,166.1730873999768,166.78398409998044,"[15, 0, 239]",239,a,0.08769449999090284,colour,0.5
171,21,0,1,3,27,127,167.2980961999856,167.967903199984,"[92, 0, 162]",162,l,0.14675139999599196,colour,0.5
171,21,0,1,3,28,128,168.48552849999396,169.1518787999812,"[87, 0, 167]",167,l,0.14295809998293407,colour,0.5
171,21,0,1,3,29,129,169.6730992999801,170.1999491000024,"[14, 0, 240]",240,a,0.003650500002549961,colour,0.5
171,21,0,1,3,30,130,170.7200311999768,171.24822449998464,"[85, 0, 169]",169,l,0.004931600007694215,colour,0.5
171,21,0,1,3,31,131,171.7669105999812,172.4798643999966,"[3, 0, 251]",251,a,0.19012519999523647,colour,0.5
171,21,0,1,3,32,132,173.00118880000082,173.54394399997545,"[13, 0, 241]",241,a,0.019442099990556017,colour,0.5
171,21,0,1,3,33,133,174.06366849999176,174.6318173999898,"[33, 0, 221]",221,a,0.04487630000221543,colour,0.5
171,21,0,1,3,34,134,175.1417447999993,176.3758263999771,"[10, 0, 244]",244,a,0.7108236999774817,colour,0.5
171,21,0,1,3,35,135,176.89179979998153,177.69587609998416,"[74, 0, 180]",180,l,0.2807703999860678,colour,0.5
171,21,0,1,3,36,136,178.20428009997704,178.73588989998098,"[73, 0, 181]",181,a,0.008305700001074001,colour,0.5
171,21,0,1,3,37,137,179.25121009998838,179.99987729999702,"[94, 0, 160]",160,l,0.2253270000219345,colour,0.5
171,21,0,1,3,38,138,180.51678710000124,181.18386199997622,"[56, 0, 198]",198,a,0.14376829998218454,colour,0.5
171,21,0,1,3,39,139,181.70426769999904,182.40784829997574,"[8, 0, 246]",246,a,0.1807892999786418,colour,0.5
171,21,0,1,3,40,140,182.92298979999032,183.51984579997952,"[5, 0, 249]",249,a,0.07352569999056868,colour,0.5
171,21,0,1,3,41,141,184.0324230999977,184.6638374000031,"[61, 0, 193]",193,a,0.10839280000072904,colour,0.5
171,21,0,1,3,42,142,185.17302749998635,185.7278325999796,"[55, 0, 199]",199,a,0.03193009999813512,colour,0.5
171,21,0,1,3,43,143,186.2357451999851,186.90390529998695,"[93, 0, 161]",161,l,0.14495849999366328,colour,0.5
171,21,0,1,3,44,144,187.4230301999778,188.07186989998445,"[47, 0, 207]",207,a,0.12557790000573732,colour,0.5
171,21,0,1,3,45,145,188.57921389999683,189.27987549998215,"[1, 0, 253]",253,a,0.17747009999584407,colour,0.5
171,21,0,1,3,46,146,189.79800959999557,190.36781480000354,"[11, 0, 243]",243,a,0.04645280001568608,colour,0.5
171,21,0,1,3,47,147,190.87613150000107,192.10388719997718,"[41, 0, 213]",213,a,0.704697799985297,colour,0.5
171,21,0,1,3,48,148,192.6105231999827,193.2798538999923,"[71, 0, 183]",183,l,0.14593269999022596,colour,0.5
171,21,0,1,3,49,149,193.79990689997794,194.52787429999444,"[90, 0, 164]",164,a,0.20459290000144392,colour,0.5
171,21,0,1,3,50,150,195.03419779997785,195.7998192999803,"[76, 0, 178]",178,a,0.242422399984207,colour,0.5
171,21,0,1,4,1,151,200.4865601999918,201.09593819998554,"[61, 0, 193]",193,l,0.08499679999658838,colour,0.5
171,21,0,1,4,2,152,201.61251969999284,202.21581979998155,"[38, 0, 216]",216,a,0.08005530000082217,colour,0.5
171,21,0,1,4,3,153,202.72174609999638,203.29589109998778,"[48, 0, 206]",206,a,0.05087710000225343,colour,0.5
171,21,0,1,4,4,154,203.81557619999512,204.47184889999335,"[78, 0, 176]",176,l,0.13302730000577867,colour,0.5
171,21,0,1,4,5,155,204.98734369999147,205.61580010000034,"[27, 0, 227]",227,a,0.10534950002329424,colour,0.5
171,21,0,1,4,6,156,206.1280112999957,206.67991459998302,"[93, 0, 161]",161,a,0.028499299980467185,colour,0.5
171,21,0,1,4,7,157,207.19049979999545,207.8638731999963,"[90, 0, 164]",164,l,0.15052940000896342,colour,0.5
171,21,0,1,4,8,158,208.3780257999897,209.11992539998027,"[92, 0, 162]",162,l,0.21839229998295195,colour,0.5
171,21,0,1,4,9,159,209.62794859998394,210.2158620999835,"[29, 0, 225]",225,a,0.06443850000505336,colour,0.5
171,21,0,1,4,10,160,210.73731949998182,211.3278532999975,"[14, 0, 240]",240,a,0.06700380000984296,colour,0.5
171,21,0,1,4,11,161,211.84670379999443,213.12790559997666,"[53, 0, 201]",201,a,0.7587520999950357,colour,0.5
171,21,0,1,4,12,162,213.64352679997683,214.22386129997903,"[22, 0, 232]",232,a,0.056956399988848716,colour,0.5
171,21,0,1,4,13,163,214.7373386999825,215.27187559998129,"[31, 0, 223]",223,a,0.011797299986938015,colour,0.5
171,21,0,1,4,14,164,215.78432349997456,216.34386890000314,"[13, 0, 241]",241,a,0.03637360001448542,colour,0.5
171,21,0,1,4,15,165,216.86228010000195,217.51197249998222,"[67, 0, 187]",187,l,0.1260850999969989,colour,0.5
171,21,0,1,4,16,166,218.0184556999884,218.66383779997705,"[15, 0, 239]",239,a,0.12257409997982904,colour,0.5
171,21,0,1,4,17,167,219.17480229999637,219.79983079998055,"[77, 0, 177]",177,l,0.10266639999463223,colour,0.5
171,21,0,1,4,18,168,220.3153006999928,220.95183899998665,"[98, 0, 156]",156,l,0.11358060000929981,colour,0.5
171,21,0,1,4,19,169,221.47158529999433,222.09587910000118,"[51, 0, 203]",203,a,0.10172810000949539,colour,0.5
171,21,0,1,4,20,170,222.61242649998167,223.1518748999806,"[79, 0, 175]",175,a,0.02556660000118427,colour,0.5
171,21,0,1,4,21,171,223.66542309999932,224.2878896999755,"[33, 0, 221]",221,a,0.09914919998846017,colour,0.5
171,21,0,1,4,22,172,224.80601420000312,225.6479450999759,"[83, 0, 171]",171,l,0.31868699999176897,colour,0.5
171,21,0,1,4,23,173,226.16538189997664,226.95990809999057,"[86, 0, 168]",168,l,0.2716165999881923,colour,0.5
171,21,0,1,4,24,174,227.47790959998383,228.04785699999775,"[82, 0, 172]",172,l,0.047031099995365366,colour,0.5
171,21,0,1,4,25,175,228.5560682999785,229.8798546999751,"[39, 0, 215]",215,a,0.8108437999908347,colour,0.5
171,21,0,1,4,26,176,230.38940669997828,230.97588119999273,"[81, 0, 173]",173,l,0.06338539998978376,colour,0.5
171,21,0,1,4,27,177,231.48307369998656,232.2558166999952,"[37, 0, 217]",217,a,0.24939240000094287,colour,0.5
171,21,0,1,4,28,178,232.764365799987,233.29635279998183,"[45, 0, 209]",209,a,0.009207299997797236,colour,0.5
171,21,0,1,4,29,179,233.81125719999545,234.34388469997793,"[75, 0, 179]",179,l,0.009603999991668388,colour,0.5
171,21,0,1,4,30,180,234.8581462999864,235.55182929997682,"[62, 0, 192]",192,l,0.17031109999516048,colour,0.5
171,21,0,1,4,31,181,236.0613462999754,236.7358248999808,"[12, 0, 242]",242,a,0.1511785000038799,colour,0.5
171,21,0,1,4,32,182,237.24879039998632,237.83179799999925,"[42, 0, 212]",212,a,0.05964930000482127,colour,0.5
171,21,0,1,4,33,183,238.34251389998826,238.8958468999772,"[56, 0, 198]",198,a,0.029978099977597594,colour,0.5
171,21,0,1,4,34,184,239.40503429999808,239.94389739999315,"[69, 0, 185]",185,a,0.015521799999987707,colour,0.5
171,21,0,1,4,35,185,240.45194719999563,240.97587829999975,"[7, 0, 247]",247,a,0.0006539000023622066,colour,0.5
171,21,0,1,4,36,186,241.49885779997567,242.04784449998988,"[52, 0, 202]",202,a,0.025660999992396683,colour,0.5
171,21,0,1,4,37,187,242.5612852999766,243.16781980000087,"[70, 0, 184]",184,l,0.08309759999974631,colour,0.5
171,21,0,1,4,38,188,243.68629959999816,244.29589269999997,"[1, 0, 253]",253,a,0.08618740001111291,colour,0.5
171,21,0,1,4,39,189,244.81125469997642,245.45585399999982,"[96, 0, 158]",158,l,0.12111850001383573,colour,0.5
171,21,0,1,4,40,190,245.96750739999698,246.6878665999975,"[55, 0, 199]",199,a,0.1969468000170309,colour,0.5
171,21,0,1,4,41,191,247.2019322999986,247.8638082999969,"[46, 0, 208]",208,a,0.13935240000137128,colour,0.5
171,21,0,1,4,42,192,248.37373289998504,249.00781009998173,"[11, 0, 243]",243,a,0.11095859998022206,colour,0.5
171,21,0,1,4,43,193,249.51437409999198,250.05580089997966,"[63, 0, 191]",191,a,0.018066999997245148,colour,0.5
171,21,0,1,4,44,194,250.5769032999815,251.15980029999628,"[95, 0, 159]",159,l,0.059512300009373575,colour,0.5
171,21,0,1,4,45,195,251.67062109999824,252.27178909999202,"[18, 0, 236]",236,a,0.07806040000286885,colour,0.5
171,21,0,1,4,46,196,252.7799948999891,253.41581299999962,"[41, 0, 213]",213,a,0.11240680000628345,colour,0.5
171,21,0,1,4,47,197,253.93617049997556,255.30384549999144,"[8, 0, 246]",246,a,0.8441672000044491,colour,0.5
171,21,0,1,4,48,198,255.81126659997972,257.135835699999,"[2, 0, 252]",252,a,0.8011946000042371,colour,0.5
171,21,0,1,4,49,199,257.6550016999827,258.2158449999988,"[47, 0, 207]",207,a,0.03750259999651462,colour,0.5
171,21,0,1,4,50,200,258.73310529999435,259.7598644999962,"[3, 0, 251]",251,a,0.503430600016145,colour,0.5
171,21,0,1,5,1,201,264.4197798999958,265.05581049999455,"[84, 0, 170]",170,l,0.11183949999394827,colour,0.5
171,21,0,1,5,2,202,265.57661859999644,266.18382489998476,"[3, 0, 251]",251,a,0.08360240000183694,colour,0.5
171,21,0,1,5,3,203,266.7018039999821,267.3918350999884,"[53, 0, 201]",201,a,0.1667330999916885,colour,0.5
171,21,0,1,5,4,204,267.90496059998986,268.43185629998334,"[82, 0, 172]",172,l,0.0038613000069744885,colour,0.5
171,21,0,1,5,5,205,268.9519485999772,269.60782069998095,"[83, 0, 171]",171,l,0.13268449998577125,colour,0.5
171,21,0,1,5,6,206,270.1237128999783,270.81580539999413,"[73, 0, 181]",181,l,0.16828090001945384,colour,0.5
171,21,0,1,5,7,207,271.3276913999871,272.02374599999166,"[48, 0, 206]",206,a,0.17018459999235347,colour,0.5
171,21,0,1,5,8,208,272.5337940999889,273.12783889999264,"[85, 0, 169]",169,l,0.07060450001154095,colour,0.5
171,21,0,1,5,9,209,273.6431317999959,274.24785109999357,"[13, 0, 241]",241,a,0.08127739999326877,colour,0.5
171,21,0,1,5,10,210,274.76813630000106,275.33582479998586,"[51, 0, 203]",203,a,0.04419640000560321,colour,0.5
171,21,0,1,5,11,211,275.8463587999868,276.45575169997755,"[95, 0, 159]",159,l,0.08590169998933561,colour,0.5
171,21,0,1,5,12,212,276.97131490000174,277.55183260000194,"[17, 0, 237]",237,a,0.0571236000105273,colour,0.5
171,21,0,1,5,13,213,278.06511639998644,278.9837798999797,"[36, 0, 218]",218,a,0.39538449997780845,colour,0.5
171,21,0,1,5,14,214,279.5026456999767,280.11186299999827,"[8, 0, 246]",246,a,0.08598430000711232,colour,0.5
171,21,0,1,5,15,215,280.62761460000183,281.1758507999766,"[88, 0, 166]",166,l,0.024931599997216836,colour,0.5
171,21,0,1,5,16,216,281.6901560999977,282.35186329999124,"[97, 0, 157]",157,l,0.13886649999767542,colour,0.5
171,21,0,1,5,17,217,282.8619176999782,283.4718024999893,"[18, 0, 236]",236,a,0.08655410000937991,colour,0.5
171,21,0,1,5,18,218,283.98700689998805,284.59976219999953,"[33, 0, 221]",221,a,0.08979950001230463,colour,0.5
171,21,0,1,5,19,219,285.1119699999981,285.64820319999126,"[0, 0, 254]",254,a,0.012785099999746308,colour,0.5
171,21,0,1,5,20,220,286.15881359999184,286.91975849997834,"[68, 0, 186]",186,l,0.2379149999760557,colour,0.5
171,21,0,1,5,21,221,287.4400463999773,288.0077607999847,"[2, 0, 252]",252,a,0.04452840000158176,colour,0.5
171,21,0,1,5,22,222,288.5181767999893,289.215778999991,"[41, 0, 213]",213,a,0.17435469999327324,colour,0.5
171,21,0,1,5,23,223,289.73698279997916,291.03181669997866,"[29, 0, 225]",225,a,0.7714957999996841,colour,0.5
171,21,0,1,5,24,224,291.5494247000024,292.23978659999557,"[60, 0, 194]",194,a,0.16707019999739714,colour,0.5
171,21,0,1,5,25,225,292.75254289997974,293.3597868999932,"[43, 0, 211]",211,a,0.08421420000377111,colour,0.5
171,21,0,1,5,26,226,293.8775373999961,294.4157997999864,"[4, 0, 250]",250,a,0.014907700009644032,colour,0.5
171,21,0,1,5,27,227,294.9243682999804,295.87988409999525,"[91, 0, 163]",163,l,0.4320708000159357,colour,0.5
171,21,0,1,5,28,228,296.393190999981,297.1678181999887,"[76, 0, 178]",178,l,0.25132579999626614,colour,0.5
171,21,0,1,5,29,229,297.674386699975,298.51189399999566,"[59, 0, 195]",195,a,0.3143415999948047,colour,0.5
171,21,0,1,5,30,230,299.01808039998286,299.6718725999817,"[87, 0, 167]",167,l,0.13045309999142773,colour,0.5
171,21,0,1,5,31,231,300.1899989999947,300.96784719999414,"[12, 0, 242]",242,l,0.25476609999896027,colour,0.5
171,21,0,1,5,32,232,301.48687569997855,303.10381279999274,"[47, 0, 207]",207,a,1.0936782000062522,colour,0.5
171,21,0,1,5,33,233,303.61198279997916,304.1997320999799,"[44, 0, 210]",210,a,0.0645160999847576,colour,0.5
171,21,0,1,5,34,234,304.72117589999107,305.3277782999794,"[27, 0, 227]",227,a,0.08318079999298789,colour,0.5
171,21,0,1,5,35,235,305.846192099998,306.4237962999905,"[24, 0, 230]",230,a,0.054131000011693686,colour,0.5
171,21,0,1,5,36,236,306.9400329999917,308.3198121000023,"[40, 0, 214]",214,a,0.8567465000087395,colour,0.5
171,21,0,1,5,37,237,308.8306431999954,309.46378879999975,"[90, 0, 164]",164,l,0.11025389999849722,colour,0.5
171,21,0,1,5,38,238,309.971209499985,310.5598045999941,"[34, 0, 220]",220,a,0.06527479999931529,colour,0.5
171,21,0,1,5,39,239,311.0805219000031,311.6318349999783,"[94, 0, 160]",160,l,0.027975899982266128,colour,0.5
171,21,0,1,5,40,240,312.1430688999826,313.73585810000077,"[19, 0, 235]",235,a,1.0696161000232678,colour,0.5
171,21,0,1,5,41,241,314.2525246999867,315.43179209998925,"[65, 0, 189]",189,a,0.6560000999888871,colour,0.5
171,21,0,1,5,42,242,315.93993969997973,316.5998124999751,"[20, 0, 234]",234,a,0.13672919999225996,colour,0.5
171,21,0,1,5,43,243,317.11190910000005,317.7437740000023,"[61, 0, 193]",193,a,0.10856230001081713,colour,0.5
171,21,0,1,5,44,244,318.2525057999883,318.99976239999523,"[77, 0, 177]",177,l,0.22367470001336187,colour,0.5
171,21,0,1,5,45,245,319.51807059999555,320.0797673999914,"[64, 0, 190]",190,l,0.03836179999052547,colour,0.5
171,21,0,1,5,46,246,320.59612760000164,321.12779389999923,"[25, 0, 229]",229,a,0.008127500012051314,colour,0.5
171,21,0,1,5,47,247,321.6430756999762,322.19981779999216,"[96, 0, 158]",158,l,0.033409499999834225,colour,0.5
171,21,0,1,5,48,248,322.72123749999446,323.27189609999186,"[99, 0, 155]",155,l,0.027425300009781495,colour,0.5
171,21,0,1,5,49,249,323.78370909998193,324.43980379999266,"[30, 0, 224]",224,a,0.13269120000768453,colour,0.5
171,21,0,1,5,50,250,324.9556607999839,325.61587509998935,"[75, 0, 179]",179,a,0.13706229999661446,colour,0.5
171,21,0,1,6,1,251,331.2515844999871,332.1997923000017,"[58, 0, 196]",196,l,0.4240388000034727,colour,0.5
171,21,0,1,6,2,252,332.7212642999948,333.3037476000027,"[83, 0, 171]",171,l,0.059342200023820624,colour,0.5
171,21,0,1,6,3,253,333.81497669999953,334.43975179997506,"[51, 0, 203]",203,a,0.10151259999838658,colour,0.5
171,21,0,1,6,4,254,334.9554608000035,335.5038009999844,"[99, 0, 155]",155,a,0.025073600001633167,colour,0.5
171,21,0,1,6,5,255,336.0179573999776,336.76776299998164,"[26, 0, 228]",228,a,0.22639140000683255,colour,0.5
171,21,0,1,6,6,256,337.28364650000003,337.89581979997456,"[89, 0, 165]",165,l,0.08965639999951236,colour,0.5
171,21,0,1,6,7,257,338.40865339999436,339.01574360000086,"[23, 0, 231]",231,a,0.08375570000498556,colour,0.5
171,21,0,1,6,8,258,339.5336995999969,340.12778509999043,"[48, 0, 206]",206,a,0.07068179998896085,colour,0.5
171,21,0,1,6,9,259,340.6438199999975,341.30378109999583,"[66, 0, 188]",188,a,0.137419000006048,colour,0.5
171,21,0,1,6,10,260,341.81481029998395,342.3518305999751,"[11, 0, 243]",243,a,0.013576799974543974,colour,0.5
171,21,0,1,6,11,261,342.8618703999964,343.40781179998885,"[57, 0, 197]",197,a,0.022884300007717684,colour,0.5
171,21,0,1,6,12,262,343.9242730999831,345.4957655000035,"[50, 0, 204]",204,a,1.0481984000070952,colour,0.5
171,21,0,1,6,13,263,346.0024135999847,346.6958278999955,"[63, 0, 191]",191,a,0.1701906000089366,colour,0.5
171,21,0,1,6,14,264,347.2054827999964,347.76779039998655,"[25, 0, 229]",229,a,0.048708499991334975,colour,0.5
171,21,0,1,6,15,265,348.2892099999881,348.81582629997865,"[38, 0, 216]",216,a,0.0035997999948449433,colour,0.5
171,21,0,1,6,16,266,349.3362605999864,351.15981459998875,"[5, 0, 249]",249,a,1.300136800011387,colour,0.5
171,21,0,1,6,17,267,351.6799744000018,352.38375719997566,"[78, 0, 176]",176,l,0.1803201999864541,colour,0.5
171,21,0,1,6,18,268,352.8987199999974,353.43983509999816,"[60, 0, 194]",194,l,0.017710700019961223,colour,0.5
171,21,0,1,6,19,269,353.9612041999935,354.6638058999961,"[77, 0, 177]",177,l,0.17908279999392107,colour,0.5
171,21,0,1,6,20,270,355.17998909999733,355.8717712999787,"[96, 0, 158]",158,l,0.16830229997867718,colour,0.5
171,21,0,1,6,21,271,356.3830906999938,356.9197761999967,"[2, 0, 252]",252,a,0.013250899995910004,colour,0.5
171,21,0,1,6,22,272,357.42991939999047,358.13576049997937,"[28, 0, 226]",226,a,0.18227969997678883,colour,0.5
171,21,0,1,6,23,273,358.6487448999833,359.19179319997784,"[16, 0, 238]",238,a,0.01972009998280555,colour,0.5
171,21,0,1,6,24,274,359.71121829998447,360.2398017999949,"[61, 0, 193]",193,a,0.0050688000046648085,colour,0.5
171,21,0,1,6,25,275,360.75814789999276,361.3118549999781,"[34, 0, 220]",220,a,0.03038159999414347,colour,0.5
171,21,0,1,6,26,276,361.82062600000063,363.36779379998916,"[27, 0, 227]",227,a,1.0241411000024527,colour,0.5
171,21,0,1,6,27,277,363.88314849999733,364.41580489999615,"[79, 0, 175]",175,a,0.00929570000153035,colour,0.5
171,21,0,1,6,28,278,364.92988349997904,365.5757788999763,"[22, 0, 232]",232,a,0.12230199997429736,colour,0.5
171,21,0,1,6,29,279,366.0862399000034,367.5357950999751,"[18, 0, 236]",236,a,0.9261461999849416,colour,0.5
171,21,0,1,6,30,280,368.05499939998845,368.6877785999968,"[65, 0, 189]",189,a,0.10940290000871755,colour,0.5
171,21,0,1,6,31,281,369.1956076999777,369.935722299997,"[95, 0, 159]",159,l,0.21662110000033863,colour,0.5
171,21,0,1,6,32,282,370.4455902999907,371.0317821999779,"[68, 0, 186]",186,l,0.06280319998040795,colour,0.5
171,21,0,1,6,33,283,371.5393555999908,372.1757517999795,"[84, 0, 170]",170,l,0.11318539999774657,colour,0.5
171,21,0,1,6,34,284,372.6955396999838,373.34376150000026,"[8, 0, 246]",246,a,0.12478169999667443,colour,0.5
171,21,0,1,6,35,285,373.8518816999858,374.67173259999254,"[98, 0, 156]",156,l,0.2965832999907434,colour,0.5
171,21,0,1,6,36,286,375.17986489998293,375.8158007999882,"[90, 0, 164]",164,l,0.11233629999333061,colour,0.5
171,21,0,1,6,37,287,376.3361664999975,376.90380079997703,"[13, 0, 241]",241,a,0.044165699975565076,colour,0.5
171,21,0,1,6,38,288,377.4149229999748,377.95981499998015,"[32, 0, 222]",222,a,0.022573399997781962,colour,0.5
171,21,0,1,6,39,289,378.4767142999917,379.1277598000015,"[54, 0, 200]",200,l,0.1275088000111282,colour,0.5
171,21,0,1,6,40,290,379.6486459999869,380.31981739998446,"[59, 0, 195]",195,a,0.14778430000296794,colour,0.5
171,21,0,1,6,41,291,380.8361775999947,381.3677982999943,"[67, 0, 187]",187,a,0.008232099993620068,colour,0.5
171,21,0,1,6,42,292,381.88303569998243,382.47172780000255,"[21, 0, 233]",233,a,0.06563230001484044,colour,0.5
171,21,0,1,6,43,293,382.99233670000103,384.2077378999966,"[43, 0, 211]",211,a,0.6920474999933504,colour,0.5
171,21,0,1,6,44,294,384.7267802999995,385.2557698999881,"[6, 0, 248]",248,a,0.0056637999950908124,colour,0.5
171,21,0,1,6,45,295,385.7737132999755,386.3037598999799,"[14, 0, 240]",240,a,0.00715609997860156,colour,0.5
171,21,0,1,6,46,296,386.8205608999997,388.43176829998265,"[71, 0, 183]",183,a,1.0879572999838274,colour,0.5
171,21,0,1,6,47,297,388.9456131999905,389.53576749999775,"[20, 0, 234]",234,a,0.06678730002022348,colour,0.5
171,21,0,1,6,48,298,390.05499579999014,390.5917851999984,"[7, 0, 247]",247,a,0.013454600004479289,colour,0.5
171,21,0,1,6,49,299,391.10178329999326,391.63186589998077,"[39, 0, 215]",215,a,0.006692099996143952,colour,0.5
171,21,0,1,6,50,300,392.1486604999809,393.2397380999755,"[15, 0, 239]",239,a,0.5675950999720953,colour,0.5
171,21,0,1,7,1,301,411.9446398,413.0077687999874,"[33, 0, 221]",221,a,0.5388466999866068,colour,0.5
171,21,0,1,7,2,302,413.5236470999953,414.05573909997474,"[58, 0, 196]",196,a,0.009039599972311407,colour,0.5
171,21,0,1,7,3,303,414.5705082999775,415.2477459999791,"[82, 0, 172]",172,l,0.15387229999760166,colour,0.5
171,21,0,1,7,4,304,415.75789799998165,416.43976529999054,"[42, 0, 212]",212,a,0.15847379999468103,colour,0.5
171,21,0,1,7,5,305,416.96108300000196,417.72776159999194,"[78, 0, 176]",176,a,0.2432697000040207,colour,0.5
171,21,0,1,7,6,306,418.2422908000008,418.9119020999933,"[69, 0, 185]",185,a,0.14614820000133477,colour,0.5
171,21,0,1,7,7,307,419.4298017999972,420.1118787000014,"[96, 0, 158]",158,l,0.15849610001896508,colour,0.5
171,21,0,1,7,8,308,420.6329238000035,421.1997887000034,"[79, 0, 175]",175,l,0.04348650001338683,colour,0.5
171,21,0,1,7,9,309,421.7110784999968,422.31975119997514,"[46, 0, 208]",208,a,0.08533729999908246,colour,0.5
171,21,0,1,7,10,310,422.8360722999787,423.48776309998357,"[84, 0, 170]",170,l,0.12834649998694658,colour,0.5
171,21,0,1,7,11,311,424.0079516999831,424.67971609998494,"[12, 0, 242]",242,a,0.14836369999102317,colour,0.5
171,21,0,1,7,12,312,425.1955558999907,425.71980389999226,"[81, 0, 173]",173,l,0.001805200008675456,colour,0.5
171,21,0,1,7,13,313,426.24229219998233,426.9118924999784,"[52, 0, 202]",202,a,0.14614409999921918,colour,0.5
171,21,0,1,7,14,314,427.42972389998613,427.9917915999831,"[29, 0, 225]",225,a,0.03843119999510236,colour,0.5
171,21,0,1,7,15,315,428.5079355999769,429.0318664999795,"[71, 0, 183]",183,l,0.000631699978839606,colour,0.5
171,21,0,1,7,16,316,429.55477689998224,430.2477753999992,"[31, 0, 223]",223,a,0.16965870000422,colour,0.5
171,21,0,1,7,17,317,430.75803619998624,431.3837345999782,"[16, 0, 238]",238,a,0.10245569999096915,colour,0.5
171,21,0,1,7,18,318,431.898497999995,432.4317945999792,"[0, 0, 254]",254,a,0.009851799986790866,colour,0.5
171,21,0,1,7,19,319,432.94547199999215,433.5917323999747,"[41, 0, 213]",213,a,0.12318099997355603,colour,0.5
171,21,0,1,7,20,320,434.1016349999991,434.6557391999813,"[72, 0, 182]",182,l,0.030668799998238683,colour,0.5
171,21,0,1,7,21,321,435.1641931999766,435.89570339999045,"[62, 0, 192]",192,a,0.208170700003393,colour,0.5
171,21,0,1,7,22,322,436.41413009999087,436.99175999997533,"[44, 0, 210]",210,a,0.05427209998015314,colour,0.5
171,21,0,1,7,23,323,437.5078894000035,438.03988309999113,"[20, 0, 234]",234,a,0.008863299997756258,colour,0.5
171,21,0,1,7,24,324,438.55464419999043,439.13579679999384,"[98, 0, 156]",156,l,0.057669200003147125,colour,0.5
171,21,0,1,7,25,325,439.64850199999637,440.1757421999937,"[24, 0, 230]",230,a,0.004659500002162531,colour,0.5
171,21,0,1,7,26,326,440.69546349998564,441.3277784999809,"[36, 0, 218]",218,a,0.10925869998754933,colour,0.5
171,21,0,1,7,27,327,441.8360011999903,442.391698899999,"[38, 0, 216]",216,a,0.03255550001631491,colour,0.5
171,21,0,1,7,28,328,442.8985127999913,443.56772039999487,"[21, 0, 233]",233,a,0.14592239999910817,colour,0.5
171,21,0,1,7,29,329,444.08606049997616,445.47969989999547,"[5, 0, 249]",249,a,0.8702911000000313,colour,0.5
171,21,0,1,7,30,330,445.992211499979,446.6157346999971,"[43, 0, 211]",211,a,0.10015260000363924,colour,0.5
171,21,0,1,7,31,331,447.1327650999883,447.7037253000017,"[74, 0, 180]",180,l,0.04753430001437664,colour,0.5
171,21,0,1,7,32,332,448.2109190999763,448.8157622999861,"[39, 0, 215]",215,a,0.08212710000225343,colour,0.5
171,21,0,1,7,33,333,449.3359827999957,449.87970949997543,"[63, 0, 191]",191,a,0.020331299980171025,colour,0.5
171,21,0,1,7,34,334,450.39843889998156,451.047720499977,"[57, 0, 197]",197,a,0.12583739997353405,colour,0.5
171,21,0,1,7,35,335,451.5547389999847,453.15973620000295,"[35, 0, 219]",219,a,1.0817002000112552,colour,0.5
171,21,0,1,7,36,336,453.6796484999941,454.2557123999868,"[66, 0, 188]",188,a,0.052587399986805394,colour,0.5
171,21,0,1,7,37,337,454.7735081999854,455.36773869997705,"[86, 0, 168]",168,l,0.07107859998359345,colour,0.5
171,21,0,1,7,38,338,455.882858500001,456.43970029999036,"[85, 0, 169]",169,l,0.03342039999552071,colour,0.5
171,21,0,1,7,39,339,456.9608573000005,457.6877260999754,"[92, 0, 162]",162,l,0.2032879999896977,colour,0.5
171,21,0,1,7,40,340,458.19539019998047,459.05572149998625,"[75, 0, 179]",179,l,0.3369611999951303,colour,0.5
171,21,0,1,7,41,341,459.5703108999878,461.27976429997943,"[83, 0, 171]",171,l,1.1860220999806188,colour,0.5
171,21,0,1,7,42,342,461.78900160000194,462.51188599999296,"[26, 0, 228]",228,a,0.19955119999940507,colour,0.5
171,21,0,1,7,43,343,463.0234156999795,463.64774239997496,"[8, 0, 246]",246,a,0.10109969999757595,colour,0.5
171,21,0,1,7,44,344,464.1640042999934,464.87176789998193,"[4, 0, 250]",250,a,0.1855290999810677,colour,0.5
171,21,0,1,7,45,345,465.3827362000011,465.99177809999674,"[10, 0, 244]",244,a,0.08538190001854673,colour,0.5
171,21,0,1,7,46,346,466.5077881999896,467.1917128999776,"[6, 0, 248]",248,a,0.16059099999256432,colour,0.5
171,21,0,1,7,47,347,467.7109002999787,468.31176399998367,"[68, 0, 186]",186,l,0.07745789998443797,colour,0.5
171,21,0,1,7,48,348,468.8202950999839,469.415723299986,"[55, 0, 199]",199,l,0.07208300000638701,colour,0.5
171,21,0,1,7,49,349,469.929510499991,470.5837097999756,"[17, 0, 237]",237,a,0.13070569999399595,colour,0.5
171,21,0,1,7,50,350,471.1020910999796,471.6957109999785,"[76, 0, 178]",178,a,0.07037129998207092,colour,0.5
171,21,0,1,8,1,351,476.30432749999454,477.0477065999876,"[61, 0, 193]",193,a,0.2190829000028316,colour,0.5
171,21,0,1,8,2,352,477.5551816999796,478.31969199999,"[37, 0, 217]",217,a,0.2416613000095822,colour,0.5
171,21,0,1,8,3,353,478.83638649998466,480.13579259999096,"[32, 0, 222]",222,a,0.7765825999958906,colour,0.5
171,21,0,1,8,4,354,480.64893519997713,481.6557785999903,"[25, 0, 229]",229,a,0.48350410000421107,colour,0.5
171,21,0,1,8,5,355,482.1645998999884,482.6877256000007,"[22, 0, 232]",232,a,0.0007220999978017062,colour,0.5
171,21,0,1,8,6,356,483.21143179998035,483.7677190999966,"[26, 0, 228]",228,a,0.03358089999528602,colour,0.5
171,21,0,1,8,7,357,484.27395069997874,484.8317657999869,"[18, 0, 236]",236,a,0.03479299999889918,colour,0.5
171,21,0,1,8,8,358,485.3527624999988,485.9117714999884,"[66, 0, 188]",188,a,0.03650089999428019,colour,0.5
171,21,0,1,8,9,359,486.4300656999985,488.2957215999777,"[40, 0, 214]",214,a,1.342198099999223,colour,0.5
171,21,0,1,8,10,360,488.80520579998847,489.3437965999765,"[6, 0, 248]",248,a,0.01549159997375682,colour,0.5
171,21,0,1,8,11,361,489.8520662999945,490.4717242999759,"[79, 0, 175]",175,l,0.09643289999803528,colour,0.5
171,21,0,1,8,12,362,490.9927268999745,491.58369859997765,"[68, 0, 186]",186,l,0.06779259999166243,colour,0.5
171,21,0,1,8,13,363,492.1019111999776,492.6637160999817,"[67, 0, 187]",187,l,0.0390375999850221,colour,0.5
171,21,0,1,8,14,364,493.18006179999793,493.7676955999923,"[77, 0, 177]",177,l,0.06411229999503121,colour,0.5
171,21,0,1,8,15,365,494.2739339999971,494.7996717999922,"[65, 0, 189]",189,l,0.0028064000071026385,colour,0.5
171,21,0,1,8,16,366,495.3207043999864,496.22369620000245,"[28, 0, 226]",226,a,0.3798199000011664,colour,0.5
171,21,0,1,8,17,367,496.74276480000117,497.3037073999876,"[47, 0, 207]",207,a,0.03777049999916926,colour,0.5
171,21,0,1,8,18,368,497.8207481999998,499.16771199999494,"[3, 0, 251]",251,a,0.8220339000108652,colour,0.5
171,21,0,1,8,19,369,499.68000969997956,500.3036828999757,"[74, 0, 180]",180,l,0.10082469999906607,colour,0.5
171,21,0,1,8,20,370,500.8207411999756,501.4796803999925,"[23, 0, 231]",231,a,0.13554600000497885,colour,0.5
171,21,0,1,8,21,371,501.9924630000023,502.5357046999852,"[36, 0, 218]",218,a,0.020042599993757904,colour,0.5
171,21,0,1,8,22,372,503.0551312000025,503.6236833999865,"[50, 0, 204]",204,a,0.04561239999020472,colour,0.5
171,21,0,1,8,23,373,504.1332307999837,504.6644538999826,"[59, 0, 195]",195,a,0.007884799997555092,colour,0.5
171,21,0,1,8,24,374,505.1957946999755,506.6077166000032,"[5, 0, 249]",249,a,0.8890651000256184,colour,0.5
171,21,0,1,8,25,375,507.1177217999939,507.83175819998723,"[75, 0, 179]",179,l,0.19104689999949187,colour,0.5
171,21,0,1,8,26,376,508.3520045999903,509.2236828999885,"[39, 0, 215]",215,l,0.34868950000964105,colour,0.5
171,21,0,1,8,27,377,509.7426322999818,510.4637126000016,"[34, 0, 220]",220,a,0.1978808999992907,colour,0.5
171,21,0,1,8,28,378,510.97687699997914,511.5276673999906,"[29, 0, 225]",225,a,0.027511599997524172,colour,0.5
171,21,0,1,8,29,379,512.0394149999775,512.6557352999807,"[62, 0, 192]",192,a,0.09337829999276437,colour,0.5
171,21,0,1,8,30,380,513.1643850999826,514.6797261999745,"[31, 0, 223]",223,a,0.9920334999915212,colour,0.5
171,21,0,1,8,31,381,515.1957937999978,515.7517580999993,"[9, 0, 245]",245,a,0.032596200006082654,colour,0.5
171,21,0,1,8,32,382,516.2581968999875,516.8076899999869,"[69, 0, 185]",185,a,0.02619800000684336,colour,0.5
171,21,0,1,8,33,383,517.3207264999801,517.9196776000026,"[33, 0, 221]",221,a,0.07585780002409592,colour,0.5
171,21,0,1,8,34,384,518.4300783999788,519.0556872999878,"[91, 0, 163]",163,l,0.10272480000276119,colour,0.5
171,21,0,1,8,35,385,519.5707778999931,520.2236919999996,"[52, 0, 202]",202,a,0.12958890001755208,colour,0.5
171,21,0,1,8,36,386,520.7426107999927,521.4877306999988,"[81, 0, 173]",173,l,0.2217848000000231,colour,0.5
171,21,0,1,8,37,387,522.0081185000017,523.4076893999882,"[7, 0, 247]",247,a,0.8765820999979042,colour,0.5
171,21,0,1,8,38,388,523.914452099998,524.58367979998,"[12, 0, 242]",242,a,0.1460081999830436,colour,0.5
171,21,0,1,8,39,389,525.1019498999813,525.6876839000033,"[94, 0, 160]",160,l,0.0628327000013087,colour,0.5
171,21,0,1,8,40,390,526.1956718000001,526.9119240999862,"[78, 0, 176]",176,l,0.19286459998693317,colour,0.5
171,21,0,1,8,41,391,527.4299820000015,528.4237367000023,"[54, 0, 200]",200,a,0.4707578000088688,colour,0.5
171,21,0,1,8,42,392,528.9300999999978,529.623689799977,"[11, 0, 243]",243,a,0.17019359997357242,colour,0.5
171,21,0,1,8,43,393,530.1331437999906,531.1996707999788,"[55, 0, 199]",199,a,0.5431854999915231,colour,0.5
171,21,0,1,8,44,394,531.711292299995,532.3197004999965,"[56, 0, 198]",198,a,0.08499990002019331,colour,0.5
171,21,0,1,8,45,395,532.8362873999868,533.5277255999972,"[82, 0, 172]",172,l,0.16812950000166893,colour,0.5
171,21,0,1,8,46,396,534.039350099978,534.6157339999918,"[88, 0, 166]",166,l,0.05339159999857657,colour,0.5
171,21,0,1,8,47,397,535.1331087999861,535.799683899997,"[13, 0, 241]",241,a,0.1431620000221301,colour,0.5
171,21,0,1,8,48,398,536.3205678999948,536.9437103999953,"[99, 0, 155]",155,l,0.09974430000875145,colour,0.5
171,21,0,1,8,49,399,537.4612131000031,538.3117524999834,"[44, 0, 210]",210,a,0.32713620000868104,colour,0.5
171,21,0,1,8,50,400,538.8205703999847,539.4716883999936,"[57, 0, 197]",197,a,0.12778080001589842,colour,0.5
171,21,0,1,9,1,401,544.5854988999781,545.4237366000016,"[77, 0, 177]",177,l,0.3140535000129603,colour,0.5
171,21,0,1,9,2,402,545.9299664999999,546.5036337999918,"[88, 0, 166]",166,l,0.050161999999545515,colour,0.5
171,21,0,1,9,3,403,547.0237433000002,547.7836738999758,"[46, 0, 208]",208,a,0.2367870999732986,colour,0.5
171,21,0,1,9,4,404,548.3049702999997,548.8796520999749,"[52, 0, 202]",202,a,0.051541499997256324,colour,0.5
171,21,0,1,9,5,405,549.398640200001,550.407687400002,"[97, 0, 157]",157,l,0.4855712999997195,colour,0.5
171,21,0,1,9,6,406,550.9142797999957,551.5357154999801,"[84, 0, 170]",170,l,0.09815710000111721,colour,0.5
171,21,0,1,9,7,407,552.0549332999799,552.6956592999923,"[96, 0, 158]",158,l,0.1180785000033211,colour,0.5
171,21,0,1,9,8,408,553.2112092000025,553.8157176999957,"[99, 0, 155]",155,l,0.08186170001863502,colour,0.5
171,21,0,1,9,9,409,554.3360757999762,554.9357134999882,"[29, 0, 225]",225,a,0.07612199999857694,colour,0.5
171,21,0,1,9,10,410,555.4456149000034,556.0476846999954,"[43, 0, 211]",211,a,0.07866220001596957,colour,0.5
171,21,0,1,9,11,411,556.5549756999826,557.1357620999916,"[63, 0, 191]",191,a,0.05752880001091398,colour,0.5
171,21,0,1,9,12,412,557.6487073999888,558.2476521999924,"[32, 0, 222]",222,a,0.07640520000131801,colour,0.5
171,21,0,1,9,13,413,558.7581604000006,559.2877039999876,"[78, 0, 176]",176,a,0.00674730000901036,colour,0.5
171,21,0,1,9,14,414,559.8049826999777,560.3836472999828,"[40, 0, 214]",214,a,0.05535609999787994,colour,0.5
171,21,0,1,9,15,415,560.8986481000029,561.4237183999794,"[70, 0, 184]",184,a,0.0017534999933559448,colour,0.5
171,21,0,1,9,16,416,561.9455606999982,563.5117577999772,"[37, 0, 217]",217,a,1.0428605999913998,colour,0.5
171,21,0,1,9,17,417,564.0237125999993,564.6956770999823,"[30, 0, 224]",224,a,0.14878019999014214,colour,0.5
171,21,0,1,9,18,418,565.2111737999949,565.7918553999916,"[67, 0, 187]",187,a,0.05770820000907406,colour,0.5
171,21,0,1,9,19,419,566.3048495999828,566.8397090999933,"[75, 0, 179]",179,a,0.011419499991461635,colour,0.5
171,21,0,1,9,20,420,567.3517506999779,568.1197767999838,"[79, 0, 175]",175,a,0.24461510000401177,colour,0.5
171,21,0,1,9,21,421,568.6330718999961,569.159676899988,"[35, 0, 219]",219,a,0.00330989999929443,colour,0.5
171,21,0,1,9,22,422,569.6798377999803,570.2557156999828,"[89, 0, 165]",165,l,0.05238360000657849,colour,0.5
171,21,0,1,9,23,423,570.7736846999906,571.4797567999922,"[12, 0, 242]",242,a,0.1830879999906756,colour,0.5
171,21,0,1,9,24,424,571.992419999995,572.6957246999955,"[10, 0, 244]",244,a,0.18003809999208897,colour,0.5
171,21,0,1,9,25,425,573.2111620999931,573.8796739999962,"[48, 0, 206]",206,a,0.14521030001924373,colour,0.5
171,21,0,1,9,26,426,574.3986357999966,575.3837025999965,"[81, 0, 173]",173,a,0.46162670000921935,colour,0.5
171,21,0,1,9,27,427,575.8986386999895,577.2877222999814,"[69, 0, 185]",185,a,0.8656259999843314,colour,0.5
171,21,0,1,9,28,428,577.8049251999764,578.407655499992,"[44, 0, 210]",210,a,0.07942449999973178,colour,0.5
171,21,0,1,9,29,429,578.9142251999874,580.6956478999928,"[56, 0, 198]",198,a,1.258217099995818,colour,0.5
171,21,0,1,9,30,430,581.2111256999779,582.319697400002,"[53, 0, 201]",201,a,0.5859939000220038,colour,0.5
171,21,0,1,9,31,431,582.8361578999902,583.559641699976,"[3, 0, 251]",251,a,0.20014099997933954,colour,0.5
171,21,0,1,9,32,432,584.0706230999785,584.6076794999826,"[26, 0, 228]",228,a,0.013791599980322644,colour,0.5
171,21,0,1,9,33,433,585.1175461999956,585.903642499994,"[17, 0, 237]",237,a,0.26294839999172837,colour,0.5
171,21,0,1,9,34,434,586.4142474999826,587.1198786000023,"[72, 0, 182]",182,a,0.18271800002548844,colour,0.5
171,21,0,1,9,35,435,587.6329192999983,588.3116764999868,"[87, 0, 167]",167,l,0.15532449999591336,colour,0.5
171,21,0,1,9,36,436,588.8205552999862,589.5356920999766,"[7, 0, 247]",247,a,0.19192369998199865,colour,0.5
171,21,0,1,9,37,437,590.0548921999871,590.6396548999764,"[83, 0, 171]",171,l,0.061444399994798005,colour,0.5
171,21,0,1,9,38,438,591.1486223999818,591.8716391999915,"[9, 0, 245]",245,a,0.19970530000864528,colour,0.5
171,21,0,1,9,39,439,592.382987399993,593.0156750000024,"[2, 0, 252]",252,a,0.10934940000879578,colour,0.5
171,21,0,1,9,40,440,593.52362729999,594.1196683000016,"[19, 0, 235]",235,a,0.07291040002019145,colour,0.5
171,21,0,1,9,41,441,594.6330123999796,595.2316845000023,"[39, 0, 215]",215,a,0.07538300001760945,colour,0.5
171,21,0,1,9,42,442,595.7424888999958,596.2717185999791,"[18, 0, 236]",236,a,0.006511199986562133,colour,0.5
171,21,0,1,9,43,443,596.7892566999944,597.3437050999783,"[66, 0, 188]",188,l,0.03182750000269152,colour,0.5
171,21,0,1,9,44,444,597.8517084999767,598.9996474999934,"[54, 0, 200]",200,a,0.6246056999952998,colour,0.5
171,21,0,1,9,45,445,599.5079566999921,600.1756490999833,"[11, 0, 243]",243,a,0.14427029999205843,colour,0.5
171,21,0,1,9,46,446,600.6955802000011,601.3276239999977,"[95, 0, 159]",159,l,0.10896450001746416,colour,0.5
171,21,0,1,9,47,447,601.8361287000007,602.4476323999988,"[90, 0, 164]",164,l,0.08849399999598972,colour,0.5
171,21,0,1,9,48,448,602.9609582999838,603.5276586999826,"[25, 0, 229]",229,a,0.043469399999594316,colour,0.5
171,21,0,1,9,49,449,604.0392222999944,604.7356679999793,"[34, 0, 220]",220,a,0.17328200000338256,colour,0.5
171,21,0,1,9,50,450,605.2423265999823,605.7757360999822,"[23, 0, 231]",231,a,0.010517399990931153,colour,0.5
171,21,0,1,10,1,451,610.5540000999754,611.7916614999995,"[16, 0, 238]",238,a,0.7134761000052094,colour,0.5
171,21,0,1,10,2,452,612.3047523999994,613.1996265999915,"[48, 0, 206]",206,a,0.372511299996404,colour,0.5
171,21,0,1,10,3,453,613.7111053999979,614.3756467999774,"[44, 0, 210]",210,a,0.14122609997866675,colour,0.5
171,21,0,1,10,4,454,614.8829390000028,616.9836381999776,"[37, 0, 217]",217,a,1.5776256999815814,colour,0.5
171,21,0,1,10,5,455,617.492327999993,618.1036592999881,"[7, 0, 247]",247,a,0.08803059998899698,colour,0.5
171,21,0,1,10,6,456,618.6172403999954,619.1676367999753,"[64, 0, 190]",190,l,0.02705279999645427,colour,0.5
171,21,0,1,10,7,457,619.6799084999948,620.3356123999984,"[26, 0, 228]",228,a,0.1331697000132408,colour,0.5
171,21,0,1,10,8,458,620.8515394999995,621.815646699979,"[5, 0, 249]",249,a,0.44087259998195805,colour,0.5
171,21,0,1,10,9,459,622.3359788999951,622.9436906999908,"[51, 0, 203]",203,a,0.08430519999819808,colour,0.5
171,21,0,1,10,10,460,623.4610238999885,624.1916183999856,"[50, 0, 204]",204,a,0.20723500000895,colour,0.5
171,21,0,1,10,11,461,624.7108999999764,626.3516672999831,"[19, 0, 235]",235,a,1.1172140999988187,colour,0.5
171,21,0,1,10,12,462,626.8681695999985,627.887684699992,"[56, 0, 198]",198,a,0.49728770001092926,colour,0.5
171,21,0,1,10,13,463,628.3984618999821,629.1436450999754,"[85, 0, 169]",169,l,0.22174759997869842,colour,0.5
171,21,0,1,10,14,464,629.664106399985,630.2077400999842,"[80, 0, 174]",174,l,0.020367999997688457,colour,0.5
171,21,0,1,10,15,465,630.7266612999956,631.4076056999911,"[30, 0, 224]",224,a,0.15773130001616664,colour,0.5
171,21,0,1,10,16,466,631.9141923999996,632.6636444999895,"[25, 0, 229]",229,a,0.22631989998626523,colour,0.5
171,21,0,1,10,17,467,633.1795921000012,633.8636218999745,"[67, 0, 187]",187,l,0.16053009999450296,colour,0.5
171,21,0,1,10,18,468,634.3828866999829,635.5036528999917,"[42, 0, 212]",212,a,0.5974261999945156,colour,0.5
171,21,0,1,10,19,469,636.0234831999987,636.6956211999932,"[97, 0, 157]",157,l,0.1489951999974437,colour,0.5
171,21,0,1,10,20,470,637.2108886999777,637.767667099979,"[93, 0, 161]",161,l,0.03403439998510294,colour,0.5
171,21,0,1,10,21,471,638.2889983999776,638.9516494999989,"[29, 0, 225]",225,a,0.1393318000191357,colour,0.5
171,21,0,1,10,22,472,639.4609497999772,640.1676168999984,"[78, 0, 176]",176,a,0.18328340002335608,colour,0.5
171,21,0,1,10,23,473,640.679693299986,641.3596039999975,"[69, 0, 185]",185,l,0.1567681000160519,colour,0.5
171,21,0,1,10,24,474,641.8673975999991,642.5035972999758,"[43, 0, 211]",211,a,0.11320579997845925,colour,0.5
171,21,0,1,10,25,475,643.0234706999909,643.6396132999798,"[92, 0, 162]",162,a,0.09301839998806827,colour,0.5
171,21,0,1,10,26,476,644.1484254999959,645.1518043999968,"[20, 0, 234]",234,a,0.48024330000043847,colour,0.5
171,21,0,1,10,27,477,645.6640678999829,646.3115888999891,"[82, 0, 172]",172,l,0.12502790000871755,colour,0.5
171,21,0,1,10,28,478,646.820269399992,648.1517172000022,"[15, 0, 239]",239,a,0.8077508000133093,colour,0.5
171,21,0,1,10,29,479,648.6641120999993,649.2636620999838,"[53, 0, 201]",201,a,0.0763779999979306,colour,0.5
171,21,0,1,10,30,480,649.7734418999753,650.3755969999766,"[58, 0, 196]",196,a,0.07899809998343699,colour,0.5
171,21,0,1,10,31,481,650.8828225999896,651.4796762999904,"[47, 0, 207]",207,a,0.07343499999842606,colour,0.5
171,21,0,1,10,32,482,651.9922100999975,652.6876309999789,"[90, 0, 164]",164,l,0.17203560000052676,colour,0.5
171,21,0,1,10,33,483,653.195307499991,653.7276356999937,"[71, 0, 183]",183,l,0.00893559999531135,colour,0.5
171,21,0,1,10,34,484,654.2421689999755,654.8716335999779,"[98, 0, 156]",156,l,0.10694810000131838,colour,0.5
171,21,0,1,10,35,485,655.3828308999946,656.0156530999811,"[14, 0, 240]",240,a,0.10954099998343736,colour,0.5
171,21,0,1,10,36,486,656.523477699986,657.2556622999837,"[63, 0, 191]",191,a,0.2092283999954816,colour,0.5
171,21,0,1,10,37,487,657.7734598999959,658.3996768999787,"[62, 0, 192]",192,a,0.10300819997792132,colour,0.5
171,21,0,1,10,38,488,658.9140326999768,659.4396465999889,"[36, 0, 218]",218,a,0.0022947000106796622,colour,0.5
171,21,0,1,10,39,489,659.9609089999867,660.7516057999746,"[11, 0, 243]",243,a,0.26728399997227825,colour,0.5
171,21,0,1,10,40,490,661.2576600999746,661.8156281999836,"[87, 0, 167]",167,l,0.03474209998967126,colour,0.5
171,21,0,1,10,41,491,662.335895199998,663.0237019999768,"[17, 0, 237]",237,a,0.1643906999961473,colour,0.5
171,21,0,1,10,42,492,663.5390703000012,664.071612300002,"[12, 0, 242]",242,a,0.009328500018455088,colour,0.5
171,21,0,1,10,43,493,664.5858496000001,665.2316674999893,"[84, 0, 170]",170,l,0.12274729998898692,colour,0.5
171,21,0,1,10,44,494,665.7420618000033,666.2716683999752,"[99, 0, 155]",155,a,0.006308999989414588,colour,0.5
171,21,0,1,10,45,495,666.7889228999848,667.3436125000007,"[91, 0, 163]",163,l,0.03131660001236014,colour,0.5
171,21,0,1,10,46,496,667.8514797999815,668.5116435999807,"[49, 0, 205]",205,a,0.13708469999255612,colour,0.5
171,21,0,1,10,47,497,669.0233700999815,669.6476551999804,"[31, 0, 223]",223,a,0.1013636999996379,colour,0.5
171,21,0,1,10,48,498,670.1639671000012,670.8235979999881,"[65, 0, 189]",189,a,0.13629880000371486,colour,0.5
171,21,0,1,10,49,499,671.3358357999823,672.2796462999831,"[4, 0, 250]",250,a,0.4203136999858543,colour,0.5
171,21,0,1,10,50,500,672.7889275999914,674.7996170999832,"[21, 0, 233]",233,a,1.4873487000004388,colour,0.5
171,21,0,1,11,1,501,689.1006512999884,690.8796649999858,"[64, 0, 190]",190,a,1.254840300010983,colour,0.5
171,21,0,1,11,2,502,691.3982243999781,692.0396274999948,"[50, 0, 204]",204,a,0.11798710000584833,colour,0.5
171,21,0,1,11,3,503,692.5545314999763,693.2235963999992,"[84, 0, 170]",170,a,0.14572359999874607,colour,0.5
171,21,0,1,11,4,504,693.7420663999801,694.3836146999965,"[71, 0, 183]",183,l,0.11822490001213737,colour,0.5
171,21,0,1,11,5,505,694.8983316999802,695.4956445999851,"[57, 0, 197]",197,a,0.07402999998885207,colour,0.5
171,21,0,1,11,6,506,696.0077066999802,696.6636110999971,"[7, 0, 247]",247,a,0.13272789999609813,colour,0.5
171,21,0,1,11,7,507,697.1794912999903,697.8075977999833,"[35, 0, 219]",219,a,0.10503239999525249,colour,0.5
171,21,0,1,11,8,508,698.3201531999803,698.9516579999763,"[92, 0, 162]",162,l,0.10814879997633398,colour,0.5
171,21,0,1,11,9,509,699.4607738999766,700.0716297999898,"[1, 0, 253]",253,a,0.08744219999061897,colour,0.5
171,21,0,1,11,10,510,700.5858066999936,701.2636115999776,"[10, 0, 244]",244,a,0.15443309998954646,colour,0.5
171,21,0,1,11,11,511,701.7732124000031,702.3676014999801,"[55, 0, 199]",199,a,0.07121490000281483,colour,0.5
171,21,0,1,11,12,512,702.8826113999821,703.4635976999998,"[45, 0, 209]",209,a,0.05753970000660047,colour,0.5
171,21,0,1,11,13,513,703.9764166999958,704.5756412999763,"[97, 0, 157]",157,l,0.0759286999818869,colour,0.5
171,21,0,1,11,14,514,705.0857795999909,705.7515879999846,"[41, 0, 213]",213,a,0.14245650000520982,colour,0.5
171,21,0,1,11,15,515,706.2576614999853,706.8236211999902,"[67, 0, 187]",187,a,0.04286290000891313,colour,0.5
171,21,0,1,11,16,516,707.3357611999963,707.8796589999984,"[94, 0, 160]",160,a,0.020510300004389137,colour,0.5
171,21,0,1,11,17,517,708.3982678999892,709.7996158000024,"[22, 0, 232]",232,a,0.8784005000197794,colour,0.5
171,21,0,1,11,18,518,710.3202068999817,710.9995947999996,"[18, 0, 236]",236,a,0.1561887999996543,colour,0.5
171,21,0,1,11,19,519,711.5076623999921,712.1356450000021,"[68, 0, 186]",186,a,0.1047270999988541,colour,0.5
171,21,0,1,11,20,520,712.6483523999923,713.4156353999861,"[14, 0, 240]",240,a,0.2441367999999784,colour,0.5
171,21,0,1,11,21,521,713.9293715999811,714.4957532999979,"[17, 0, 237]",237,a,0.04288900000392459,colour,0.5
171,21,0,1,11,22,522,715.007584499981,715.6396110999922,"[76, 0, 178]",178,l,0.10878179999417625,colour,0.5
171,21,0,1,11,23,523,716.1481505999982,716.6876575999777,"[52, 0, 202]",202,a,0.016127799986861646,colour,0.5
171,21,0,1,11,24,524,717.1951268999837,718.0156610999838,"[61, 0, 193]",193,l,0.29775810000137426,colour,0.5
171,21,0,1,11,25,525,718.5232497999968,719.4716047999973,"[4, 0, 250]",250,a,0.42524900002172217,colour,0.5
171,21,0,1,11,26,526,719.9920007999754,720.6236245999753,"[93, 0, 161]",161,l,0.10851189997629263,colour,0.5
171,21,0,1,11,27,527,721.1325539999816,721.8316109000007,"[2, 0, 252]",252,a,0.17562049999833107,colour,0.5
171,21,0,1,11,28,528,722.3513265999791,723.1276191999787,"[23, 0, 231]",231,a,0.2532383999787271,colour,0.5
171,21,0,1,11,29,529,723.6481769999955,724.4555834999774,"[34, 0, 220]",220,a,0.28407439999864437,colour,0.5
171,21,0,1,11,30,530,724.9763356999902,725.5916237999918,"[73, 0, 181]",181,l,0.0920056999893859,colour,0.5
171,21,0,1,11,31,531,726.1013174999971,726.7036869000003,"[88, 0, 166]",166,l,0.07899490001727827,colour,0.5
171,21,0,1,11,32,532,727.210651899979,727.77561099999,"[25, 0, 229]",229,a,0.042205600009765476,colour,0.5
171,21,0,1,11,33,533,728.2888143000018,728.9435922999983,"[65, 0, 189]",189,a,0.1314534000121057,colour,0.5
171,21,0,1,11,34,534,729.4606429999985,730.5116054999817,"[46, 0, 208]",208,a,0.5276285999862012,colour,0.5
171,21,0,1,11,35,535,731.023131199996,731.5755966999859,"[31, 0, 223]",223,a,0.02929889998631552,colour,0.5
171,21,0,1,11,36,536,732.0857371999882,732.7755885999941,"[60, 0, 194]",194,a,0.16650720001780428,colour,0.5
171,21,0,1,11,37,537,733.2888209999946,734.143598900002,"[8, 0, 246]",246,a,0.3315667000133544,colour,0.5
171,21,0,1,11,38,538,734.663707300002,735.4076013999875,"[43, 0, 211]",211,a,0.22049400000832975,colour,0.5
171,21,0,1,11,39,539,735.9136774999788,736.4716095999756,"[27, 0, 227]",227,a,0.03443869997863658,colour,0.5
171,21,0,1,11,40,540,736.9918567999848,737.5676849999873,"[91, 0, 163]",163,l,0.052446499990765005,colour,0.5
171,21,0,1,11,41,541,738.0857254999864,738.7115818999882,"[24, 0, 230]",230,a,0.10262749998946674,colour,0.5
171,21,0,1,11,42,542,739.2262388999807,739.831560199993,"[74, 0, 180]",180,l,0.08188650000374764,colour,0.5
171,21,0,1,11,43,543,740.3513415999769,740.9276244999783,"[42, 0, 212]",212,a,0.053374199982499704,colour,0.5
171,21,0,1,11,44,544,741.4449446999934,742.0957758000004,"[78, 0, 176]",176,l,0.12731720000738278,colour,0.5
171,21,0,1,11,45,545,742.616846799996,743.1676312999916,"[0, 0, 254]",254,a,0.02738139999564737,colour,0.5
171,21,0,1,11,46,546,743.67934469998,744.4075835999975,"[66, 0, 188]",188,a,0.20480590002262034,colour,0.5
171,21,0,1,11,47,547,744.9136335999938,745.5035958999943,"[82, 0, 172]",172,l,0.06662250001681969,colour,0.5
171,21,0,1,11,48,548,746.023114999989,747.0476036999898,"[32, 0, 222]",222,a,0.5018292999884579,colour,0.5
171,21,0,1,11,49,549,747.5543777999992,748.1196368999954,"[59, 0, 195]",195,a,0.04197230000863783,colour,0.5
171,21,0,1,11,50,550,748.6324731999775,749.2316379999975,"[40, 0, 214]",214,a,0.07580160000361502,colour,0.5
171,21,0,1,12,1,551,753.7895524999767,754.8156257999945,"[84, 0, 170]",170,l,0.5021409000037238,colour,0.5
171,21,0,1,12,2,552,755.3372737999889,755.9036887999973,"[49, 0, 205]",205,a,0.043009000015445054,colour,0.5
171,21,0,1,12,3,553,756.4154172999843,757.0316455999855,"[34, 0, 220]",220,a,0.0928905000037048,colour,0.5
171,21,0,1,12,4,554,757.540382599982,758.079633699992,"[4, 0, 250]",250,a,0.01645900000585243,colour,0.5
171,21,0,1,12,5,555,758.5872960999841,759.1595738999895,"[14, 0, 240]",240,a,0.04931540001416579,colour,0.5
171,21,0,1,12,6,556,759.6809548999881,760.2155914999894,"[35, 0, 219]",219,a,0.011233199998969212,colour,0.5
171,21,0,1,12,7,557,760.7278617999982,761.2875724999758,"[31, 0, 223]",223,a,0.03652919997693971,colour,0.5
171,21,0,1,12,8,558,761.8059117999801,762.4959095999948,"[62, 0, 192]",192,a,0.16669010001351126,colour,0.5
171,21,0,1,12,9,559,763.0092702999827,763.5516605000012,"[38, 0, 216]",216,a,0.01916330002131872,colour,0.5
171,21,0,1,12,10,560,764.0715451999858,765.0795620999997,"[41, 0, 213]",213,a,0.4845946000132244,colour,0.5
171,21,0,1,12,11,561,765.5871827999945,766.2395773000026,"[81, 0, 173]",173,l,0.12982970001758076,colour,0.5
171,21,0,1,12,12,562,766.7590984999842,767.3115638000017,"[48, 0, 206]",206,a,0.029170699999667704,colour,0.5
171,21,0,1,12,13,563,767.8215361999755,768.3676134999841,"[5, 0, 249]",249,a,0.02263910000328906,colour,0.5
171,21,0,1,12,14,564,768.884110199986,769.4155653999769,"[50, 0, 204]",204,a,0.008432899980107322,colour,0.5
171,21,0,1,12,15,565,769.9465097999782,770.5595744999882,"[9, 0, 245]",245,a,0.08954580000136048,colour,0.5
171,21,0,1,12,16,566,771.0716090999776,772.0875373999879,"[19, 0, 235]",235,a,0.4928070000023581,colour,0.5
171,21,0,1,12,17,567,772.6027352999954,773.135586599994,"[17, 0, 237]",237,a,0.009650399995734915,colour,0.5
171,21,0,1,12,18,568,773.6497187999776,774.2156128999777,"[72, 0, 182]",182,l,0.04250979999778792,colour,0.5
171,21,0,1,12,19,569,774.7278466999996,775.3195816999942,"[94, 0, 160]",160,l,0.0684291000070516,colour,0.5
171,21,0,1,12,20,570,775.8371438999893,776.8396219999995,"[78, 0, 176]",176,l,0.47907780000241473,colour,0.5
171,21,0,1,12,21,571,777.3527857000008,777.9595855999796,"[82, 0, 172]",172,l,0.08333749999292195,colour,0.5
171,21,0,1,12,22,572,778.4777971000003,779.0957429999835,"[7, 0, 247]",247,a,0.0946115999831818,colour,0.5
171,21,0,1,12,23,573,779.6028392000007,780.2075981999806,"[90, 0, 164]",164,l,0.0811307999829296,colour,0.5
171,21,0,1,12,24,574,780.7281894999905,781.3275773999922,"[79, 0, 175]",175,l,0.07609950000187382,colour,0.5
171,21,0,1,12,25,575,781.8375543000002,782.4315710999945,"[8, 0, 246]",246,a,0.07067810001899488,colour,0.5
171,21,0,1,12,26,576,782.9467475999845,783.607557899988,"[70, 0, 184]",184,a,0.13724979999824427,colour,0.5
171,21,0,1,12,27,577,784.1186004999909,784.6555924999993,"[18, 0, 236]",236,a,0.013544600020395592,colour,0.5
171,21,0,1,12,28,578,785.1655195999774,785.7276277999918,"[0, 0, 254]",254,a,0.03875740000512451,colour,0.5
171,21,0,1,12,29,579,786.243794399983,787.6396021999826,"[52, 0, 202]",202,a,0.87271779999719,colour,0.5
171,21,0,1,12,30,580,788.1499364999763,788.7276024000021,"[36, 0, 218]",218,a,0.054243800026597455,colour,0.5
171,21,0,1,12,31,581,789.2436671000032,789.87155109999,"[89, 0, 165]",165,l,0.10450330001185648,colour,0.5
171,21,0,1,12,32,582,790.3842811999784,790.9195763999887,"[88, 0, 166]",166,l,0.011900100013008341,colour,0.5
171,21,0,1,12,33,583,791.4310598000011,792.199646699999,"[60, 0, 194]",194,a,0.24512470001354814,colour,0.5
171,21,0,1,12,34,584,792.7125741999771,793.239582899987,"[86, 0, 168]",168,l,0.004661599989049137,colour,0.5
171,21,0,1,12,35,585,793.7594273999857,794.3036611999851,"[75, 0, 179]",179,l,0.02100909998989664,colour,0.5
171,21,0,1,12,36,586,794.821755699988,796.0715336999856,"[1, 0, 253]",253,a,0.726232799992431,colour,0.5
171,21,0,1,12,37,587,796.5873962999904,797.1516082999879,"[24, 0, 230]",230,a,0.04111120000015944,colour,0.5
171,21,0,1,12,38,588,797.6655376999988,798.3035562000005,"[93, 0, 161]",161,l,0.11510809999890625,colour,0.5
171,21,0,1,12,39,589,798.8217384000018,799.5115888,"[43, 0, 211]",211,a,0.1664852000249084,colour,0.5
171,21,0,1,12,40,590,800.0248995999864,801.2396181999939,"[64, 0, 190]",190,a,0.6911591000098269,colour,0.5
171,21,0,1,12,41,591,801.7594248999958,802.9916177999985,"[77, 0, 177]",177,a,0.7088589000049978,colour,0.5
171,21,0,1,12,42,592,803.5091670999827,804.0636298999889,"[80, 0, 174]",174,a,0.030999200011137873,colour,0.5
171,21,0,1,12,43,593,804.5717859999859,805.1355921999784,"[92, 0, 162]",162,l,0.04067629997734912,colour,0.5
171,21,0,1,12,44,594,805.6498680999794,806.2555737999792,"[56, 0, 198]",198,a,0.08230329997604713,colour,0.5
171,21,0,1,12,45,595,806.7748245999974,808.8475716999965,"[47, 0, 207]",207,a,1.549360400007572,colour,0.5
171,21,0,1,12,46,596,809.3686876999855,810.0716176999849,"[30, 0, 224]",224,a,0.17953709998982958,colour,0.5
171,21,0,1,12,47,597,810.5873519000015,811.2075553000032,"[11, 0, 243]",243,a,0.09742590002133511,colour,0.5
171,21,0,1,12,48,598,811.7280541999789,812.5275628999807,"[15, 0, 239]",239,a,0.27616489998763427,colour,0.5
171,21,0,1,12,49,599,813.0404871999926,814.0155492999766,"[73, 0, 181]",181,a,0.4519187999831047,colour,0.5
171,21,0,1,12,50,600,814.5249533999886,815.1275388999784,"[91, 0, 163]",163,a,0.07925889999023639,colour,0.5
171,21,0,1,13,1,601,852.3520849999913,853.7115610999754,"[44, 0, 210]",210,a,0.83525429997826,colour,0.5
171,21,0,1,13,2,602,854.2280047999811,854.7755808999937,"[71, 0, 183]",183,l,0.024318100011441857,colour,0.5
171,21,0,1,13,3,603,855.2903892000031,855.9115348999912,"[83, 0, 171]",171,l,0.09542249998776242,colour,0.5
171,21,0,1,13,4,604,856.4309766999795,857.0956328999891,"[52, 0, 202]",202,a,0.14124319999245927,colour,0.5
171,21,0,1,13,5,605,857.6028175999818,859.4395743999921,"[39, 0, 215]",215,a,1.3132293999951798,colour,0.5
171,21,0,1,13,6,606,859.9466615999991,860.6155907999782,"[59, 0, 195]",195,a,0.14556769997579977,colour,0.5
171,21,0,1,13,7,607,861.135120299994,861.6875280999811,"[5, 0, 249]",249,a,0.03054629999678582,colour,0.5
171,21,0,1,13,8,608,862.1965524999832,862.8555762000033,"[20, 0, 234]",234,a,0.13562120002461597,colour,0.5
171,21,0,1,13,9,609,863.3683955000015,864.2394876999897,"[14, 0, 240]",240,a,0.34761510000680573,colour,0.5
171,21,0,1,13,10,610,864.7591735000024,865.3915087999776,"[93, 0, 161]",161,l,0.10917419998440892,colour,0.5
171,21,0,1,13,11,611,865.8996614999778,866.4955635999795,"[15, 0, 239]",239,a,0.07336059998488054,colour,0.5
171,21,0,1,13,12,612,867.0090472000011,867.7115318999859,"[49, 0, 205]",205,a,0.179128399991896,colour,0.5
171,21,0,1,13,13,613,868.2279116999998,870.0555235999927,"[17, 0, 237]",237,a,1.304242999991402,colour,0.5
171,21,0,1,13,14,614,870.5715739000007,871.2956142999756,"[22, 0, 232]",232,a,0.20073799998499453,colour,0.5
171,21,0,1,13,15,615,871.8058602999954,872.45552399999,"[65, 0, 189]",189,a,0.12636970001040027,colour,0.5
171,21,0,1,13,16,616,872.9623071999813,873.6555561999849,"[43, 0, 211]",211,a,0.16995819998555817,colour,0.5
171,21,0,1,13,17,617,874.165279799985,875.3115003999847,"[53, 0, 201]",201,a,0.6228546999918763,colour,0.5
171,21,0,1,13,18,618,875.8215611999913,876.4875847999938,"[23, 0, 231]",231,a,0.14266050001606345,colour,0.5
171,21,0,1,13,19,619,877.0090598999814,878.1115688999998,"[19, 0, 235]",235,a,0.5791219000238925,colour,0.5
171,21,0,1,13,20,620,878.6184132999915,879.2315350999997,"[74, 0, 180]",180,l,0.08980730001349002,colour,0.5
171,21,0,1,13,21,621,879.7434828999976,880.3995680999942,"[10, 0, 244]",244,a,0.13282759999856353,colour,0.5
171,21,0,1,13,22,622,880.9153639999859,882.9195748999773,"[77, 0, 177]",177,l,1.4816240999789443,colour,0.5
171,21,0,1,13,23,623,883.4309276999847,884.0795821999782,"[41, 0, 213]",213,a,0.12534949998371303,colour,0.5
171,21,0,1,13,24,624,884.5871765999764,885.2715728999756,"[75, 0, 179]",179,l,0.16102599998703226,colour,0.5
171,21,0,1,13,25,625,885.790217599977,886.4715715999773,"[42, 0, 212]",212,a,0.15817059998516925,colour,0.5
171,21,0,1,13,26,626,886.9778018999787,887.6155255999765,"[18, 0, 236]",236,a,0.1149845999898389,colour,0.5
171,21,0,1,13,27,627,888.1341639999882,888.6795149999962,"[24, 0, 230]",230,a,0.022331400017719716,colour,0.5
171,21,0,1,13,28,628,889.1964738999959,889.9035162999935,"[90, 0, 164]",164,l,0.18364470000960864,colour,0.5
171,21,0,1,13,29,629,890.4152401999745,890.9595531999948,"[27, 0, 227]",227,a,0.02098259999183938,colour,0.5
171,21,0,1,13,30,630,891.4777959999919,892.5597358999948,"[66, 0, 188]",188,a,0.5585504000191577,colour,0.5
171,21,0,1,13,31,631,893.071508699999,894.1035249999841,"[28, 0, 226]",226,a,0.5089670000015758,colour,0.5
171,21,0,1,13,32,632,894.6183126999822,895.2235481999815,"[6, 0, 248]",248,a,0.08224980000522919,colour,0.5
171,21,0,1,13,33,633,895.743444599997,896.2797191999853,"[3, 0, 251]",251,a,0.013287699985085055,colour,0.5
171,21,0,1,13,34,634,896.7901912999805,897.5435498000006,"[60, 0, 194]",194,l,0.23007210000650957,colour,0.5
171,21,0,1,13,35,635,898.0558690000034,898.6234335999761,"[73, 0, 181]",181,l,0.04429809999419376,colour,0.5
171,21,0,1,13,36,636,899.1340220999846,899.807507199992,"[32, 0, 222]",222,a,0.15013990001170896,colour,0.5
171,21,0,1,13,37,637,900.3213984000031,901.1755129999947,"[56, 0, 198]",198,a,0.3306732000201009,colour,0.5
171,21,0,1,13,38,638,901.6964480000024,902.4315214999951,"[1, 0, 253]",253,a,0.2116898999956902,colour,0.5
171,21,0,1,13,39,639,902.9463938999979,903.4958379000018,"[99, 0, 155]",155,a,0.02597390001756139,colour,0.5
171,21,0,1,13,40,640,904.0089636999764,905.8875385999854,"[48, 0, 206]",206,a,1.3552414999867324,colour,0.5
171,21,0,1,13,41,641,906.3996071000001,907.383499299991,"[85, 0, 169]",169,l,0.4606015000026673,colour,0.5
171,21,0,1,13,42,642,907.8994762999937,908.4875383999897,"[95, 0, 159]",159,l,0.06501829999615438,colour,0.5
171,21,0,1,13,43,643,909.0088592999964,909.5435394999804,"[2, 0, 252]",252,a,0.011182399990502745,colour,0.5
171,21,0,1,13,44,644,910.0558145999967,910.7034846000024,"[64, 0, 190]",190,a,0.12434360000770539,colour,0.5
171,21,0,1,13,45,645,911.2120367999887,912.255488499999,"[62, 0, 192]",192,a,0.5208501000015531,colour,0.5
171,21,0,1,13,46,646,912.7745330999896,913.3034890999843,"[54, 0, 200]",200,a,0.005661400005919859,colour,0.5
171,21,0,1,13,47,647,913.8215298999858,914.8397260999773,"[55, 0, 199]",199,a,0.4948666999989655,colour,0.5
171,21,0,1,13,48,648,915.3526536999852,916.1034478999791,"[72, 0, 182]",182,l,0.22763700000359677,colour,0.5
171,21,0,1,13,49,649,916.6182964999753,917.2554698000022,"[89, 0, 165]",165,l,0.11383240000577644,colour,0.5
171,21,0,1,13,50,650,917.7744478999812,918.4235211999912,"[50, 0, 204]",204,a,0.12577509999391623,colour,0.5
171,21,0,1,14,1,651,923.0862002999929,923.999564400001,"[3, 0, 251]",251,a,0.38918610001564957,colour,0.5
171,21,0,1,14,2,652,924.509052599984,925.1914981000009,"[91, 0, 163]",163,l,0.15915880000102334,colour,0.5
171,21,0,1,14,3,653,925.7120713999902,926.3994955999951,"[1, 0, 253]",253,a,0.163993299996946,colour,0.5
171,21,0,1,14,4,654,926.9151760999812,927.6075060000003,"[32, 0, 222]",222,a,0.1689943000092171,colour,0.5
171,21,0,1,14,5,655,928.1182495999965,928.9194785,"[78, 0, 176]",176,l,0.2781187000218779,colour,0.5
171,21,0,1,14,6,656,929.4307071999938,930.1354706999846,"[92, 0, 162]",162,l,0.18123059999197721,colour,0.5
171,21,0,1,14,7,657,930.6494643999904,931.3035019999952,"[18, 0, 236]",236,l,0.13066240001353435,colour,0.5
171,21,0,1,14,8,658,931.8214031999814,932.4874898999988,"[64, 0, 190]",190,a,0.14274560002377257,colour,0.5
171,21,0,1,14,9,659,933.0088936999964,933.5835215999978,"[68, 0, 186]",186,a,0.05130340001778677,colour,0.5
171,21,0,1,14,10,660,934.1026718999783,934.751554699993,"[88, 0, 166]",166,l,0.12559899999178015,colour,0.5
171,21,0,1,14,11,661,935.2587912000017,935.8794776999857,"[84, 0, 170]",170,l,0.09722490000422113,colour,0.5
171,21,0,1,14,12,662,936.3994796999905,937.1194480999839,"[24, 0, 230]",230,a,0.19662440000684,colour,0.5
171,21,0,1,14,13,663,937.6338640000031,938.2235246999771,"[37, 0, 217]",217,a,0.06628239998826757,colour,0.5
171,21,0,1,14,14,664,938.743261399999,939.3675272999972,"[79, 0, 175]",175,l,0.10127169999759644,colour,0.5
171,21,0,1,14,15,665,939.8837960999808,940.7435036999814,"[44, 0, 210]",210,a,0.33625900000333786,colour,0.5
171,21,0,1,14,16,666,941.2588564000034,941.8314694000001,"[82, 0, 172]",172,l,0.049280400009592995,colour,0.5
171,21,0,1,14,17,667,942.3526057999989,943.3275201999932,"[89, 0, 165]",165,l,0.4518114000093192,colour,0.5
171,21,0,1,14,18,668,943.8369861999818,944.7035244999861,"[80, 0, 174]",174,l,0.34349379999912344,colour,0.5
171,21,0,1,14,19,669,945.2121096999908,945.7994784999755,"[72, 0, 182]",182,l,0.0648520999820903,colour,0.5
171,21,0,1,14,20,670,946.3057523999887,946.9755209999857,"[16, 0, 238]",238,a,0.14648399999714456,colour,0.5
171,21,0,1,14,21,671,947.4931177999824,948.0320623999869,"[12, 0, 242]",242,a,0.015527499985182658,colour,0.5
171,21,0,1,14,22,672,948.5399968999845,949.0795319000026,"[53, 0, 201]",201,a,0.016208200016990304,colour,0.5
171,21,0,1,14,23,673,949.587022199994,950.1274983999901,"[74, 0, 180]",180,a,0.017155200010165572,colour,0.5
171,21,0,1,14,24,674,950.6338213999989,951.2394877999905,"[65, 0, 189]",189,a,0.08236609998857602,colour,0.5
171,21,0,1,14,25,675,951.7589080999896,952.2956114999834,"[57, 0, 197]",197,a,0.013426099991193041,colour,0.5
171,21,0,1,14,26,676,952.8057718999917,953.975449199992,"[23, 0, 231]",231,a,0.6471946999954525,colour,0.5
171,21,0,1,14,27,677,954.4932168999803,955.0795278000005,"[58, 0, 196]",196,a,0.0629596000071615,colour,0.5
171,21,0,1,14,28,678,955.5870180999918,956.4958571000025,"[28, 0, 226]",226,a,0.385531500010984,colour,0.5
171,21,0,1,14,29,679,957.0088450999756,957.5755108000012,"[6, 0, 248]",248,a,0.043783800007076934,colour,0.5
171,21,0,1,14,30,680,958.0870083999762,958.6474669000017,"[83, 0, 171]",171,l,0.03716340000391938,colour,0.5
171,21,0,1,14,31,681,959.165108199988,959.8394579000014,"[9, 0, 245]",245,a,0.15111460001207888,colour,0.5
171,21,0,1,14,32,682,960.3526112999825,960.9914810999762,"[0, 0, 254]",254,a,0.11592029998428188,colour,0.5
171,21,0,1,14,33,683,961.5087593999924,962.1195086999796,"[5, 0, 249]",249,a,0.08730709998053499,colour,0.5
171,21,0,1,14,34,684,962.6338669999968,963.1914861999976,"[97, 0, 157]",157,l,0.03436700001475401,colour,0.5
171,21,0,1,14,35,685,963.7119383999961,964.2794569999969,"[60, 0, 194]",194,a,0.044091999996453524,colour,0.5
171,21,0,1,14,36,686,964.7900236999849,965.391464699991,"[2, 0, 252]",252,a,0.07828819999122061,colour,0.5
171,21,0,1,14,37,687,965.8993168000015,966.6314480000001,"[81, 0, 173]",173,l,0.20867370002088137,colour,0.5
171,21,0,1,14,38,688,967.149431799975,967.9354866999784,"[71, 0, 183]",183,l,0.2627409999840893,colour,0.5
171,21,0,1,14,39,689,968.4462908999994,969.0234448999981,"[26, 0, 228]",228,a,0.053898800018941984,colour,0.5
171,21,0,1,14,40,690,969.5400444999977,970.4957694999757,"[21, 0, 233]",233,a,0.4326149999978952,colour,0.5
171,21,0,1,14,41,691,971.0087925999833,971.5354707999795,"[7, 0, 247]",247,a,0.003575699985958636,colour,0.5
171,21,0,1,14,42,692,972.0558011999819,973.055609699979,"[10, 0, 244]",244,a,0.4765863999782596,colour,0.5
171,21,0,1,14,43,693,973.5712393999856,974.1115673999884,"[46, 0, 208]",208,a,0.016994300007354468,colour,0.5
171,21,0,1,14,44,694,974.6180772999942,975.1594788999937,"[33, 0, 221]",221,a,0.01805360001162626,colour,0.5
171,21,0,1,14,45,695,975.680588999996,976.2074696999916,"[76, 0, 178]",178,l,0.0034422999888192862,colour,0.5
171,21,0,1,14,46,696,976.7274838000012,977.3195472999942,"[8, 0, 246]",246,a,0.0685589000058826,colour,0.5
171,21,0,1,14,47,697,977.8368731999944,978.3754909999843,"[54, 0, 200]",200,a,0.015281700005289167,colour,0.5
171,21,0,1,14,48,698,978.8836756999954,979.4957736999786,"[19, 0, 235]",235,a,0.08873979997588322,colour,0.5
171,21,0,1,14,49,699,980.0087430999847,980.7355929999903,"[29, 0, 225]",225,a,0.20354489999590442,colour,0.5
171,21,0,1,14,50,700,981.2431226999906,982.0717925999779,"[59, 0, 195]",195,a,0.3052437999867834,colour,0.5
171,21,0,1,15,1,701,986.5860460999829,987.2554939999827,"[65, 0, 189]",189,a,0.14532989999861456,colour,0.5
171,21,0,1,15,2,702,987.7744861999818,988.7274665999867,"[52, 0, 202]",202,a,0.4300407999835443,colour,0.5
171,21,0,1,15,3,703,989.2431588999752,989.9114904000016,"[93, 0, 161]",161,l,0.14508270000806078,colour,0.5
171,21,0,1,15,4,704,990.4313325999829,991.3034581999818,"[56, 0, 198]",198,a,0.3496461999893654,colour,0.5
171,21,0,1,15,5,705,991.8212158999813,992.3755128999765,"[20, 0, 234]",234,a,0.030864100001053885,colour,0.5
171,21,0,1,15,6,706,992.8837438999908,993.6154448000016,"[92, 0, 162]",162,l,0.20839990000240505,colour,0.5
171,21,0,1,15,7,707,994.1336300999974,994.8555540999805,"[43, 0, 211]",211,a,0.1985071999952197,colour,0.5
171,21,0,1,15,8,708,995.3680671999755,996.0635002999916,"[53, 0, 201]",201,a,0.17309120000572875,colour,0.5
171,21,0,1,15,9,709,996.5712494999752,997.1834899999958,"[62, 0, 192]",192,a,0.08889370001270436,colour,0.5
171,21,0,1,15,10,710,997.6962458999769,998.4474487999978,"[55, 0, 199]",199,a,0.22796410002047196,colour,0.5
171,21,0,1,15,11,711,998.9618248999759,999.5115114999935,"[19, 0, 235]",235,a,0.0263639000186231,colour,0.5
171,21,0,1,15,12,712,1000.0243440999766,1000.6954689999984,"[58, 0, 196]",196,a,0.14795430001686327,colour,0.5
171,21,0,1,15,13,713,1001.2117296999786,1001.8395590999862,"[0, 0, 254]",254,a,0.1052604999858886,colour,0.5
171,21,0,1,15,14,714,1002.3524343000026,1003.0234806999797,"[96, 0, 158]",158,l,0.14774019998731092,colour,0.5
171,21,0,1,15,15,715,1003.5398800999974,1004.2314764999901,"[72, 0, 182]",182,a,0.16909280000254512,colour,0.5
171,21,0,1,15,16,716,1004.7430767999904,1005.5114708999754,"[89, 0, 165]",165,l,0.24511699998402037,colour,0.5
171,21,0,1,15,17,717,1006.0242764999857,1006.6394667999994,"[26, 0, 228]",228,a,0.09199840002111159,colour,0.5
171,21,0,1,15,18,718,1007.1493229999905,1007.8555098999932,"[13, 0, 241]",241,a,0.18293710000580177,colour,0.5
171,21,0,1,15,19,719,1008.3680257999804,1009.0234675999964,"[60, 0, 194]",194,a,0.13210330001311377,colour,0.5
171,21,0,1,15,20,720,1009.5398596999876,1010.1754811999854,"[9, 0, 245]",245,a,0.11229920000187121,colour,0.5
171,21,0,1,15,21,721,1010.6961760999984,1011.4074499999988,"[47, 0, 207]",207,a,0.18884990000515245,colour,0.5
171,21,0,1,15,22,722,1011.9149413999985,1012.5674483999901,"[17, 0, 237]",237,a,0.12919870001496747,colour,0.5
171,21,0,1,15,23,723,1013.0866513999936,1013.7354887999827,"[95, 0, 159]",159,l,0.12543109999387525,colour,0.5
171,21,0,1,15,24,724,1014.243186799984,1014.8475008999812,"[79, 0, 175]",175,l,0.0811243999924045,colour,0.5
171,21,0,1,15,25,725,1015.3679764999833,1015.9275019999768,"[4, 0, 250]",250,a,0.03606369998306036,colour,0.5
171,21,0,1,15,26,726,1016.4461278999806,1017.0394530999765,"[50, 0, 204]",204,a,0.06991619998007081,colour,0.5
171,21,0,1,15,27,727,1017.5555079999904,1018.1514459000027,"[51, 0, 203]",203,a,0.07277009999961592,colour,0.5
171,21,0,1,15,28,728,1018.6648268999998,1019.2714700999786,"[46, 0, 208]",208,a,0.08334539999486879,colour,0.5
171,21,0,1,15,29,729,1019.7899283999868,1020.4314529999974,"[85, 0, 169]",169,l,0.1183292000205256,colour,0.5
171,21,0,1,15,30,730,1020.9461654999759,1021.6554660999973,"[6, 0, 248]",248,a,0.18597950000548735,colour,0.5
171,21,0,1,15,31,731,1022.1649285999883,1022.7434867999982,"[74, 0, 180]",180,a,0.0553790999983903,colour,0.5
171,21,0,1,15,32,732,1023.2586462000036,1023.8235124999774,"[35, 0, 219]",219,a,0.04156589999911375,colour,0.5
171,21,0,1,15,33,733,1024.336794199975,1024.9354564999812,"[80, 0, 174]",174,l,0.07543969998368993,colour,0.5
171,21,0,1,15,34,734,1025.4461429999792,1026.511440399976,"[81, 0, 173]",173,l,0.5421625999733806,colour,0.5
171,21,0,1,15,35,735,1027.02417769999,1027.623448600003,"[69, 0, 185]",185,a,0.07609710001270287,colour,0.5
171,21,0,1,15,36,736,1028.1335878999962,1028.8715448000003,"[16, 0, 238]",238,a,0.21493240000563674,colour,0.5
171,21,0,1,15,37,737,1029.3835590999806,1029.9834493999952,"[27, 0, 227]",227,a,0.07704730000114068,colour,0.5
171,21,0,1,15,38,738,1030.4930771999934,1031.1034689999942,"[10, 0, 244]",244,a,0.08713349999743514,colour,0.5
171,21,0,1,15,39,739,1031.618002000003,1032.1915118999896,"[48, 0, 206]",206,a,0.05028890000539832,colour,0.5
171,21,0,1,15,40,740,1032.7116924999864,1033.2954397999856,"[37, 0, 217]",217,a,0.06120550000923686,colour,0.5
171,21,0,1,15,41,741,1033.8053618999838,1034.3674635999778,"[23, 0, 231]",231,a,0.038526799995452166,colour,0.5
171,21,0,1,15,42,742,1034.883672099997,1035.447480599978,"[32, 0, 222]",222,a,0.04056289998698048,colour,0.5
171,21,0,1,15,43,743,1035.961702999979,1036.5594335999922,"[83, 0, 171]",171,l,0.07460759999230504,colour,0.5
171,21,0,1,15,44,744,1037.070992699999,1037.6474364000023,"[1, 0, 253]",253,a,0.05352870002388954,colour,0.5
171,21,0,1,15,45,745,1038.1648314999766,1038.7435142999748,"[49, 0, 205]",205,a,0.05543459998443723,colour,0.5
171,21,0,1,15,46,746,1039.2585164999764,1039.8235037999984,"[84, 0, 170]",170,l,0.0416001999983564,colour,0.5
171,21,0,1,15,47,747,1040.3367215000035,1040.9274638999777,"[86, 0, 168]",168,l,0.06752630000119098,colour,0.5
171,21,0,1,15,48,748,1041.4461398999847,1042.055451799999,"[5, 0, 249]",249,a,0.0867574000149034,colour,0.5
171,21,0,1,15,49,749,1042.571225599997,1043.1114581000002,"[36, 0, 218]",218,a,0.01743570002145134,colour,0.5
171,21,0,1,15,50,750,1043.61789709999,1044.2234326000034,"[12, 0, 242]",242,a,0.0823979000269901,colour,0.5
171,21,0,1,16,1,751,1048.6795370999898,1049.2234794999822,"[92, 0, 162]",162,l,0.01960329999565147,colour,0.5
171,21,0,1,16,2,752,1049.7428147000028,1050.3994872999901,"[6, 0, 248]",248,a,0.13374029999249615,colour,0.5
171,21,0,1,16,3,753,1050.9148509999795,1051.471490099997,"[88, 0, 166]",166,l,0.033334000007016584,colour,0.5
171,21,0,1,16,4,754,1051.9929284999962,1052.9754585999763,"[52, 0, 202]",202,a,0.45913989999098703,colour,0.5
171,21,0,1,16,5,755,1053.4929084999894,1054.2474097999802,"[95, 0, 159]",159,l,0.23156379998545162,colour,0.5
171,21,0,1,16,6,756,1054.7585486999888,1055.375462600001,"[19, 0, 235]",235,a,0.09380170001531951,colour,0.5
171,21,0,1,16,7,757,1055.883489300002,1056.4314922999765,"[66, 0, 188]",188,a,0.024864699982572347,colour,0.5
171,21,0,1,16,8,758,1056.9460951999936,1058.0154449999973,"[24, 0, 230]",230,a,0.5460807000054047,colour,0.5
171,21,0,1,16,9,759,1058.524102299998,1059.0954516999773,"[41, 0, 213]",213,a,0.04809840000234544,colour,0.5
171,21,0,1,16,10,760,1059.6022067999875,1060.599552300002,"[64, 0, 190]",190,a,0.4738975000218488,colour,0.5
171,21,0,1,16,11,761,1061.11789709999,1061.8714715999959,"[56, 0, 198]",198,a,0.23033350001787767,colour,0.5
171,21,0,1,16,12,762,1062.383463999984,1062.9994311999762,"[9, 0, 245]",245,a,0.09261120000155643,colour,0.5
171,21,0,1,16,13,763,1063.508502199984,1064.0794428999943,"[69, 0, 185]",185,a,0.047844799992162734,colour,0.5
171,21,0,1,16,14,764,1064.5866284999938,1065.6714403999795,"[3, 0, 251]",251,a,0.5614118999801576,colour,0.5
171,21,0,1,16,15,765,1066.1802725000016,1067.0315083999885,"[35, 0, 219]",219,a,0.32778130000224337,colour,0.5
171,21,0,1,16,16,766,1067.5397117999964,1068.1194385999988,"[49, 0, 205]",205,a,0.056512100010877475,colour,0.5
171,21,0,1,16,17,767,1068.633475199982,1069.271507700003,"[76, 0, 178]",178,l,0.1146374000236392,colour,0.5
171,21,0,1,16,18,768,1069.7897494999925,1070.8154009999998,"[77, 0, 177]",177,l,0.502465099998517,colour,0.5
171,21,0,1,16,19,769,1071.3366336999752,1071.9114824999997,"[53, 0, 201]",201,l,0.05156180000631139,colour,0.5
171,21,0,1,16,20,770,1072.430302599998,1073.2714503000025,"[79, 0, 175]",175,l,0.31761310002184473,colour,0.5
171,21,0,1,16,21,771,1073.7898004000017,1074.3354390999884,"[81, 0, 173]",173,a,0.02247299998998642,colour,0.5
171,21,0,1,16,22,772,1074.8521714999806,1075.4235159999807,"[86, 0, 168]",168,l,0.04833560000406578,colour,0.5
171,21,0,1,16,23,773,1075.9303171999927,1076.519411199988,"[14, 0, 240]",240,a,0.0665308999887202,colour,0.5
171,21,0,1,16,24,774,1077.0396798999864,1077.7514146999747,"[0, 0, 254]",254,a,0.18862599998828955,colour,0.5
171,21,0,1,16,25,775,1078.2584529999876,1078.8074940999795,"[98, 0, 156]",156,l,0.025981999991927296,colour,0.5
171,21,0,1,16,26,776,1079.3209259999858,1080.1274522999884,"[65, 0, 189]",189,l,0.28334359999280423,colour,0.5
171,21,0,1,16,27,777,1080.6490859999903,1081.1834375000035,"[29, 0, 225]",225,a,0.011103500000899658,colour,0.5
171,21,0,1,16,28,778,1081.6960322999803,1082.711462199979,"[2, 0, 252]",252,a,0.4926311000017449,colour,0.5
171,21,0,1,16,29,779,1083.2270406000025,1083.9674207999778,"[11, 0, 243]",243,a,0.21741240000119433,colour,0.5
171,21,0,1,16,30,780,1084.4771514000022,1085.4154796999937,"[34, 0, 220]",220,a,0.4149553000170272,colour,0.5
171,21,0,1,16,31,781,1085.930295500002,1086.6713814999966,"[94, 0, 160]",160,l,0.21773709999979474,colour,0.5
171,21,0,1,16,32,782,1087.1804690999852,1087.9515796999913,"[30, 0, 224]",224,a,0.24785549999796785,colour,0.5
171,21,0,1,16,33,783,1088.4615411999985,1089.2714590999822,"[10, 0, 244]",244,a,0.28751979998196475,colour,0.5
171,21,0,1,16,34,784,1089.789667199977,1090.5434512999782,"[40, 0, 214]",214,a,0.2305968999862671,colour,0.5
171,21,0,1,16,35,785,1091.0553865999973,1091.7754662999942,"[28, 0, 226]",226,a,0.19675470000947826,colour,0.5
171,21,0,1,16,36,786,1092.2896626000002,1092.9114408000023,"[5, 0, 249]",249,a,0.09860340002342127,colour,0.5
171,21,0,1,16,37,787,1093.430213499989,1094.0794814999972,"[36, 0, 218]",218,a,0.12571350001962855,colour,0.5
171,21,0,1,16,38,788,1094.5864905999915,1095.1914519999991,"[45, 0, 209]",209,a,0.08212010000715964,colour,0.5
171,21,0,1,16,39,789,1095.7116498999821,1096.239441999991,"[83, 0, 171]",171,l,0.004424300015671179,colour,0.5
171,21,0,1,16,40,790,1096.758449099987,1097.319422200002,"[87, 0, 167]",167,l,0.03768610002589412,colour,0.5
171,21,0,1,16,41,791,1097.8365380000032,1098.4394203999836,"[22, 0, 232]",232,a,0.07952319999458268,colour,0.5
171,21,0,1,16,42,792,1098.9459749999805,1099.4874742999964,"[4, 0, 250]",250,a,0.018187600013334304,colour,0.5
171,21,0,1,16,43,793,1100.0083158999914,1100.7994428999955,"[93, 0, 161]",161,l,0.2678131000138819,colour,0.5
171,21,0,1,16,44,794,1101.3208676999784,1102.0473985999997,"[75, 0, 179]",179,l,0.20314759999746457,colour,0.5
171,21,0,1,16,45,795,1102.5551108999935,1103.0795734999992,"[43, 0, 211]",211,a,0.0013121000083629042,colour,0.5
171,21,0,1,16,46,796,1103.601948800002,1104.279440399987,"[67, 0, 187]",187,a,0.15400270000100136,colour,0.5
171,21,0,1,16,47,797,1104.7896429999964,1105.6154690999829,"[91, 0, 163]",163,l,0.30254839998087846,colour,0.5
171,21,0,1,16,48,798,1106.133342599991,1106.6640148999868,"[89, 0, 165]",165,l,0.007380600000033155,colour,0.5
171,21,0,1,16,49,799,1107.1959342999908,1107.7594381999807,"[46, 0, 208]",208,a,0.04020039999159053,colour,0.5
171,21,0,1,16,50,800,1108.2739362999855,1108.7998349999834,"[57, 0, 197]",197,a,0.002984199993079528,colour,0.5
