id,age,condition,counterbalance,block,trialinblock,trial,tstart,tend,trialstim,trialintensity,response,RT,trialtype,colourfreq
175,21,0,2,Practice,1,NA,5.119945853948593e-06,3.8595949998125434,"[86, 0, 168]",168,l,3.3363722506910563,colour,0.5
175,21,0,2,Practice,2,NA,4.376129058655351,5.5956211388111115,"[20, 0, 234]",234,a,0.6973768267780542,colour,0.5
175,21,0,2,Practice,3,NA,6.110559726133943,6.971568240318447,"[98, 0, 156]",156,l,0.33869870053604245,colour,0.5
175,21,0,2,Practice,4,NA,7.48563721543178,8.387602193281054,"[18, 0, 236]",236,a,0.3797162105329335,colour,0.5
175,21,0,2,Practice,5,NA,8.907670627813786,16.515594341326505,"[2, 0, 252]",252,l,7.085687155369669,colour,0.5
175,21,0,2,Practice,6,NA,17.033618714194745,19.84361626440659,"[9, 0, 245]",245,a,2.2879878473468125,colour,0.5
175,21,0,2,Practice,7,NA,20.361685141921043,20.971578480210155,"[14, 0, 240]",240,a,0.08755438029766083,colour,0.5
175,21,0,2,Practice,8,NA,21.48677109880373,23.107619270216674,"[67, 0, 187]",187,l,1.0985273299738765,colour,0.5
175,21,0,2,Practice,9,NA,23.627610117197037,24.251615753863007,"[87, 0, 167]",167,l,0.10178995225578547,colour,0.5
175,21,0,2,Practice,10,NA,24.768117911182344,27.611621929332614,"[59, 0, 195]",195,a,2.3210177617147565,colour,0.5
175,21,0,2,1,1,1,4.564582117367536,5.599995588883758,"[24, 0, 230]",230,a,0.5122895776294172,colour,0.5
175,21,0,2,1,2,2,6.112420649733394,7.048034274019301,"[74, 0, 180]",180,l,0.41341684432700276,colour,0.5
175,21,0,2,1,3,3,7.565629354212433,8.503995175939053,"[48, 0, 206]",206,a,0.41603631572797894,colour,0.5
175,21,0,2,1,4,4,9.018869960680604,10.040037620346993,"[70, 0, 184]",184,l,0.4989590644836426,colour,0.5
175,21,0,2,1,5,5,10.550263837445527,11.36803315533325,"[97, 0, 157]",157,l,0.29549455642700195,colour,0.5
175,21,0,2,1,6,6,11.878468505106866,12.992013979703188,"[64, 0, 190]",190,a,0.5913538145832717,colour,0.5
175,21,0,2,1,7,7,13.503606055863202,14.391991215758026,"[26, 0, 228]",228,a,0.3662045276723802,colour,0.5
175,21,0,2,1,8,8,14.910244019236416,15.872001550160348,"[52, 0, 202]",202,a,0.4398254160769284,colour,0.5
175,21,0,2,1,9,9,16.378764677792788,17.272103635128587,"[14, 0, 240]",240,a,0.37112603010609746,colour,0.5
175,21,0,2,1,10,10,17.78514585318044,18.7040119539015,"[95, 0, 159]",159,l,0.39666105015203357,colour,0.5
175,21,0,2,1,11,11,19.222762973047793,20.416021743323654,"[57, 0, 197]",197,a,0.6709966119378805,colour,0.5
175,21,0,2,1,12,12,20.926067973021418,21.847989533096552,"[46, 0, 208]",208,a,0.3997046942822635,colour,0.5
175,21,0,2,1,13,13,22.363678791560233,23.45599398529157,"[54, 0, 200]",200,a,0.5701195956207812,colour,0.5
175,21,0,2,1,14,14,23.9732227884233,24.83202970214188,"[60, 0, 194]",194,a,0.33685825718566775,colour,0.5
175,21,0,2,1,15,15,25.34826680086553,26.144057136029005,"[63, 0, 191]",191,a,0.2735132109373808,colour,0.5
175,21,0,2,1,16,16,26.660924782510847,27.583997948560864,"[11, 0, 243]",243,a,0.4008354265242815,colour,0.5
175,21,0,2,1,17,17,28.098451317753643,29.12800790183246,"[62, 0, 192]",192,l,0.5072487397119403,colour,0.5
175,21,0,2,1,18,18,29.645474194549024,31.416041041724384,"[55, 0, 199]",199,a,1.2482231627218425,colour,0.5
175,21,0,2,1,19,19,31.926843849942088,32.83204348664731,"[89, 0, 165]",165,l,0.38286855537444353,colour,0.5
175,21,0,2,1,20,20,33.34890798246488,34.19201027788222,"[90, 0, 164]",164,l,0.32084525702521205,colour,0.5
175,21,0,2,1,21,21,34.708335204049945,35.536005028523505,"[18, 0, 236]",236,a,0.30598543863743544,colour,0.5
175,21,0,2,1,22,22,36.052222828846425,36.87200824543834,"[77, 0, 177]",177,l,0.29752483405172825,colour,0.5
175,21,0,2,1,23,23,37.380427102558315,38.16001184703782,"[41, 0, 213]",213,a,0.2573147094808519,colour,0.5
175,21,0,2,1,24,24,38.67742536403239,39.4400117052719,"[93, 0, 161]",161,l,0.24009890295565128,colour,0.5
175,21,0,2,1,25,25,39.95880919788033,40.71202002931386,"[37, 0, 217]",217,a,0.2309069256298244,colour,0.5
175,21,0,2,1,26,26,41.22448408091441,41.992038004565984,"[25, 0, 229]",229,a,0.24520433135330677,colour,0.5
175,21,0,2,1,27,27,42.50588642572984,43.28801502287388,"[33, 0, 221]",221,a,0.2600673004053533,colour,0.5
175,21,0,2,1,28,28,43.80283860722557,44.73599620629102,"[22, 0, 232]",232,a,0.4109273422509432,colour,0.5
175,21,0,2,1,29,29,45.25615522591397,46.04804175719619,"[17, 0, 237]",237,a,0.2699284222908318,colour,0.5
175,21,0,2,1,30,30,46.55303809046745,47.208035487215966,"[94, 0, 160]",160,l,0.1326974295079708,colour,0.5
175,21,0,2,1,31,31,47.725057914853096,48.44804341113195,"[39, 0, 215]",215,a,0.20071939937770367,colour,0.5
175,21,0,2,1,32,32,48.959556717891246,50.0240462818183,"[80, 0, 174]",174,l,0.5422478853724897,colour,0.5
175,21,0,2,1,33,33,50.537711957935244,51.28001246135682,"[31, 0, 223]",223,a,0.22008442506194115,colour,0.5
175,21,0,2,1,34,34,51.78784606279805,52.38403158308938,"[91, 0, 163]",163,l,0.07410098658874631,colour,0.5
175,21,0,2,1,35,35,52.89730695821345,53.64805506914854,"[68, 0, 186]",186,l,0.2284119096584618,colour,0.5
175,21,0,2,1,36,36,54.163057066034526,54.79204603889957,"[34, 0, 220]",220,a,0.10675595933571458,colour,0.5
175,21,0,2,1,37,37,55.30374681670219,56.00802737381309,"[67, 0, 187]",187,l,0.18191009107977152,colour,0.5
175,21,0,2,1,38,38,56.5226032291539,57.33599494630471,"[88, 0, 166]",166,l,0.2913776822388172,colour,0.5
175,21,0,2,1,39,39,57.85088784759864,58.58402512408793,"[27, 0, 227]",227,a,0.21093813376501203,colour,0.5
175,21,0,2,1,40,40,59.10102825378999,59.86402065027505,"[50, 0, 204]",204,a,0.2408212167210877,colour,0.5
175,21,0,2,1,41,41,60.38237427826971,61.20001520216465,"[44, 0, 210]",210,a,0.295444143936038,colour,0.5
175,21,0,2,1,42,42,61.71048127207905,62.4800477498211,"[35, 0, 219]",219,a,0.24724524235352874,colour,0.5
175,21,0,2,1,43,43,62.99186116736382,63.75202456628904,"[2, 0, 252]",252,a,0.23783034831285477,colour,0.5
175,21,0,2,1,44,44,64.25769792124629,64.93604212906212,"[8, 0, 246]",246,a,0.15608165552839637,colour,0.5
175,21,0,2,1,45,45,65.44523174315691,66.06404530489817,"[12, 0, 242]",242,a,0.09659827128052711,colour,0.5
175,21,0,2,1,46,46,66.57025901693851,67.35203039553016,"[83, 0, 171]",171,l,0.2594985864125192,colour,0.5
175,21,0,2,1,47,47,67.86723049683496,68.45604597264901,"[20, 0, 234]",234,a,0.06646076356992126,colour,0.5
175,21,0,2,1,48,48,68.96110414015129,69.7120093954727,"[13, 0, 241]",241,a,0.2287159590050578,colour,0.5
175,21,0,2,1,49,49,70.22684006905183,71.10405220510438,"[1, 0, 253]",253,a,0.35503189777955413,colour,0.5
175,21,0,2,1,50,50,71.6175839737989,72.43201583903283,"[79, 0, 175]",175,l,0.29220357770100236,colour,0.5
175,21,0,2,2,1,51,109.8229988082312,110.35206229705364,"[42, 0, 212]",212,a,0.006007336545735598,colour,0.5
175,21,0,2,2,2,52,110.87080268235877,111.792059823405,"[96, 0, 158]",158,l,0.3991399183869362,colour,0.5
175,21,0,2,2,3,53,112.30838356819004,113.17609692085534,"[11, 0, 243]",243,a,0.3455768311396241,colour,0.5
175,21,0,2,2,4,54,113.6834941408597,114.5680274842307,"[97, 0, 157]",157,l,0.36235704366117716,colour,0.5
175,21,0,2,2,5,55,115.07417069748044,115.89601159794256,"[72, 0, 182]",182,l,0.29956653295084834,colour,0.5
175,21,0,2,2,6,56,116.40238954359666,117.16000712057576,"[85, 0, 169]",169,l,0.23531563999131322,colour,0.5
175,21,0,2,2,7,57,117.66812192834914,118.52800483023748,"[73, 0, 181]",181,l,0.33759986981749535,colour,0.5
175,21,0,2,2,8,58,119.04340067319572,119.80005568964407,"[80, 0, 174]",174,l,0.23453070456162095,colour,0.5
175,21,0,2,2,9,59,120.30898694088683,121.0480350619182,"[78, 0, 176]",176,l,0.21680368576198816,colour,0.5
175,21,0,2,2,10,60,121.55906787607819,122.35200833994895,"[28, 0, 226]",226,a,0.2713383920490742,colour,0.5
175,21,0,2,2,11,61,122.87162857782096,123.71205193083733,"[38, 0, 216]",216,a,0.31836757017299533,colour,0.5
175,21,0,2,2,12,62,124.23116528848186,125.16804749146104,"[36, 0, 218]",218,a,0.4146369802765548,colour,0.5
175,21,0,2,2,13,63,125.68439407926053,126.51202058093622,"[34, 0, 220]",220,a,0.3053513462655246,colour,0.5
175,21,0,2,2,14,64,127.02819111943245,127.91201435821131,"[10, 0, 244]",244,a,0.36158707458525896,colour,0.5
175,21,0,2,2,15,65,128.41893659951165,129.01602087682113,"[69, 0, 185]",185,l,0.07481306092813611,colour,0.5
175,21,0,2,2,16,66,129.52838646713644,130.24805026408285,"[92, 0, 162]",162,l,0.19738430948927999,colour,0.5
175,21,0,2,2,17,67,130.76292465487495,131.44806664809585,"[44, 0, 210]",210,a,0.1628676257096231,colour,0.5
175,21,0,2,2,18,68,131.9661753042601,132.60803123330697,"[67, 0, 187]",187,l,0.1196532417088747,colour,0.5
175,21,0,2,2,19,69,133.1225141407922,133.7520537110977,"[26, 0, 228]",228,a,0.10787645215168595,colour,0.5
175,21,0,2,2,20,70,134.26318459352478,135.03204648010433,"[0, 0, 254]",254,a,0.2465300178155303,colour,0.5
175,21,0,2,2,21,71,135.5445436150767,136.280047907494,"[68, 0, 186]",186,l,0.21324252802878618,colour,0.5
175,21,0,2,2,22,72,136.7945331777446,137.43206782639027,"[30, 0, 224]",224,a,0.11524058878421783,colour,0.5
175,21,0,2,2,23,73,137.95102876564488,138.7440235801041,"[43, 0, 211]",211,a,0.2711820346303284,colour,0.5
175,21,0,2,2,24,74,139.26370486430824,139.8960576779209,"[81, 0, 173]",173,l,0.1102737938053906,colour,0.5
175,21,0,2,2,25,75,140.40430403035134,141.04004589095712,"[49, 0, 205]",205,a,0.11347300698980689,colour,0.5
175,21,0,2,2,26,76,141.56057079322636,142.24805695936084,"[31, 0, 223]",223,a,0.1651432691141963,colour,0.5
175,21,0,2,2,27,77,142.763862402644,143.38406663574278,"[66, 0, 188]",188,l,0.0978837856091559,colour,0.5
175,21,0,2,2,28,78,143.9045564858243,144.50403022859246,"[71, 0, 183]",183,l,0.07731949863955379,colour,0.5
175,21,0,2,2,29,79,145.0140256518498,145.66405546618626,"[5, 0, 249]",249,a,0.12780861603096128,colour,0.5
175,21,0,2,2,30,80,146.17045979946852,146.76803323440254,"[4, 0, 250]",250,a,0.0756169012747705,colour,0.5
175,21,0,2,2,31,81,147.27988761197776,148.02403052756563,"[21, 0, 233]",233,a,0.22194219753146172,colour,0.5
175,21,0,2,2,32,82,148.52995436871424,149.16005201917142,"[76, 0, 178]",178,l,0.10785282123833895,colour,0.5
175,21,0,2,2,33,83,149.67065987363458,150.5680255149491,"[27, 0, 227]",227,a,0.37519012950360775,colour,0.5
175,21,0,2,2,34,84,151.0770489256829,151.81601552059874,"[52, 0, 202]",202,a,0.21672924887388945,colour,0.5
175,21,0,2,2,35,85,152.32705227378756,153.12803113879636,"[48, 0, 206]",206,a,0.27883289149031043,colour,0.5
175,21,0,2,2,36,86,153.63974491367117,154.35207056766376,"[15, 0, 239]",239,a,0.1900926404632628,colour,0.5
175,21,0,2,2,37,87,154.8585678488016,155.47205976070836,"[16, 0, 238]",238,a,0.09120100270956755,colour,0.5
175,21,0,2,2,38,88,155.9836254492402,156.6320633366704,"[83, 0, 171]",171,l,0.12615249259397388,colour,0.5
175,21,0,2,2,39,89,157.14005959685892,158.03202993841842,"[99, 0, 155]",155,l,0.369740872643888,colour,0.5
175,21,0,2,2,40,90,158.54636751674116,159.22401894861832,"[8, 0, 246]",246,a,0.15535303996875882,colour,0.5
175,21,0,2,2,41,91,159.73400925239548,160.45604164060205,"[82, 0, 172]",172,l,0.19985215039923787,colour,0.5
175,21,0,2,2,42,92,160.96848284918815,161.6640893369913,"[95, 0, 159]",159,l,0.17402332043275237,colour,0.5
175,21,0,2,2,43,93,162.17156926449388,162.89605807187036,"[19, 0, 235]",235,a,0.20272840932011604,colour,0.5
175,21,0,2,2,44,94,163.40608027670532,164.1440685573034,"[57, 0, 197]",197,a,0.21590532222762704,colour,0.5
175,21,0,2,2,45,95,164.65626164292917,165.34402428939939,"[37, 0, 217]",217,a,0.16578720835968852,colour,0.5
175,21,0,2,2,46,96,165.85946109239012,166.48805976379663,"[86, 0, 168]",168,l,0.10627704253420234,colour,0.5
175,21,0,2,2,47,97,167.00013508927077,167.6720489691943,"[77, 0, 177]",177,l,0.14962100191041827,colour,0.5
175,21,0,2,2,48,98,168.18778667086735,168.90405827015638,"[75, 0, 179]",179,l,0.19414374278858304,colour,0.5
175,21,0,2,2,49,99,169.4222622369416,170.0800724835135,"[14, 0, 240]",240,a,0.13586592208594084,colour,0.5
175,21,0,2,2,50,100,170.59412412904203,171.2320352946408,"[98, 0, 156]",156,l,0.11553636705502868,colour,0.5
175,21,0,2,3,1,101,176.34385847998783,177.29600852588192,"[51, 0, 203]",203,a,0.4290820783935487,colour,0.5
175,21,0,2,3,2,102,177.8136197538115,178.75218722503632,"[21, 0, 233]",233,a,0.4163490296341479,colour,0.5
175,21,0,2,3,3,103,179.26672960305586,179.9440974658355,"[82, 0, 172]",172,l,0.15523488586768508,colour,0.5
175,21,0,2,3,4,104,180.45436070486903,181.1120346803218,"[36, 0, 218]",218,a,0.1356221311725676,colour,0.5
175,21,0,2,3,5,105,181.62644196953624,182.39204792957753,"[33, 0, 221]",221,a,0.24356238637119532,colour,0.5
175,21,0,2,3,6,106,182.9076536926441,183.56006548879668,"[80, 0, 174]",174,l,0.13009331794455647,colour,0.5
175,21,0,2,3,7,107,184.07958805235103,184.92005000263453,"[62, 0, 192]",192,a,0.31821790896356106,colour,0.5
175,21,0,2,3,8,108,185.43927403120324,186.45602667424828,"[78, 0, 176]",176,l,0.49518680525943637,colour,0.5
175,21,0,2,3,9,109,186.97047807415947,187.69610982295126,"[68, 0, 186]",186,l,0.2036570985801518,colour,0.5
175,21,0,2,3,10,110,188.2048953510821,189.1360376388766,"[63, 0, 191]",191,l,0.4096020497381687,colour,0.5
175,21,0,2,3,11,111,189.64317570813,190.37611054768786,"[34, 0, 220]",220,a,0.21016225684434175,colour,0.5
175,21,0,2,3,12,112,190.89452797919512,191.56806489964947,"[18, 0, 236]",236,a,0.15136180212721229,colour,0.5
175,21,0,2,3,13,113,192.08205943740904,192.91204625973478,"[31, 0, 223]",223,a,0.30768764251843095,colour,0.5
175,21,0,2,3,14,114,193.42589940689504,194.08804511278868,"[99, 0, 155]",155,l,0.1398083232343197,colour,0.5
175,21,0,2,3,15,115,194.59787590848282,195.2480498701334,"[85, 0, 169]",169,l,0.1278818710707128,colour,0.5
175,21,0,2,3,16,116,195.75428169919178,196.64806649042293,"[5, 0, 249]",249,a,0.37154547590762377,colour,0.5
175,21,0,2,3,17,117,197.16059867758304,197.76004209415987,"[38, 0, 216]",216,a,0.07703553512692451,colour,0.5
175,21,0,2,3,18,118,198.27013204060495,198.9440584750846,"[91, 0, 163]",163,l,0.1518659251742065,colour,0.5
175,21,0,2,3,19,119,199.4576217518188,200.57609187951311,"[22, 0, 232]",232,a,0.5961339264176786,colour,0.5
175,21,0,2,3,20,120,201.08276678528637,201.85606259293854,"[67, 0, 187]",187,a,0.25098008615896106,colour,0.5
175,21,0,2,3,21,121,202.3641470745206,203.4640686204657,"[19, 0, 235]",235,a,0.5775770735926926,colour,0.5
175,21,0,2,3,22,122,203.97376865940168,204.75206749560311,"[43, 0, 211]",211,a,0.2561138719320297,colour,0.5
175,21,0,2,3,23,123,205.27068815147504,205.94403838878497,"[77, 0, 177]",177,l,0.1511908727698028,colour,0.5
175,21,0,2,3,24,124,206.45826687151566,207.0640756310895,"[7, 0, 247]",247,a,0.08348319167271256,colour,0.5
175,21,0,2,3,25,125,207.58330793026835,208.29607705539092,"[37, 0, 217]",217,a,0.19050224078819156,colour,0.5
175,21,0,2,3,26,126,208.8022301150486,209.96002697059885,"[64, 0, 190]",190,l,0.6355579346418381,colour,0.5
175,21,0,2,3,27,127,210.47419480094686,211.2240433669649,"[84, 0, 170]",170,l,0.22751866606995463,colour,0.5
175,21,0,2,3,28,128,211.73998586880043,212.48803258826956,"[66, 0, 188]",188,l,0.22589995805174112,colour,0.5
175,21,0,2,3,29,129,213.0056327888742,213.632081059739,"[73, 0, 181]",181,l,0.10436767572537065,colour,0.5
175,21,0,2,3,30,130,214.14637334551662,214.86407657619566,"[98, 0, 156]",156,l,0.19534339848905802,colour,0.5
175,21,0,2,3,31,131,215.38083709636703,216.02421996789053,"[9, 0, 245]",245,a,0.12119436264038086,colour,0.5
175,21,0,2,3,32,132,216.53713221661747,217.42406841553748,"[13, 0, 241]",241,a,0.3645791239105165,colour,0.5
175,21,0,2,3,33,133,217.94349842565134,218.7520564678125,"[8, 0, 246]",246,a,0.28675038227811456,colour,0.5
175,21,0,2,3,34,134,219.27165307477117,220.04803151730448,"[32, 0, 222]",222,a,0.2541808746755123,colour,0.5
175,21,0,2,3,35,135,220.55304714897648,221.28006051061675,"[6, 0, 248]",248,a,0.20475080981850624,colour,0.5
175,21,0,2,3,36,136,221.78761172434315,222.50404834514484,"[20, 0, 234]",234,a,0.1942221182398498,colour,0.5
175,21,0,2,3,37,137,223.0220593274571,223.57610920863226,"[16, 0, 238]",238,a,0.031940141692757607,colour,0.5
175,21,0,2,3,38,138,224.08464897656813,225.8640706683509,"[49, 0, 205]",205,a,1.257209945935756,colour,0.5
175,21,0,2,3,39,139,226.38176302891225,227.12005772208795,"[11, 0, 243]",243,a,0.21669262135401368,colour,0.5
175,21,0,2,3,40,140,227.6318289982155,228.30404653353617,"[69, 0, 185]",185,l,0.1500254818238318,colour,0.5
175,21,0,2,3,41,141,228.81939472118393,229.60003536753356,"[96, 0, 158]",158,l,0.25843992782756686,colour,0.5
175,21,0,2,3,42,142,230.11637919815257,230.82404092513025,"[56, 0, 198]",198,l,0.1854814887046814,colour,0.5
175,21,0,2,3,43,143,231.3352178875357,232.09607288055122,"[57, 0, 197]",197,l,0.2394104595296085,colour,0.5
175,21,0,2,3,44,144,232.6012141490355,233.62407101504505,"[55, 0, 199]",199,a,0.5008999384008348,colour,0.5
175,21,0,2,3,45,145,234.1322874352336,234.87208150094375,"[95, 0, 159]",159,l,0.2181644244119525,colour,0.5
175,21,0,2,3,46,146,235.3824542290531,236.1600307514891,"[46, 0, 208]",208,a,0.2553939209319651,colour,0.5
175,21,0,2,3,47,147,236.67940129060298,237.43207924813032,"[79, 0, 175]",175,l,0.23045282065868378,colour,0.5
175,21,0,2,3,48,148,237.94508090009913,238.53604204999283,"[81, 0, 173]",173,l,0.06925273966044188,colour,0.5
175,21,0,2,3,49,149,239.0545347062871,239.73606906784698,"[14, 0, 240]",240,a,0.1593427020125091,colour,0.5
175,21,0,2,3,50,150,240.2421835307032,240.80806967290118,"[40, 0, 214]",214,a,0.04355584876611829,colour,0.5
175,21,0,2,4,1,151,245.6168514196761,246.29607351031154,"[83, 0, 171]",171,l,0.15622343961149454,colour,0.5
175,21,0,2,4,2,152,246.80520404782146,247.59208361199126,"[75, 0, 179]",179,l,0.2648245692253113,colour,0.5
175,21,0,2,4,3,153,248.1022231830284,250.40805462794378,"[3, 0, 251]",251,a,1.7836275757290423,colour,0.5
175,21,0,2,4,4,154,250.91487683262676,251.67205684632063,"[18, 0, 236]",236,a,0.23490564664825797,colour,0.5
175,21,0,2,4,5,155,252.18071240466088,252.8400669223629,"[25, 0, 229]",229,a,0.13716837158426642,colour,0.5
175,21,0,2,4,6,156,253.35264873411506,254.4720550342463,"[93, 0, 161]",161,l,0.597207551356405,colour,0.5
175,21,0,2,4,7,157,254.9777043648064,255.7040706370026,"[73, 0, 181]",181,l,0.2040663049556315,colour,0.5
175,21,0,2,4,8,158,256.21209998009726,256.86407775757834,"[13, 0, 241]",241,a,0.12964118225499988,colour,0.5
175,21,0,2,4,9,159,257.38414343539625,258.0560927619226,"[34, 0, 220]",220,a,0.14968480495736003,colour,0.5
175,21,0,2,4,10,160,258.5717796571553,259.2480349042453,"[7, 0, 247]",247,a,0.1542849289253354,colour,0.5
175,21,0,2,4,11,161,259.759357589297,260.44005227135494,"[48, 0, 206]",206,a,0.15843567438423634,colour,0.5
175,21,0,2,4,12,162,260.9469036203809,261.6080702240579,"[51, 0, 203]",203,a,0.13935264246538281,colour,0.5
175,21,0,2,4,13,163,262.1190242697485,262.7360879727639,"[94, 0, 160]",160,l,0.09492127411067486,colour,0.5
175,21,0,2,4,14,164,263.24392354348674,263.9040543315932,"[96, 0, 158]",158,l,0.13768667308613658,colour,0.5
175,21,0,2,4,15,165,264.4159457311034,265.0720651955344,"[15, 0, 239]",239,a,0.13378956448286772,colour,0.5
175,21,0,2,4,16,166,265.58796358667314,266.26415936276317,"[14, 0, 240]",240,a,0.1540285348892212,colour,0.5
175,21,0,2,4,17,167,266.7755096172914,267.6080485628918,"[23, 0, 231]",231,a,0.31022086134180427,colour,0.5
175,21,0,2,4,18,168,268.11944135278463,268.720074578654,"[99, 0, 155]",155,l,0.07837500609457493,colour,0.5
175,21,0,2,4,19,169,269.22890933742747,270.13608883926645,"[43, 0, 211]",211,a,0.38500359607860446,colour,0.5
175,21,0,2,4,20,170,270.65080057131127,271.4560794499703,"[79, 0, 175]",175,l,0.2829036866314709,colour,0.5
175,21,0,2,4,21,171,271.9634463433176,272.8480367944576,"[37, 0, 217]",217,a,0.3623609817586839,colour,0.5
175,21,0,2,4,22,172,273.3541169925593,274.3840898727067,"[33, 0, 221]",221,a,0.5076811830513179,colour,0.5
175,21,0,2,4,23,173,274.90117807267234,275.6640672814101,"[49, 0, 205]",205,a,0.24063886562362313,colour,0.5
175,21,0,2,4,24,174,276.1825170083903,277.1760480836965,"[68, 0, 186]",186,l,0.4712649788707495,colour,0.5
175,21,0,2,4,25,175,277.68266903283074,279.1440949453972,"[80, 0, 174]",174,l,0.9391736006364226,colour,0.5
175,21,0,2,4,26,176,279.6515004360117,280.53606410557404,"[59, 0, 195]",195,l,0.3622274682857096,colour,0.5
175,21,0,2,4,27,177,281.0423703715205,281.88808386726305,"[95, 0, 159]",159,l,0.3234572452493012,colour,0.5
175,21,0,2,4,28,178,282.4017936545424,283.2160549839027,"[57, 0, 197]",197,a,0.2921023587696254,colour,0.5
175,21,0,2,4,29,179,283.73004046361893,284.36004319693893,"[10, 0, 244]",244,a,0.10775751061737537,colour,0.5
175,21,0,2,4,30,180,284.8707302142866,285.58407986862585,"[91, 0, 163]",163,l,0.19110640045255423,colour,0.5
175,21,0,2,4,31,181,286.0895421220921,286.84810020402074,"[30, 0, 224]",224,a,0.2364711849950254,colour,0.5
175,21,0,2,4,32,182,287.35523197147995,288.61607239209116,"[62, 0, 192]",192,l,0.7385199731215835,colour,0.5
175,21,0,2,4,33,183,289.12105257762596,290.0240222569555,"[35, 0, 219]",219,a,0.38077683793380857,colour,0.5
175,21,0,2,4,34,184,290.5430706301704,291.1920551760122,"[67, 0, 187]",187,l,0.12669206177815795,colour,0.5
175,21,0,2,4,35,185,291.6993960761465,292.4720818158239,"[56, 0, 198]",198,l,0.25049880612641573,colour,0.5
175,21,0,2,4,36,186,292.98079684516415,293.6960897371173,"[20, 0, 234]",234,a,0.19282317673787475,colour,0.5
175,21,0,2,4,37,187,294.2151672546752,294.96003996767104,"[84, 0, 170]",170,l,0.22252430254593492,colour,0.5
175,21,0,2,4,38,188,295.4652978144586,296.36007431102917,"[92, 0, 162]",162,l,0.3725552982650697,colour,0.5
175,21,0,2,4,39,189,296.8716494515538,297.7840714403428,"[12, 0, 242]",242,a,0.3902827105484903,colour,0.5
175,21,0,2,4,40,190,298.2937746299431,299.048051209189,"[45, 0, 209]",209,a,0.23202584218233824,colour,0.5
175,21,0,2,4,41,191,299.5594042208977,300.58407435473055,"[60, 0, 194]",194,l,0.5024556308053434,colour,0.5
175,21,0,2,4,42,192,301.09079770417884,301.8240921255201,"[19, 0, 235]",235,a,0.2111000050790608,colour,0.5
175,21,0,2,4,43,193,302.34079711325467,303.0640590894036,"[63, 0, 191]",191,l,0.200902143958956,colour,0.5
175,21,0,2,4,44,194,303.5753490854986,304.20810086559504,"[40, 0, 214]",214,a,0.11043881578370929,colour,0.5
175,21,0,2,4,45,195,304.71612627012655,305.42408613860607,"[77, 0, 177]",177,l,0.18573118699714541,colour,0.5
175,21,0,2,4,46,196,305.9348802822642,306.464096583426,"[5, 0, 249]",249,a,0.007329084444791079,colour,0.5
175,21,0,2,4,47,197,306.9818527470343,307.6080635287799,"[27, 0, 227]",227,a,0.10390766337513924,colour,0.5
175,21,0,2,4,48,198,308.12258227635175,308.8000592342578,"[71, 0, 183]",183,l,0.15550545835867524,colour,0.5
175,21,0,2,4,49,199,309.3101724181324,309.9520968766883,"[47, 0, 207]",207,a,0.11967175267636776,colour,0.5
175,21,0,2,4,50,200,310.4665750581771,311.12809415441006,"[69, 0, 185]",185,l,0.13927820604294538,colour,0.5
175,21,0,2,5,1,201,316.59129316266626,317.4401042587124,"[27, 0, 227]",227,a,0.32584434701129794,colour,0.5
175,21,0,2,5,2,202,317.95153367659077,318.49608516832814,"[35, 0, 219]",219,a,0.022477985825389624,colour,0.5
175,21,0,2,5,3,203,319.01414616871625,319.66408461052924,"[76, 0, 178]",178,l,0.12822136655449867,colour,0.5
175,21,0,2,5,4,204,320.17025027330965,320.7760960543528,"[0, 0, 254]",254,a,0.08406962873414159,colour,0.5
175,21,0,2,5,5,205,321.29553039651364,322.02408133400604,"[31, 0, 223]",223,a,0.20630177622660995,colour,0.5
175,21,0,2,5,6,206,322.52980628283694,323.2960475166328,"[57, 0, 197]",197,l,0.24378057708963752,colour,0.5
175,21,0,2,5,7,207,323.8112775506452,324.4880542499013,"[2, 0, 252]",252,a,0.15451611671596766,colour,0.5
175,21,0,2,5,8,208,324.99880822142586,325.58405860094354,"[23, 0, 231]",231,a,0.06296577211469412,colour,0.5
175,21,0,2,5,9,209,326.0927062826231,326.7201927327551,"[96, 0, 158]",158,l,0.10522468574345112,colour,0.5
175,21,0,2,5,10,210,327.23330190451816,327.8160816868767,"[66, 0, 188]",188,l,0.06050895992666483,colour,0.5
175,21,0,2,5,11,211,328.32725707348436,329.024069912266,"[98, 0, 156]",156,l,0.17452468676492572,colour,0.5
175,21,0,2,5,12,212,329.5305459257215,330.2000876702368,"[39, 0, 215]",215,a,0.14840007852762938,colour,0.5
175,21,0,2,5,13,213,330.7180301230401,331.7120491741225,"[69, 0, 185]",185,l,0.4717990346252918,colour,0.5
175,21,0,2,5,14,214,332.2182569783181,332.88008681917563,"[81, 0, 173]",173,l,0.13958540558815002,colour,0.5
175,21,0,2,5,15,215,333.39023190457374,334.0480649941601,"[88, 0, 166]",166,l,0.1356426114216447,colour,0.5
175,21,0,2,5,16,216,334.56215444905683,335.18409554380924,"[45, 0, 209]",209,a,0.09963128110393882,colour,0.5
175,21,0,2,5,17,217,335.7029434489086,336.2960794181563,"[95, 0, 159]",159,l,0.07090689381584525,colour,0.5
175,21,0,2,5,18,218,336.81238898448646,337.76807576976717,"[86, 0, 168]",168,l,0.433478977996856,colour,0.5
175,21,0,2,5,19,219,338.2811991199851,339.0640598773025,"[60, 0, 194]",194,a,0.2605158914811909,colour,0.5
175,21,0,2,5,20,220,339.5781635106541,340.30409930925816,"[29, 0, 225]",225,a,0.2039871420711279,colour,0.5
175,21,0,2,5,21,221,340.81268948921934,341.5120824147016,"[82, 0, 172]",172,l,0.1774572660215199,colour,0.5
175,21,0,2,5,22,222,342.03158410452306,342.77607518061996,"[21, 0, 233]",233,a,0.22226712107658386,colour,0.5
175,21,0,2,5,23,223,343.2814641785808,344.0560856726952,"[79, 0, 175]",175,l,0.2522061299532652,colour,0.5
175,21,0,2,5,24,224,344.5628854278475,345.3280806061812,"[75, 0, 179]",179,l,0.24281919887289405,colour,0.5
175,21,0,2,5,25,225,345.8443208555691,346.60005978588015,"[38, 0, 216]",216,a,0.2344034924171865,colour,0.5
175,21,0,2,5,26,226,347.1109953201376,348.2400780287571,"[59, 0, 195]",195,a,0.6078559719026089,colour,0.5
175,21,0,2,5,27,227,348.7508958033286,349.40006230631843,"[68, 0, 186]",186,l,0.12698508333414793,colour,0.5
175,21,0,2,5,28,228,349.9070322033949,350.79206848843023,"[26, 0, 228]",228,a,0.3632030254229903,colour,0.5
175,21,0,2,5,29,229,351.2978922924958,351.94410534296185,"[11, 0, 243]",243,a,0.12391662783920765,colour,0.5
175,21,0,2,5,30,230,352.4542149817571,353.064109895844,"[15, 0, 239]",239,a,0.08844486670568585,colour,0.5
175,21,0,2,5,31,231,353.5792607665062,354.2160754641518,"[70, 0, 184]",184,l,0.1151346443220973,colour,0.5
175,21,0,2,5,32,232,354.71993397548795,355.3120727259666,"[92, 0, 162]",162,l,0.07081079529598355,colour,0.5
175,21,0,2,5,33,233,355.82940944330767,356.5200578006916,"[50, 0, 204]",204,a,0.16831688210368156,colour,0.5
175,21,0,2,5,34,234,357.0327522526495,357.71208540769294,"[24, 0, 230]",230,a,0.15705760614946485,colour,0.5
175,21,0,2,5,35,235,358.22030379716307,359.2720933952369,"[54, 0, 200]",200,a,0.5295298029668629,colour,0.5
175,21,0,2,5,36,236,359.78291038190946,360.4400963820517,"[78, 0, 176]",176,l,0.1348635833710432,colour,0.5
175,21,0,2,5,37,237,360.9549034247175,361.7040891479701,"[13, 0, 241]",241,a,0.22716420469805598,colour,0.5
175,21,0,2,5,38,238,362.2205928801559,362.8001159480773,"[71, 0, 183]",183,l,0.05714708799496293,colour,0.5
175,21,0,2,5,39,239,363.31441138498485,363.9680779753253,"[28, 0, 226]",226,a,0.13170769391581416,colour,0.5
175,21,0,2,5,40,240,364.48644617572427,365.32810147991404,"[73, 0, 181]",181,l,0.3193840873427689,colour,0.5
175,21,0,2,5,41,241,365.8459537420422,366.46404577745125,"[97, 0, 157]",157,l,0.09584996337071061,colour,0.5
175,21,0,2,5,42,242,366.971050332766,368.0400868509896,"[84, 0, 170]",170,l,0.5468283169902861,colour,0.5
175,21,0,2,5,43,243,368.5492906435393,369.17606265610084,"[44, 0, 210]",210,a,0.1045015836134553,colour,0.5
175,21,0,2,5,44,244,369.69000638788566,370.32806248916313,"[1, 0, 253]",253,a,0.11626025661826134,colour,0.5
175,21,0,2,5,45,245,370.84630465880036,371.456105443649,"[46, 0, 208]",208,a,0.08745867572724819,colour,0.5
175,21,0,2,5,46,246,371.9714619019069,372.7360946680419,"[48, 0, 206]",206,a,0.242484035436064,colour,0.5
175,21,0,2,5,47,247,373.2527527883649,373.8240889743902,"[49, 0, 205]",205,a,0.04906418174505234,colour,0.5
175,21,0,2,5,48,248,374.33091590506956,374.97609707852826,"[30, 0, 224]",224,a,0.12283906433731318,colour,0.5
175,21,0,2,5,49,249,375.48731500050053,376.0481374617666,"[18, 0, 236]",236,a,0.03843899816274643,colour,0.5
175,21,0,2,5,50,250,376.56557027762756,377.20006915926933,"[34, 0, 220]",220,a,0.11214298801496625,colour,0.5
175,21,0,2,6,1,251,382.4089833172038,385.8961088778451,"[80, 0, 174]",174,l,2.9640910695306957,colour,0.5
175,21,0,2,6,2,252,386.41011995775625,387.1760988901369,"[83, 0, 171]",171,l,0.24428785126656294,colour,0.5
175,21,0,2,6,3,253,387.6915093054995,389.9200696949847,"[54, 0, 200]",200,a,1.7063139853999019,colour,0.5
175,21,0,2,6,4,254,390.4260419793427,391.15208687307313,"[16, 0, 238]",238,a,0.20402810163795948,colour,0.5
175,21,0,2,6,5,255,391.6606360930018,392.4560967790894,"[52, 0, 202]",202,a,0.2733155000023544,colour,0.5
175,21,0,2,6,6,256,392.9730833671056,393.8000537203625,"[44, 0, 210]",210,a,0.304893696680665,colour,0.5
175,21,0,2,6,7,257,394.3169343639165,394.92012798413634,"[2, 0, 252]",252,a,0.08093776367604733,colour,0.5
175,21,0,2,6,8,258,395.4264165270142,396.04011087538674,"[8, 0, 246]",246,a,0.09139123000204563,colour,0.5
175,21,0,2,6,9,259,396.5514757023193,397.3440817906521,"[47, 0, 207]",207,a,0.2703002132475376,colour,0.5
175,21,0,2,6,10,260,397.8641813392751,398.49611470708624,"[50, 0, 204]",204,a,0.10977006470784545,colour,0.5
175,21,0,2,6,11,261,399.004797834903,399.6560930768028,"[95, 0, 159]",159,l,0.12913705920800567,colour,0.5
175,21,0,2,6,12,262,400.16106893029064,400.78408955736086,"[4, 0, 250]",250,a,0.10064189042896032,colour,0.5
175,21,0,2,6,13,263,401.3019008594565,402.00809944747016,"[68, 0, 186]",186,l,0.18388129118829966,colour,0.5
175,21,0,2,6,14,264,402.5206572348252,403.3200882845558,"[3, 0, 251]",251,a,0.277298073284328,colour,0.5
175,21,0,2,6,15,265,403.8333364841528,404.49611510057,"[30, 0, 224]",224,a,0.14041839074343443,colour,0.5
175,21,0,2,6,16,266,405.00527635775506,405.704100175295,"[76, 0, 178]",178,l,0.1767034437507391,colour,0.5
175,21,0,2,6,17,267,406.22414261614904,406.7602977002971,"[59, 0, 195]",195,l,0.013873627409338951,colour,0.5
175,21,0,2,6,18,268,407.27105797315016,408.7280995892361,"[78, 0, 176]",176,l,0.9347967868670821,colour,0.5
175,21,0,2,6,19,269,409.2400402193889,409.83211004687473,"[70, 0, 184]",184,l,0.06987226009368896,colour,0.5
175,21,0,2,6,20,270,410.3494589733891,411.072116789408,"[61, 0, 193]",193,l,0.20046103606000543,colour,0.5
175,21,0,2,6,21,271,411.58403142588213,412.288091822993,"[65, 0, 189]",189,l,0.18205345142632723,colour,0.5
175,21,0,2,6,22,272,412.8028224594891,413.41609814949334,"[29, 0, 225]",225,a,0.09103283006697893,colour,0.5
175,21,0,2,6,23,273,413.92780365329236,414.752097427845,"[46, 0, 208]",208,a,0.30187368392944336,colour,0.5
175,21,0,2,6,24,274,415.27208079211414,415.9361067195423,"[18, 0, 236]",236,a,0.14224189845845103,colour,0.5
175,21,0,2,6,25,275,416.44371031504124,417.160067379009,"[35, 0, 219]",219,a,0.19417170574888587,colour,0.5
175,21,0,2,6,26,276,417.67812325945124,418.3680709647015,"[17, 0, 237]",237,a,0.16753785451874137,colour,0.5
175,21,0,2,6,27,277,418.8814727640711,419.46434313151985,"[49, 0, 205]",205,a,0.06056094728410244,colour,0.5
175,21,0,2,6,28,278,419.9752806350589,420.5600670641288,"[13, 0, 241]",241,a,0.062366338446736336,colour,0.5
175,21,0,2,6,29,279,421.06918578594923,421.648077912163,"[91, 0, 163]",163,l,0.05663587572053075,colour,0.5
175,21,0,2,6,30,280,422.16306966915727,422.9120891885832,"[14, 0, 240]",240,a,0.2267605122178793,colour,0.5
175,21,0,2,6,31,281,423.4287989027798,424.4560766927898,"[77, 0, 177]",177,l,0.5051648993976414,colour,0.5
175,21,0,2,6,32,282,424.9757398599759,425.8561137933284,"[20, 0, 234]",234,a,0.3580617569386959,colour,0.5
175,21,0,2,6,33,283,426.3664991245605,427.04809138178825,"[48, 0, 206]",206,a,0.15930686239153147,colour,0.5
175,21,0,2,6,34,284,427.55413534585387,428.16013078857213,"[1, 0, 253]",253,a,0.08371634874492884,colour,0.5
175,21,0,2,6,35,285,428.6791630135849,429.4480977621861,"[66, 0, 188]",188,l,0.24666943959891796,colour,0.5
175,21,0,2,6,36,286,429.96061655832455,430.48813656391576,"[41, 0, 213]",213,a,0.005342130549252033,colour,0.5
175,21,0,2,6,37,287,431.0075023765676,431.6241194582544,"[89, 0, 165]",165,l,0.09442936023697257,colour,0.5
175,21,0,2,6,38,288,432.1326174782589,432.76018072804436,"[23, 0, 231]",231,a,0.10535819921642542,colour,0.5
175,21,0,2,6,39,289,433.2732780845836,433.91208091797307,"[34, 0, 220]",220,a,0.11684787506237626,colour,0.5
175,21,0,2,6,40,290,434.42970317369327,434.98412917833775,"[74, 0, 180]",180,l,0.03213982190936804,colour,0.5
175,21,0,2,6,41,291,435.4922416228801,436.0960768186487,"[73, 0, 181]",181,l,0.08151592966169119,colour,0.5
175,21,0,2,6,42,292,436.6016698293388,437.19210322527215,"[55, 0, 199]",199,l,0.06812358228489757,colour,0.5
175,21,0,2,6,43,293,437.7111157584004,438.4561184407212,"[33, 0, 221]",221,a,0.22271492425352335,colour,0.5
175,21,0,2,6,44,294,438.96116400463507,439.5760773071088,"[72, 0, 182]",182,l,0.09247036883607507,colour,0.5
175,21,0,2,6,45,295,440.0862771370448,440.7201029355638,"[99, 0, 155]",155,l,0.1114923544228077,colour,0.5
175,21,0,2,6,46,296,441.2270645615645,441.7681313017383,"[96, 0, 158]",158,l,0.01881482172757387,colour,0.5
175,21,0,2,6,47,297,442.2740456908941,442.9360799379647,"[97, 0, 157]",157,l,0.13984652562066913,colour,0.5
175,21,0,2,6,48,298,443.44597059860826,443.98411696916446,"[92, 0, 162]",162,l,0.01582395378500223,colour,0.5
175,21,0,2,6,49,299,444.4928839863278,445.152085297741,"[27, 0, 227]",227,a,0.13689110428094864,colour,0.5
175,21,0,2,6,50,300,445.66499833390117,446.29621765809134,"[32, 0, 222]",222,a,0.10959480283781886,colour,0.5
175,21,0,2,7,1,301,450.60203492455184,451.48013478983194,"[6, 0, 248]",248,a,0.35503622982650995,colour,0.5
175,21,0,2,7,2,302,451.99362284177914,452.6001204382628,"[46, 0, 208]",208,a,0.08425434306263924,colour,0.5
175,21,0,2,7,3,303,453.118644207716,453.74413031246513,"[16, 0, 238]",238,a,0.10322591569274664,colour,0.5
175,21,0,2,7,4,304,454.25934026017785,454.8401216669008,"[89, 0, 165]",165,l,0.05845544533804059,colour,0.5
175,21,0,2,7,5,305,455.3531674295664,456.22409377945587,"[62, 0, 192]",192,l,0.3486460749991238,colour,0.5
175,21,0,2,7,6,306,456.7439641095698,457.496076897718,"[80, 0, 174]",174,l,0.2299030115827918,colour,0.5
175,21,0,2,7,7,307,458.00964017398655,458.5761359902099,"[15, 0, 239]",239,a,0.044187971856445074,colour,0.5
175,21,0,2,7,8,308,459.0878903311677,459.8720948914997,"[64, 0, 190]",190,l,0.2620353498496115,colour,0.5
175,21,0,2,7,9,309,460.38489371258765,462.48813301930204,"[53, 0, 201]",201,a,1.581077185459435,colour,0.5
175,21,0,2,7,10,310,462.9943687864579,463.6081060641445,"[87, 0, 167]",167,l,0.09159918082877994,colour,0.5
175,21,0,2,7,11,311,464.1194901894778,464.87211025180295,"[48, 0, 206]",206,a,0.23032757779583335,colour,0.5
175,21,0,2,7,12,312,465.38528519589454,466.21610579034314,"[73, 0, 181]",181,l,0.3086446886882186,colour,0.5
175,21,0,2,7,13,313,466.7290633311495,467.32010640157387,"[21, 0, 233]",233,a,0.06870608124881983,colour,0.5
175,21,0,2,7,14,314,467.8385643986985,468.3840780570172,"[18, 0, 236]",236,a,0.023414158262312412,colour,0.5
175,21,0,2,7,15,315,468.90109694050625,470.00012406148016,"[40, 0, 214]",214,a,0.5768197076395154,colour,0.5
175,21,0,2,7,16,316,470.5106921372935,471.12009041104466,"[0, 0, 254]",254,a,0.0871376907452941,colour,0.5
175,21,0,2,7,17,317,471.635726894252,472.2881312072277,"[26, 0, 228]",228,a,0.13020753301680088,colour,0.5
175,21,0,2,7,18,318,472.8076687376015,473.36814934015274,"[90, 0, 164]",164,l,0.038147158455103636,colour,0.5
175,21,0,2,7,19,319,473.8858377621509,474.5041212067008,"[45, 0, 209]",209,a,0.09591494780033827,colour,0.5
175,21,0,2,7,20,320,475.01103123882785,475.8721220670268,"[44, 0, 210]",210,a,0.33880818961188197,colour,0.5
175,21,0,2,7,21,321,476.38611739268526,477.0241262326017,"[8, 0, 246]",246,a,0.11575928470119834,colour,0.5
175,21,0,2,7,22,322,477.542447171174,478.1601272439584,"[67, 0, 187]",187,l,0.09536041272804141,colour,0.5
175,21,0,2,7,23,323,478.66751264827326,479.3841083832085,"[75, 0, 179]",179,l,0.19438674580305815,colour,0.5
175,21,0,2,7,24,324,479.9019945161417,480.48809205926955,"[84, 0, 170]",170,l,0.06375110195949674,colour,0.5
175,21,0,2,7,25,325,480.9959461404942,481.61608460126445,"[77, 0, 177]",177,l,0.0980397486127913,colour,0.5
175,21,0,2,7,26,326,482.12094111926854,482.6641109986231,"[41, 0, 213]",213,a,0.020914416760206223,colour,0.5
175,21,0,2,7,27,327,483.18352801166475,483.78410452371463,"[98, 0, 156]",156,l,0.07831277884542942,colour,0.5
175,21,0,2,7,28,328,484.2930653132498,484.8162010223605,"[93, 0, 161]",161,l,0.0009271143935620785,colour,0.5
175,21,0,2,7,29,329,485.33995546400547,486.44811390992254,"[20, 0, 234]",234,a,0.5861129034310579,colour,0.5
175,21,0,2,7,30,330,486.9650394516066,487.68808323703706,"[82, 0, 172]",172,l,0.2008296763524413,colour,0.5
175,21,0,2,7,31,331,488.1995607037097,488.79212874686345,"[54, 0, 200]",200,a,0.07105537410825491,colour,0.5
175,21,0,2,7,32,332,489.30903577758,490.23211839655414,"[12, 0, 242]",242,a,0.4008692973293364,colour,0.5
175,21,0,2,7,33,333,490.74668991938233,491.32013200130314,"[7, 0, 247]",247,a,0.05121537018567324,colour,0.5
175,21,0,2,7,34,334,491.8404934578575,492.4240995296277,"[31, 0, 223]",223,a,0.06140535371378064,colour,0.5
175,21,0,2,7,35,335,492.9342489470728,493.52011175779626,"[65, 0, 189]",189,l,0.06430957559496164,colour,0.5
175,21,0,2,7,36,336,494.0281407069415,494.7203026157804,"[24, 0, 230]",230,a,0.16993598453700542,colour,0.5
175,21,0,2,7,37,337,495.2314161686227,495.8001147666946,"[72, 0, 182]",182,l,0.046445892192423344,colour,0.5
175,21,0,2,7,38,338,496.30961355008185,497.0481094988063,"[9, 0, 245]",245,a,0.21626372262835503,colour,0.5
175,21,0,2,7,39,339,497.55960547644645,498.25609339168295,"[10, 0, 244]",244,a,0.17419070471078157,colour,0.5
175,21,0,2,7,40,340,498.76293056225404,499.80812481138855,"[61, 0, 193]",193,a,0.5229698996990919,colour,0.5
175,21,0,2,7,41,341,500.3257561256178,500.9281399981119,"[78, 0, 176]",176,l,0.08024853281676769,colour,0.5
175,21,0,2,7,42,342,501.4350224607624,502.00814867857844,"[50, 0, 204]",204,a,0.05085500096902251,colour,0.5
175,21,0,2,7,43,343,502.5135364946909,503.25610441947356,"[58, 0, 196]",196,a,0.22068504011258483,colour,0.5
175,21,0,2,7,44,344,503.7632822673768,504.4161387155764,"[25, 0, 229]",229,l,0.1306143761612475,colour,0.5
175,21,0,2,7,45,345,504.935281611979,505.5041507454589,"[27, 0, 227]",227,a,0.04716544924303889,colour,0.5
175,21,0,2,7,46,346,506.0134703288786,506.75212775403634,"[36, 0, 218]",218,a,0.2164224423468113,colour,0.5
175,21,0,2,7,47,347,507.26356189791113,507.8960895794444,"[11, 0, 243]",243,a,0.1102883662097156,colour,0.5
175,21,0,2,7,48,348,508.40426503960043,509.00008585862815,"[68, 0, 186]",186,l,0.07351218722760677,colour,0.5
175,21,0,2,7,49,349,509.5137779228389,510.11209296947345,"[99, 0, 155]",155,l,0.07609148556366563,colour,0.5
175,21,0,2,7,50,350,510.62320179631934,511.32013357663527,"[88, 0, 166]",166,l,0.17492798482999206,colour,0.5
175,21,0,2,8,1,351,589.5974832437932,590.3441129047424,"[61, 0, 193]",193,a,0.22355617955327034,colour,0.5
175,21,0,2,8,2,352,590.8640458560549,591.4881558623165,"[79, 0, 175]",175,l,0.10197466611862183,colour,0.5
175,21,0,2,8,3,353,592.0046745608561,592.6161070503294,"[99, 0, 155]",155,l,0.08917269436642528,colour,0.5
175,21,0,2,8,4,354,593.1297920253128,593.6641673184931,"[16, 0, 238]",238,a,0.012169848661869764,colour,0.5
175,21,0,2,8,5,355,594.1767554315738,594.8160998038948,"[17, 0, 237]",237,a,0.11707630613818765,colour,0.5
175,21,0,2,8,6,356,595.3331045084633,595.8562181624584,"[34, 0, 220]",220,a,0.000810929574072361,colour,0.5
175,21,0,2,8,7,357,596.3643762930296,596.9761120444164,"[96, 0, 158]",158,l,0.08939915616065264,colour,0.5
175,21,0,2,8,8,358,597.4894827301614,598.0721187586896,"[45, 0, 209]",209,a,0.060565673280507326,colour,0.5
175,21,0,2,8,9,359,598.5834182072431,599.1681246855296,"[38, 0, 216]",216,a,0.06255656620487571,colour,0.5
175,21,0,2,8,10,360,599.6771890562959,600.2401288347319,"[33, 0, 221]",221,a,0.040882420260459185,colour,0.5
175,21,0,2,8,11,361,600.7554203085601,601.4240684155375,"[89, 0, 165]",165,l,0.14658917346969247,colour,0.5
175,21,0,2,8,12,362,601.943004542496,602.5201397207566,"[75, 0, 179]",179,l,0.055389746092259884,colour,0.5
175,21,0,2,8,13,363,603.036807293538,603.6001385548152,"[77, 0, 177]",177,l,0.04120970657095313,colour,0.5
175,21,0,2,8,14,364,604.1150779305026,604.9681626521051,"[60, 0, 194]",194,a,0.330855252686888,colour,0.5
175,21,0,2,8,15,365,605.4745524134487,606.128117391374,"[69, 0, 185]",185,a,0.13134850608184934,colour,0.5
175,21,0,2,8,16,366,606.6465029208921,607.2321333624423,"[91, 0, 163]",163,l,0.06338167376816273,colour,0.5
175,21,0,2,8,17,367,607.740312367212,608.3041670504026,"[21, 0, 233]",233,a,0.041878851130604744,colour,0.5
175,21,0,2,8,18,368,608.8185262903571,609.4001351678744,"[81, 0, 173]",173,l,0.05930851632729173,colour,0.5
175,21,0,2,8,19,369,609.9123514904641,610.8401267868467,"[68, 0, 186]",186,l,0.40555921848863363,colour,0.5
175,21,0,2,8,20,370,611.3499465552159,612.0641295877285,"[20, 0, 234]",234,a,0.191807447001338,colour,0.5
175,21,0,2,8,21,371,612.5845056166872,613.1921225241385,"[72, 0, 182]",182,l,0.08542957995086908,colour,0.5
175,21,0,2,8,22,372,613.7095372225158,614.3121589785442,"[53, 0, 201]",201,a,0.08030406525358558,colour,0.5
175,21,0,2,8,23,373,614.8189709428698,615.4401617604308,"[24, 0, 230]",230,a,0.09999440750107169,colour,0.5
175,21,0,2,8,24,374,615.9597327671945,616.8241508081555,"[52, 0, 202]",202,a,0.3422220489010215,colour,0.5
175,21,0,2,8,25,375,617.3348189210519,617.9681398090906,"[25, 0, 229]",229,a,0.11109181260690093,colour,0.5
175,21,0,2,8,26,376,618.4755263952538,619.2001270549372,"[28, 0, 226]",226,a,0.20225658174604177,colour,0.5
175,21,0,2,8,27,377,619.7099586380646,620.3680879003368,"[9, 0, 245]",245,a,0.13581354077905416,colour,0.5
175,21,0,2,8,28,378,620.8820414780639,621.5041271145456,"[31, 0, 223]",223,a,0.09994635824114084,colour,0.5
175,21,0,2,8,29,379,622.0227198074572,622.7441511866637,"[13, 0, 241]",241,a,0.19944294402375817,colour,0.5
175,21,0,2,8,30,380,623.257190647535,624.0961189605296,"[42, 0, 212]",212,a,0.31669726874679327,colour,0.5
175,21,0,2,8,31,381,624.6010262845084,625.1761745084077,"[70, 0, 184]",184,l,0.05289354873821139,colour,0.5
175,21,0,2,8,32,382,625.694793982897,626.472149557434,"[4, 0, 250]",250,a,0.2549579329788685,colour,0.5
175,21,0,2,8,33,383,626.991823751945,627.6401505754329,"[35, 0, 219]",219,a,0.126107987947762,colour,0.5
175,21,0,2,8,34,384,628.1481235981919,628.6961291218176,"[95, 0, 159]",159,l,0.025658688507974148,colour,0.5
175,21,0,2,8,35,385,629.2108109216206,629.8001348529942,"[90, 0, 164]",164,l,0.06779787177219987,colour,0.5
175,21,0,2,8,36,386,630.3202186478302,630.880130930338,"[18, 0, 236]",236,a,0.03779899841174483,colour,0.5
175,21,0,2,8,37,387,631.3984802262858,632.0241250507534,"[48, 0, 206]",206,a,0.10340669099241495,colour,0.5
175,21,0,2,8,38,388,632.539869053755,633.112133929506,"[10, 0, 244]",244,a,0.050832157488912344,colour,0.5
175,21,0,2,8,39,389,633.6173764169216,634.2161136670038,"[74, 0, 180]",180,l,0.07638214435428381,colour,0.5
175,21,0,2,8,40,390,634.7271716878749,635.4481332083233,"[3, 0, 251]",251,a,0.1992562608793378,colour,0.5
175,21,0,2,8,41,391,635.9612967306748,636.6240922827274,"[11, 0, 243]",243,a,0.14049164624884725,colour,0.5
175,21,0,2,8,42,392,637.1334201367572,638.4801576328464,"[92, 0, 162]",162,l,0.824653749819845,colour,0.5
175,21,0,2,8,43,393,638.9928331798874,639.6241521476768,"[51, 0, 203]",203,a,0.10907256323844194,colour,0.5
175,21,0,2,8,44,394,640.1335315955803,640.9521236582659,"[6, 0, 248]",248,a,0.2963409321382642,colour,0.5
175,21,0,2,8,45,395,641.46172287222,642.4481493560597,"[62, 0, 192]",192,a,0.4640272669494152,colour,0.5
175,21,0,2,8,46,396,642.961847721599,643.608150175307,"[8, 0, 246]",246,a,0.12389378482475877,colour,0.5
175,21,0,2,8,47,397,644.1181928599253,644.7921543465927,"[78, 0, 176]",176,l,0.1516150450333953,colour,0.5
175,21,0,2,8,48,398,645.305771579966,646.0961067513563,"[5, 0, 249]",249,a,0.26826245291158557,colour,0.5
175,21,0,2,8,49,399,646.6028379769996,647.432139900513,"[54, 0, 200]",200,a,0.30711026350036263,colour,0.5
175,21,0,2,8,50,400,647.946635411121,648.5281513407826,"[84, 0, 170]",170,l,0.059746867045760155,colour,0.5
175,21,0,2,9,1,401,652.9149878970347,653.5761552886106,"[84, 0, 170]",170,l,0.1380186853930354,colour,0.5
175,21,0,2,9,2,402,654.0877390941605,654.7521466589533,"[75, 0, 179]",179,l,0.1426818249747157,colour,0.5
175,21,0,2,9,3,403,655.2605883590877,655.8081346573308,"[86, 0, 168]",168,l,0.026909937616437674,colour,0.5
175,21,0,2,9,4,404,656.3221354973502,657.1121532283723,"[27, 0, 227]",227,a,0.26779220066964626,colour,0.5
175,21,0,2,9,5,405,657.6193058695644,658.328140470665,"[58, 0, 196]",196,a,0.18647752609103918,colour,0.5
175,21,0,2,9,6,406,658.8381303804927,659.4801718113013,"[90, 0, 164]",164,l,0.11981629440560937,colour,0.5
175,21,0,2,9,7,407,659.9944613403641,662.3041650815867,"[49, 0, 205]",205,a,1.7874482781626284,colour,0.5
175,21,0,2,9,8,408,662.8228365434334,663.5681503643282,"[56, 0, 198]",198,a,0.22323598247021437,colour,0.5
175,21,0,2,9,9,409,664.0885330880992,664.760223263409,"[98, 0, 156]",156,l,0.14963911846280098,colour,0.5
175,21,0,2,9,10,410,665.2761736419052,666.0961544066668,"[34, 0, 220]",220,a,0.29775996040552855,colour,0.5
175,21,0,2,9,11,411,666.6043483773246,667.3201312138699,"[12, 0, 242]",242,a,0.1935427337884903,colour,0.5
175,21,0,2,9,12,412,667.8388034636155,668.4561428590678,"[14, 0, 240]",240,a,0.09519736049696803,colour,0.5
175,21,0,2,9,13,413,668.9639575560577,669.6801314814948,"[1, 0, 253]",253,a,0.1939416998066008,colour,0.5
175,21,0,2,9,14,414,670.1983685311861,670.7681888034567,"[89, 0, 165]",165,l,0.04745098762214184,colour,0.5
175,21,0,2,9,15,415,671.2766143558547,671.8881752393208,"[68, 0, 186]",186,l,0.08924791915342212,colour,0.5
175,21,0,2,9,16,416,672.4016207559034,673.2641573934816,"[53, 0, 201]",201,a,0.3402559687383473,colour,0.5
175,21,0,2,9,17,417,673.7768199434504,674.3441723752767,"[99, 0, 155]",155,l,0.045105633325874805,colour,0.5
175,21,0,2,9,18,418,674.855001965072,675.480121399276,"[30, 0, 224]",224,a,0.10296558355912566,colour,0.5
175,21,0,2,9,19,419,675.9957007742487,676.6481625889428,"[70, 0, 184]",184,l,0.13025873340666294,colour,0.5
175,21,0,2,9,20,420,677.1676497068256,677.7602023896761,"[44, 0, 210]",210,a,0.0701952138915658,colour,0.5
175,21,0,2,9,21,421,678.2772181220353,678.8641565269791,"[6, 0, 248]",248,a,0.06539225904271007,colour,0.5
175,21,0,2,9,22,422,679.3710409593768,679.9441439397633,"[95, 0, 159]",159,l,0.05089320382103324,colour,0.5
175,21,0,2,9,23,423,680.4492745744064,681.3601952218451,"[73, 0, 181]",181,l,0.388955055270344,colour,0.5
175,21,0,2,9,24,424,681.8711721100844,682.4481643219478,"[31, 0, 223]",223,a,0.05465049669146538,colour,0.5
175,21,0,2,9,25,425,682.9650587500073,683.5201830440201,"[32, 0, 222]",222,a,0.03284992650151253,colour,0.5
175,21,0,2,9,26,426,684.0276834513061,684.7841037358157,"[20, 0, 234]",234,a,0.23422626126557589,colour,0.5
175,21,0,2,9,27,427,685.293393780943,686.2321380889043,"[63, 0, 191]",191,a,0.4165522544644773,colour,0.5
175,21,0,2,9,28,428,686.7465997287072,687.4641387253068,"[19, 0, 235]",235,a,0.19532370613887906,colour,0.5
175,21,0,2,9,29,429,687.9809083039872,688.5681724194437,"[94, 0, 160]",160,l,0.06573057267814875,colour,0.5
175,21,0,2,9,30,430,689.0747740701772,689.6801381767727,"[40, 0, 214]",214,a,0.08296607155352831,colour,0.5
175,21,0,2,9,31,431,690.1999537623487,690.8161490345374,"[43, 0, 211]",211,a,0.09387836931273341,colour,0.5
175,21,0,2,9,32,432,691.3250385378487,691.8641545576975,"[88, 0, 166]",166,l,0.016821566503494978,colour,0.5
175,21,0,2,9,33,433,692.371993673034,693.0001555690542,"[64, 0, 190]",190,l,0.10598874697461724,colour,0.5
175,21,0,2,9,34,434,693.5127401379868,694.216183771845,"[69, 0, 185]",185,l,0.18113500205799937,colour,0.5
175,21,0,2,9,35,435,694.7316674422473,695.2721847672947,"[96, 0, 158]",158,l,0.018369775731116533,colour,0.5
175,21,0,2,9,36,436,695.7786083994433,696.4241952341981,"[52, 0, 202]",202,a,0.12328135361894965,colour,0.5
175,21,0,2,9,37,437,696.9349035192281,697.520137751475,"[0, 0, 254]",254,a,0.06345335394144058,colour,0.5
175,21,0,2,9,38,438,698.0287369904108,698.5761584397405,"[83, 0, 171]",171,l,0.02521639922633767,colour,0.5
175,21,0,2,9,39,439,699.0912683503702,699.7441795435734,"[33, 0, 221]",221,a,0.13063406897708774,colour,0.5
175,21,0,2,9,40,440,700.2632574550807,701.3921743542887,"[39, 0, 215]",215,a,0.6066890056245029,colour,0.5
175,21,0,2,9,41,441,701.904103168752,702.4641662943177,"[2, 0, 252]",252,a,0.037900610361248255,colour,0.5
175,21,0,2,9,42,442,702.9822816457599,703.6561446706764,"[45, 0, 209]",209,a,0.15168239315971732,colour,0.5
175,21,0,2,9,43,443,704.169794593472,704.7761712791398,"[81, 0, 173]",173,l,0.0841598198749125,colour,0.5
175,21,0,2,9,44,444,705.2948978794739,706.0161878676154,"[25, 0, 229]",229,a,0.198886439204216,colour,0.5
175,21,0,2,9,45,445,706.5293825040571,707.1602221606299,"[36, 0, 218]",218,a,0.10876378742977977,colour,0.5
175,21,0,2,9,46,446,707.6702270363458,708.2321345442906,"[4, 0, 250]",250,a,0.039702850859612226,colour,0.5
175,21,0,2,9,47,447,708.7483743997291,709.3521702107973,"[10, 0, 244]",244,a,0.08153286529704928,colour,0.5
175,21,0,2,9,48,448,709.8577915779315,710.464171808213,"[71, 0, 183]",183,l,0.08410231815651059,colour,0.5
175,21,0,2,9,49,449,710.9828850179911,711.536161779426,"[22, 0, 232]",232,a,0.03146516298875213,colour,0.5
175,21,0,2,9,50,450,712.0454352828674,712.640149787534,"[67, 0, 187]",187,l,0.07241926342248917,colour,0.5
175,21,0,2,10,1,451,716.7949502612464,717.408187747933,"[48, 0, 206]",206,a,0.0903628976084292,colour,0.5
175,21,0,2,10,2,452,717.9210547045805,718.8881807532161,"[90, 0, 164]",164,l,0.44498755829408765,colour,0.5
175,21,0,2,10,3,453,719.4053146396764,719.9761868752539,"[78, 0, 176]",176,l,0.048605351243168116,colour,0.5
175,21,0,2,10,4,454,720.4836774365976,721.1121815852821,"[97, 0, 157]",157,l,0.10630933800712228,colour,0.5
175,21,0,2,10,5,455,721.6243230765685,722.224170579575,"[34, 0, 220]",220,a,0.07749909209087491,colour,0.5
175,21,0,2,10,6,456,722.7337103229947,723.3521839953028,"[0, 0, 254]",254,a,0.09612447395920753,colour,0.5
175,21,0,2,10,7,457,723.8588581136428,724.7521017603576,"[86, 0, 168]",168,l,0.37088066386058927,colour,0.5
175,21,0,2,10,8,458,725.2652735537849,725.8641478624195,"[40, 0, 214]",214,a,0.07655583042651415,colour,0.5
175,21,0,2,10,9,459,726.374679310713,726.9841906181537,"[41, 0, 213]",213,a,0.08723339531570673,colour,0.5
175,21,0,2,10,10,460,727.4997747200541,728.0801737019792,"[44, 0, 210]",210,a,0.05814942670986056,colour,0.5
175,21,0,2,10,11,461,728.5936672678217,729.7361411419697,"[71, 0, 183]",183,a,0.6201809961348772,colour,0.5
175,21,0,2,10,12,462,730.250037218444,730.8641443178058,"[54, 0, 200]",200,a,0.09183194441720843,colour,0.5
175,21,0,2,10,13,463,731.3751275078394,731.9841823475435,"[55, 0, 199]",199,a,0.08690098952502012,colour,0.5
175,21,0,2,10,14,464,732.5003524920903,733.192167816218,"[13, 0, 241]",241,a,0.16965674702078104,colour,0.5
175,21,0,2,10,15,465,733.7034219722264,734.7602031771094,"[73, 0, 181]",181,l,0.5344489421695471,colour,0.5
175,21,0,2,10,16,466,735.2660490367562,735.8641651915386,"[68, 0, 186]",186,l,0.07585281506180763,colour,0.5
175,21,0,2,10,17,467,736.3754847263917,737.0401868880726,"[16, 0, 238]",238,a,0.14237580681219697,colour,0.5
175,21,0,2,10,18,468,737.5475191231817,738.1441666251048,"[62, 0, 192]",192,l,0.07445623585954309,colour,0.5
175,21,0,2,10,19,469,738.6570434276946,739.3201623274945,"[23, 0, 231]",231,a,0.14127658167853951,colour,0.5
175,21,0,2,10,20,470,739.8289293446578,740.5281261345372,"[21, 0, 233]",233,a,0.17702954867854714,colour,0.5
175,21,0,2,10,21,471,741.0477384952828,741.6721671232954,"[1, 0, 253]",253,a,0.1024870602414012,colour,0.5
175,21,0,2,10,22,472,742.1885282830335,742.8241685316898,"[46, 0, 208]",208,a,0.11346473637968302,colour,0.5
175,21,0,2,10,23,473,743.3292081877589,744.0241341092624,"[7, 0, 247]",247,a,0.1727366247214377,colour,0.5
175,21,0,2,10,24,474,744.5324265416712,745.1761977453716,"[42, 0, 212]",212,a,0.12146926717832685,colour,0.5
175,21,0,2,10,25,475,745.6888004308566,746.3521469738334,"[92, 0, 162]",162,l,0.14123877231031656,colour,0.5
175,21,0,2,10,26,476,746.8607718124986,747.4561924836598,"[14, 0, 240]",240,a,0.0732191652059555,colour,0.5
175,21,0,2,10,27,477,747.97014172934,748.592152534984,"[99, 0, 155]",155,l,0.09964703489094973,colour,0.5
175,21,0,2,10,28,478,749.1109488462098,749.9041795749217,"[3, 0, 251]",251,a,0.2710248902440071,colour,0.5
175,21,0,2,10,29,479,750.4234843417071,751.2001632885076,"[65, 0, 189]",189,l,0.25462592067196965,colour,0.5
175,21,0,2,10,30,480,751.720474332571,752.4961505467072,"[89, 0, 165]",165,l,0.2533061420544982,colour,0.5
175,21,0,2,10,31,481,753.0018030279316,753.7121925340034,"[95, 0, 159]",159,l,0.18813837552443147,colour,0.5
175,21,0,2,10,32,482,754.2206618036143,754.9041803628206,"[59, 0, 195]",195,a,0.16118550905957818,colour,0.5
175,21,0,2,10,33,483,755.4238966987468,756.1121800094843,"[22, 0, 232]",232,a,0.1660656570456922,colour,0.5
175,21,0,2,10,34,484,756.6271827942692,757.1921784500591,"[2, 0, 252]",252,a,0.0427169562317431,colour,0.5
175,21,0,2,10,35,485,757.7053293697536,758.3121739444323,"[69, 0, 185]",185,l,0.08465133979916573,colour,0.5
175,21,0,2,10,36,486,758.8304677079432,759.4081905051135,"[24, 0, 230]",230,a,0.05547757400199771,colour,0.5
175,21,0,2,10,37,487,759.9243110250682,760.5601600119844,"[50, 0, 204]",204,a,0.11359509965404868,colour,0.5
175,21,0,2,10,38,488,761.0650287386961,761.7041852464899,"[28, 0, 226]",226,a,0.11688410956412554,colour,0.5
175,21,0,2,10,39,489,762.2212352436036,762.8001643912867,"[79, 0, 175]",175,l,0.05667644180357456,colour,0.5
175,21,0,2,10,40,490,763.315203409642,763.9921317398548,"[19, 0, 235]",235,a,0.15468113822862506,colour,0.5
175,21,0,2,10,41,491,764.5027399882674,765.0801555849612,"[15, 0, 239]",239,a,0.05517785716801882,colour,0.5
175,21,0,2,10,42,492,765.5965655818582,766.3201796566136,"[45, 0, 209]",209,a,0.20130859315395355,colour,0.5
175,21,0,2,10,43,493,766.83106792951,767.4321548664011,"[8, 0, 246]",246,a,0.07877200283110142,colour,0.5
175,21,0,2,10,44,494,767.9405268561095,768.576163165737,"[20, 0, 234]",234,a,0.11384440399706364,colour,0.5
175,21,0,2,10,45,495,769.0812063668855,769.6481681028381,"[52, 0, 202]",202,a,0.044620020780712366,colour,0.5
175,21,0,2,10,46,496,770.1594132003374,770.7761968788691,"[57, 0, 197]",197,a,0.09436043677851558,colour,0.5
175,21,0,2,10,47,497,771.2845854097977,771.904153581243,"[83, 0, 171]",171,l,0.09799051797017455,colour,0.5
175,21,0,2,10,48,498,772.4099320927635,773.0641630650498,"[91, 0, 163]",163,l,0.1322441124357283,colour,0.5
175,21,0,2,10,49,499,773.5816616527736,774.1921540317126,"[66, 0, 188]",188,l,0.08835782669484615,colour,0.5
175,21,0,2,10,50,500,774.7066424530931,775.2482030764222,"[96, 0, 158]",158,l,0.019556434359401464,colour,0.5
175,21,0,2,11,1,501,780.3626579423435,781.7441645772196,"[13, 0, 241]",241,a,0.8584323660470545,colour,0.5
175,21,0,2,11,2,502,782.2542297113687,782.8321640039794,"[20, 0, 234]",234,a,0.055711125023663044,colour,0.5
175,21,0,2,11,3,503,783.3480860255659,783.9361795810983,"[42, 0, 212]",212,a,0.06589244352653623,colour,0.5
175,21,0,2,11,4,504,784.4418411208317,785.0321555756964,"[39, 0, 215]",215,a,0.06801960757002234,colour,0.5
175,21,0,2,11,5,505,785.5512689328752,786.1601473297924,"[53, 0, 201]",201,a,0.08653825707733631,colour,0.5
175,21,0,2,11,6,506,786.6763919116929,787.2081851484254,"[61, 0, 193]",193,a,0.009502328000962734,colour,0.5
175,21,0,2,11,7,507,787.7233805237338,788.3441967940889,"[5, 0, 249]",249,a,0.09889163821935654,colour,0.5
175,21,0,2,11,8,508,788.8640923299827,789.4721448314376,"[77, 0, 177]",177,l,0.08576474292203784,colour,0.5
175,21,0,2,11,9,509,789.9891333887354,790.6322015766054,"[34, 0, 220]",220,a,0.12092890962958336,colour,0.5
175,21,0,2,11,10,510,791.1455521765165,791.7602016017772,"[69, 0, 185]",185,l,0.09245500899851322,colour,0.5
175,21,0,2,11,11,511,792.2706424654461,792.8721945346333,"[80, 0, 174]",174,l,0.07925013219937682,colour,0.5
175,21,0,2,11,12,512,793.3801147826016,794.304168232251,"[57, 0, 197]",197,a,0.40181177156046033,colour,0.5
175,21,0,2,11,13,513,794.817699606996,795.376203101594,"[36, 0, 218]",218,a,0.03624488087370992,colour,0.5
175,21,0,2,11,14,514,795.8958682380617,796.6962724816985,"[78, 0, 176]",176,l,0.278170442674309,colour,0.5
175,21,0,2,11,15,515,797.2084907731041,797.8401807439514,"[2, 0, 252]",252,a,0.10934825567528605,colour,0.5
175,21,0,2,11,16,516,798.3492321181111,799.0321772368625,"[37, 0, 217]",217,a,0.16066366201266646,colour,0.5
175,21,0,2,11,17,517,799.5523913949728,800.2561508934014,"[44, 0, 210]",210,a,0.18145716795697808,colour,0.5
175,21,0,2,11,18,518,800.7712816777639,801.344175525941,"[85, 0, 169]",169,l,0.050606089644134045,colour,0.5
175,21,0,2,11,19,519,801.8495897301473,802.4642005590722,"[56, 0, 198]",198,a,0.09241444291546941,colour,0.5
175,21,0,2,11,20,520,802.9745776196942,803.616184244398,"[94, 0, 160]",160,l,0.11929878033697605,colour,0.5
175,21,0,2,11,21,521,804.1309263026342,804.7761645833962,"[14, 0, 240]",240,a,0.12299857195466757,colour,0.5
175,21,0,2,11,22,522,805.2872714409605,806.1921823886223,"[62, 0, 192]",192,a,0.3834522357210517,colour,0.5
175,21,0,2,11,23,523,806.7092764964327,807.2641825997271,"[67, 0, 187]",187,a,0.032538000494241714,colour,0.5
175,21,0,2,11,24,524,807.771808644291,810.2481538457796,"[49, 0, 205]",205,a,1.9540668954141438,colour,0.5
175,21,0,2,11,25,525,810.7564679398201,811.7441681218334,"[6, 0, 248]",248,a,0.4656459749676287,colour,0.5
175,21,0,2,11,26,526,812.2565742782317,812.7921819160692,"[30, 0, 224]",224,a,0.01360305491834879,colour,0.5
175,21,0,2,11,27,527,813.3035361091606,814.1761863236316,"[58, 0, 196]",196,l,0.35036048712208867,colour,0.5
175,21,0,2,11,28,528,814.694216998294,815.28017708892,"[3, 0, 251]",251,a,0.06361680012196302,colour,0.5
175,21,0,2,11,29,529,815.7881627152674,816.6561111938208,"[64, 0, 190]",190,l,0.3457091636955738,colour,0.5
175,21,0,2,11,30,530,817.1632449305616,817.7441846635193,"[76, 0, 178]",178,l,0.058710264042019844,colour,0.5
175,21,0,2,11,31,531,818.2570697367191,818.8481963025406,"[98, 0, 156]",156,l,0.0691562476567924,colour,0.5
175,21,0,2,11,32,532,819.3664443795569,819.9602290135808,"[1, 0, 253]",253,a,0.07260673446580768,colour,0.5
175,21,0,2,11,33,533,820.4760265797377,821.1041616941802,"[33, 0, 221]",221,a,0.10589461773633957,colour,0.5
175,21,0,2,11,34,534,821.6167285400443,822.2001723470166,"[27, 0, 227]",227,a,0.061191888991743326,colour,0.5
175,21,0,2,11,35,535,822.7105561029166,823.2562292688526,"[86, 0, 168]",168,l,0.02334602316841483,colour,0.5
175,21,0,2,11,36,536,823.7731256661937,824.5441954545677,"[84, 0, 170]",170,l,0.24901124881580472,colour,0.5
175,21,0,2,11,37,537,825.054466964677,825.6241907444783,"[28, 0, 226]",226,a,0.047473437152802944,colour,0.5
175,21,0,2,11,38,538,826.1327482354827,826.7841726588085,"[70, 0, 184]",184,l,0.12922803778201342,colour,0.5
175,21,0,2,11,39,539,827.2889748262241,827.9201949378476,"[9, 0, 245]",245,a,0.10950185498222709,colour,0.5
175,21,0,2,11,40,540,828.4297019923106,829.0161622678861,"[66, 0, 188]",188,l,0.06409296067431569,colour,0.5
175,21,0,2,11,41,541,829.5235646078363,830.1602217666805,"[75, 0, 179]",179,l,0.11468290258198977,colour,0.5
175,21,0,2,11,42,542,830.679885327816,831.4881629515439,"[51, 0, 203]",203,a,0.2859878963790834,colour,0.5
175,21,0,2,11,43,543,832.008130167611,832.6001834534109,"[18, 0, 236]",236,a,0.06974032148718834,colour,0.5
175,21,0,2,11,44,544,833.1175867309794,833.7201911569573,"[7, 0, 247]",247,a,0.0803265143185854,colour,0.5
175,21,0,2,11,45,545,834.2270842539147,834.9121774104424,"[54, 0, 200]",200,a,0.16280854912474751,colour,0.5
175,21,0,2,11,46,546,835.4303156048991,836.0401750723831,"[24, 0, 230]",230,a,0.08760361094027758,colour,0.5
175,21,0,2,11,47,547,836.5553909279406,837.1121532283723,"[43, 0, 211]",211,a,0.03457103483378887,colour,0.5
175,21,0,2,11,48,548,837.6179191367701,838.1922091701999,"[65, 0, 189]",189,l,0.05195461958646774,colour,0.5
175,21,0,2,11,49,549,838.7118203495629,839.2641841750592,"[17, 0, 237]",237,a,0.030069766100496054,colour,0.5
175,21,0,2,11,50,550,839.774384398479,840.344177889172,"[83, 0, 171]",171,l,0.04751282138749957,colour,0.5
175,21,0,2,12,1,551,844.7115261461586,845.3521654848009,"[66, 0, 188]",188,l,0.11765801720321178,colour,0.5
175,21,0,2,12,2,552,845.8687471984886,846.568153121043,"[82, 0, 172]",172,l,0.1773182381875813,colour,0.5
175,21,0,2,12,3,553,847.0874980604276,847.6242013783194,"[24, 0, 230]",230,a,0.014448249246925116,colour,0.5
175,21,0,2,12,4,554,848.1344362604432,848.7441795435734,"[51, 0, 203]",203,a,0.08742480492219329,colour,0.5
175,21,0,2,12,5,555,849.25951709738,849.8241795590147,"[86, 0, 168]",168,l,0.0429272698238492,colour,0.5
175,21,0,2,12,6,556,850.3377877343446,851.2561985487118,"[97, 0, 157]",157,l,0.39619552390649915,colour,0.5
175,21,0,2,12,7,557,851.7753524724394,852.3921542679891,"[6, 0, 248]",248,a,0.09450300922617316,colour,0.5
175,21,0,2,12,8,558,852.9004502450116,853.5042035207152,"[74, 0, 180]",180,l,0.08152735140174627,colour,0.5
175,21,0,2,12,9,559,854.0098638786003,854.6162059060298,"[64, 0, 190]",190,l,0.0840038568712771,colour,0.5
175,21,0,2,12,10,560,855.1350219096057,856.0161890494637,"[20, 0, 234]",234,a,0.35896012000739574,colour,0.5
175,21,0,2,12,11,561,856.525687832851,857.1201900541782,"[76, 0, 178]",178,l,0.07219870947301388,colour,0.5
175,21,0,2,12,12,562,857.6351892943494,858.2081942069344,"[33, 0, 221]",221,a,0.05075929593294859,colour,0.5
175,21,0,2,12,13,563,858.7134055802599,859.2801944180392,"[99, 0, 155]",155,l,0.044444365426898,colour,0.5
175,21,0,2,12,14,564,859.791612808127,860.3601999478415,"[42, 0, 212]",212,a,0.0463005630299449,colour,0.5
175,21,0,2,12,15,565,860.8698527249508,861.4322056728415,"[7, 0, 247]",247,a,0.04016404505819082,colour,0.5
175,21,0,2,12,16,566,861.9480827958323,862.4881743728183,"[84, 0, 170]",170,l,0.018609234131872654,colour,0.5
175,21,0,2,12,17,567,862.9949764912017,863.536218887195,"[48, 0, 206]",206,a,0.0196044840849936,colour,0.5
175,21,0,2,12,18,568,864.0419591958635,864.6641736198217,"[30, 0, 224]",224,a,0.09998180437833071,colour,0.5
175,21,0,2,12,19,569,865.1826773034409,866.0721561741084,"[2, 0, 252]",252,a,0.36793469404801726,colour,0.5
175,21,0,2,12,20,570,866.5890340604819,867.1682192082517,"[9, 0, 245]",245,a,0.056992306374013424,colour,0.5
175,21,0,2,12,21,571,867.6828801343217,868.2641755104996,"[17, 0, 237]",237,a,0.05904503306373954,colour,0.5
175,21,0,2,12,22,572,868.7766801281832,869.3761790771969,"[16, 0, 238]",238,a,0.07723403396084905,colour,0.5
175,21,0,2,12,23,573,869.8861158173531,870.5841913274489,"[73, 0, 181]",181,l,0.17578341951593757,colour,0.5
175,21,0,2,12,24,574,871.0893672546372,871.7441889955662,"[14, 0, 240]",240,a,0.13267537346109748,colour,0.5
175,21,0,2,12,25,575,872.2612953130156,872.8641494377516,"[93, 0, 161]",161,l,0.08050295757129788,colour,0.5
175,21,0,2,12,26,576,873.3707156423479,873.9601833275519,"[62, 0, 192]",192,a,0.06709643173962831,colour,0.5
175,21,0,2,12,27,577,874.4803222608753,875.0401920080185,"[47, 0, 207]",207,a,0.03763791546225548,colour,0.5
175,21,0,2,12,28,578,875.558453082107,876.1441855300218,"[88, 0, 166]",166,l,0.06343444949015975,colour,0.5
175,21,0,2,12,29,579,876.6522936420515,877.2402048474178,"[39, 0, 215]",215,a,0.0656868563964963,colour,0.5
175,21,0,2,12,30,580,877.7461787066422,878.3201910783537,"[41, 0, 213]",213,a,0.05190499499440193,colour,0.5
175,21,0,2,12,31,581,878.8400035132654,879.4721865789033,"[21, 0, 233]",233,a,0.11020290153101087,colour,0.5
175,21,0,2,12,32,582,879.9807121683843,880.6002110228874,"[85, 0, 169]",169,l,0.09730837633833289,colour,0.5
175,21,0,2,12,33,583,881.1058036391623,881.7201580740511,"[52, 0, 202]",202,a,0.09223721222952008,colour,0.5
175,21,0,2,12,34,584,882.2309136209078,882.8641813392751,"[87, 0, 167]",167,l,0.11106069851666689,colour,0.5
175,21,0,2,12,35,585,883.3716313345358,884.0561301773414,"[0, 0, 254]",254,a,0.16229457966983318,colour,0.5
175,21,0,2,12,36,586,884.5748394485563,885.1602150714025,"[25, 0, 229]",229,a,0.06320089846849442,colour,0.5
175,21,0,2,12,37,587,885.6686445623636,886.2722064289264,"[4, 0, 250]",250,a,0.08135366532951593,colour,0.5
175,21,0,2,12,38,588,886.7781184548512,887.408181052655,"[81, 0, 173]",173,l,0.10781304258853197,colour,0.5
175,21,0,2,12,39,589,887.9188373503275,888.5041704378091,"[22, 0, 232]",232,a,0.06301224650815129,colour,0.5
175,21,0,2,12,40,590,889.0127129624598,889.6402131966315,"[57, 0, 197]",197,a,0.10532511584460735,colour,0.5
175,21,0,2,12,41,591,890.1534452484921,890.7121964725666,"[46, 0, 208]",208,a,0.0365705918520689,colour,0.5
175,21,0,2,12,42,592,891.2316623223014,891.8401913777925,"[59, 0, 195]",195,a,0.08634763536974788,colour,0.5
175,21,0,2,12,43,593,892.3566462732852,892.936187852174,"[63, 0, 191]",191,a,0.05756023293361068,colour,0.5
175,21,0,2,12,44,594,893.4506908454932,893.9922101153061,"[61, 0, 193]",193,a,0.019575339276343584,colour,0.5
175,21,0,2,12,45,595,894.4975518519059,895.0481729079038,"[83, 0, 171]",171,l,0.02834235643967986,colour,0.5
175,21,0,2,12,46,596,895.5600749407895,896.1442103423178,"[45, 0, 209]",209,a,0.06177478143945336,colour,0.5
175,21,0,2,12,47,597,896.653886356391,897.2802176550031,"[67, 0, 187]",187,l,0.10401360783725977,colour,0.5
175,21,0,2,12,48,598,897.7946958364919,898.4802143466659,"[36, 0, 218]",218,a,0.1633288199082017,colour,0.5
175,21,0,2,12,49,599,898.9978515687399,899.9921687613241,"[1, 0, 253]",253,a,0.4720156495459378,colour,0.5
175,21,0,2,12,50,600,900.4979681470431,901.0641859080642,"[77, 0, 177]",177,l,0.04397883964702487,colour,0.5
175,21,0,2,13,1,601,905.4975924179889,906.408208228182,"[49, 0, 205]",205,a,0.38760928250849247,colour,0.5
175,21,0,2,13,2,602,906.9203733503819,907.456196422223,"[19, 0, 235]",235,a,0.013540039770305157,colour,0.5
175,21,0,2,13,3,603,907.9673182456754,908.5041830409318,"[62, 0, 192]",192,l,0.014616815373301506,colour,0.5
175,21,0,2,13,4,604,909.0142426611856,909.5841854196042,"[52, 0, 202]",202,l,0.047567172441631556,colour,0.5
175,21,0,2,13,5,605,910.0925211752765,910.9681784058921,"[63, 0, 191]",191,l,0.35337774315848947,colour,0.5
175,21,0,2,13,6,606,911.4832579903305,912.0402270602062,"[28, 0, 226]",226,a,0.034749052952975035,colour,0.5
175,21,0,2,13,7,607,912.5457519348711,913.136224322021,"[35, 0, 219]",219,a,0.06819762568920851,colour,0.5
175,21,0,2,13,8,608,913.6552301598713,914.2001778609119,"[85, 0, 169]",169,l,0.022689875215291977,colour,0.5
175,21,0,2,13,9,609,914.7178591936827,915.440203901846,"[58, 0, 196]",196,l,0.20015226071700454,colour,0.5
175,21,0,2,13,10,610,915.9523178245872,916.8161955084652,"[8, 0, 246]",246,a,0.34164939681068063,colour,0.5
175,21,0,2,13,11,611,917.3282987968996,917.9122148258612,"[20, 0, 234]",234,a,0.062484098598361015,colour,0.5
175,21,0,2,13,12,612,918.421267775353,918.9762361058965,"[39, 0, 215]",215,a,0.032765249256044626,colour,0.5
175,21,0,2,13,13,613,919.4837971660309,920.376184984576,"[43, 0, 211]",211,a,0.3700642203912139,colour,0.5
175,21,0,2,13,14,614,920.8902003969997,921.4961950513534,"[56, 0, 198]",198,a,0.08394084079191089,colour,0.5
175,21,0,2,13,15,615,922.015276113525,922.6562084737234,"[67, 0, 187]",187,l,0.1191026447340846,colour,0.5
175,21,0,2,13,16,616,923.1716889939271,923.8642644407228,"[2, 0, 252]",252,a,0.17033061804249883,colour,0.5
175,21,0,2,13,17,617,924.3748502400704,924.9282203428447,"[16, 0, 238]",238,a,0.03104847390204668,colour,0.5
175,21,0,2,13,18,618,925.4374123197049,926.0482260771096,"[74, 0, 180]",180,l,0.0885133957490325,colour,0.5
175,21,0,2,13,19,619,926.5624955198728,927.1602280684747,"[90, 0, 164]",164,l,0.07558224257081747,colour,0.5
175,21,0,2,13,20,620,927.6719631105661,928.4565099235624,"[80, 0, 174]",174,l,0.2623303406871855,colour,0.5
175,21,0,2,13,21,621,928.9689310463145,929.5442242054269,"[32, 0, 222]",222,a,0.05294908117502928,colour,0.5
175,21,0,2,13,22,622,930.0627881474793,930.6721844524145,"[30, 0, 224]",224,a,0.08719716174528003,colour,0.5
175,21,0,2,13,23,623,931.1879174276255,931.7123374692164,"[78, 0, 176]",176,l,0.002175606321543455,colour,0.5
175,21,0,2,13,24,624,932.2349812644534,933.4482159158215,"[92, 0, 162]",162,l,0.6910425974056125,colour,0.5
175,21,0,2,13,25,625,933.9537537875585,934.5361834410578,"[60, 0, 194]",194,a,0.06017419043928385,colour,0.5
175,21,0,2,13,26,626,935.0475242431276,935.7042096648365,"[98, 0, 156]",156,l,0.13433937402442098,colour,0.5
175,21,0,2,13,27,627,936.219579514116,936.792226026766,"[83, 0, 171]",171,l,0.0504595790989697,colour,0.5
175,21,0,2,13,28,628,937.2977717756294,937.952207153663,"[72, 0, 182]",182,l,0.1320916935801506,colour,0.5
175,21,0,2,13,29,629,938.469702984672,939.0882195867598,"[4, 0, 250]",250,a,0.09618040081113577,colour,0.5
175,21,0,2,13,30,630,939.594728289172,940.2162215807475,"[44, 0, 210]",210,a,0.09907753299921751,colour,0.5
175,21,0,2,13,31,631,940.7355381632224,941.5041897362098,"[64, 0, 190]",190,a,0.24641107628121972,colour,0.5
175,21,0,2,13,32,632,942.0168727664277,942.6321830661036,"[51, 0, 203]",203,a,0.09300954453647137,colour,0.5
175,21,0,2,13,33,633,943.1419929880649,943.7281909617595,"[15, 0, 239]",239,a,0.0638613784685731,colour,0.5
175,21,0,2,13,34,634,944.2358315787278,945.144220976159,"[22, 0, 232]",232,a,0.3861414175480604,colour,0.5
175,21,0,2,13,35,635,945.6578141846694,946.3841773062013,"[68, 0, 186]",186,a,0.20408284617587924,colour,0.5
175,21,0,2,13,36,636,946.8922507604584,947.4322241833434,"[9, 0, 245]",245,a,0.01762422500178218,colour,0.5
175,21,0,2,13,37,637,947.9392645787448,948.6881623999216,"[47, 0, 207]",207,a,0.22714214911684394,colour,0.5
175,21,0,2,13,38,638,949.2049004710279,950.8402067376301,"[3, 0, 251]",251,a,1.1136029763147235,colour,0.5
175,21,0,2,13,39,639,951.3457733602263,954.5122052947991,"[33, 0, 221]",221,a,2.644987007137388,colour,0.5
175,21,0,2,13,40,640,955.0178754986264,955.7442126264796,"[36, 0, 218]",218,a,0.20403046486899257,colour,0.5
175,21,0,2,13,41,641,956.2567763212137,959.2321869255975,"[25, 0, 229]",229,a,2.457551253028214,colour,0.5
175,21,0,2,13,42,642,959.7526996186934,960.3762101908214,"[97, 0, 157]",157,l,0.10127834603190422,colour,0.5
175,21,0,2,13,43,643,960.8934421450831,961.8161899945699,"[55, 0, 199]",199,a,0.40050144493579865,colour,0.5
175,21,0,2,13,44,644,962.3310179114342,962.920236685779,"[99, 0, 155]",155,l,0.0669373176060617,colour,0.5
175,21,0,2,13,45,645,963.4404650218785,964.4402239881456,"[42, 0, 212]",212,a,0.47773035848513246,colour,0.5
175,21,0,2,13,46,646,964.9562393515371,965.6161996042356,"[46, 0, 208]",208,a,0.13789934990927577,colour,0.5
175,21,0,2,13,47,647,966.1281268438324,966.7121901707724,"[84, 0, 170]",170,l,0.06170585798099637,colour,0.5
175,21,0,2,13,48,648,967.2220016680658,967.7921842788346,"[5, 0, 249]",249,a,0.047941326163709164,colour,0.5
175,21,0,2,13,49,649,968.3001931421459,968.8722599130124,"[86, 0, 168]",168,l,0.04972623707726598,colour,0.5
175,21,0,2,13,50,650,969.3783885543235,969.9922183859162,"[89, 0, 165]",165,l,0.09146172879263759,colour,0.5
175,21,0,2,14,1,651,974.9093590467237,980.0402132757008,"[43, 0, 211]",211,a,4.6077453014440835,colour,0.5
175,21,0,2,14,2,652,980.551233486738,981.1601890777238,"[81, 0, 173]",173,l,0.08677102020010352,colour,0.5
175,21,0,2,14,3,653,981.6762828161009,982.2562178471126,"[45, 0, 209]",209,a,0.05776424519717693,colour,0.5
175,21,0,2,14,4,654,982.7704683854245,983.3362399186008,"[32, 0, 222]",222,a,0.04379963967949152,colour,0.5
175,21,0,2,14,5,655,983.8483278471977,984.4002407188527,"[49, 0, 205]",205,a,0.02959439344704151,colour,0.5
175,21,0,2,14,6,656,984.910963576287,985.4722326588817,"[56, 0, 198]",198,a,0.03902110271155834,colour,0.5
175,21,0,2,14,7,657,985.9891136963852,986.5602289349772,"[99, 0, 155]",155,l,0.04891491448506713,colour,0.5
175,21,0,2,14,8,658,987.0673394347541,987.6402096520178,"[62, 0, 192]",192,a,0.0506336591206491,colour,0.5
175,21,0,2,14,9,659,988.1455324841663,988.7122295554727,"[44, 0, 210]",210,a,0.0443301503546536,colour,0.5
175,21,0,2,14,10,660,989.2238094224595,989.8162380438298,"[70, 0, 184]",184,l,0.07039804477244616,colour,0.5
175,21,0,2,14,11,661,990.3332797703333,990.9841870735399,"[89, 0, 165]",165,l,0.12871446227654815,colour,0.5
175,21,0,2,14,12,662,991.4896016716957,992.0721983155236,"[21, 0, 233]",233,a,0.06050502089783549,colour,0.5
175,21,0,2,14,13,663,992.5834757084958,993.1682601682842,"[96, 0, 158]",158,l,0.06262470129877329,colour,0.5
175,21,0,2,14,14,664,993.6773253269494,994.2482306458987,"[58, 0, 196]",196,a,0.04865024983882904,colour,0.5
175,21,0,2,14,15,665,994.7555010472424,995.4081767201424,"[46, 0, 208]",208,a,0.1305226101540029,colour,0.5
175,21,0,2,14,16,666,995.9274625824764,996.6162039367482,"[28, 0, 226]",226,a,0.16650558356195688,colour,0.5
175,21,0,2,14,17,667,997.1306502162479,998.0562349404208,"[71, 0, 183]",183,l,0.4034036980010569,colour,0.5
175,21,0,2,14,18,668,998.5683004194871,999.2322093746625,"[29, 0, 225]",225,a,0.14164955401793122,colour,0.5
175,21,0,2,14,19,669,999.740249352064,1000.3282192400657,"[91, 0, 163]",163,l,0.06598224071785808,colour,0.5
175,21,0,2,14,20,670,1000.834058010485,1001.4082042896189,"[93, 0, 161]",161,l,0.05182898277416825,colour,0.5
175,21,0,2,14,21,671,1001.927895813249,1002.5202019484714,"[75, 0, 179]",179,l,0.07006839523091912,colour,0.5
175,21,0,2,14,22,672,1003.0373504073359,1003.6242332798429,"[34, 0, 220]",220,a,0.06463843723759055,colour,0.5
175,21,0,2,14,23,673,1004.1312528010458,1004.7522092801519,"[8, 0, 246]",246,a,0.09872464695945382,colour,0.5
175,21,0,2,14,24,674,1005.271992570255,1005.8322116592899,"[76, 0, 178]",178,l,0.03804909065365791,colour,0.5
175,21,0,2,14,25,675,1006.3501879828982,1006.9122632686049,"[50, 0, 204]",204,a,0.0404775463975966,colour,0.5
175,21,0,2,14,26,676,1007.4283707919531,1007.9762278352864,"[2, 0, 252]",252,a,0.02629278041422367,colour,0.5
175,21,0,2,14,27,677,1008.490943111945,1009.0162497013807,"[17, 0, 237]",237,a,0.003121625166386366,colour,0.5
175,21,0,2,14,28,678,1009.5379451150075,1010.1362129007466,"[14, 0, 240]",240,a,0.07605603989213705,colour,0.5
175,21,0,2,14,29,679,1010.6473997090943,1011.1842641099356,"[97, 0, 157]",157,l,0.014621934853494167,colour,0.5
175,21,0,2,14,30,680,1011.6943004936911,1012.7362301512621,"[4, 0, 250]",250,a,0.5196478073485196,colour,0.5
175,21,0,2,14,31,681,1013.2413371549919,1013.8722473103553,"[11, 0, 243]",243,a,0.10871888929978013,colour,0.5
175,21,0,2,14,32,682,1014.381964284461,1015.0162300094962,"[1, 0, 253]",253,a,0.11192912980914116,colour,0.5
175,21,0,2,14,33,683,1015.5227288659662,1016.0722432141192,"[10, 0, 244]",244,a,0.027369162067770958,colour,0.5
175,21,0,2,14,34,684,1016.5853437213227,1017.1682034544647,"[85, 0, 169]",169,l,0.06057788245379925,colour,0.5
175,21,0,2,14,35,685,1017.6792023982853,1018.2322361562401,"[39, 0, 215]",215,a,0.030753482598811388,colour,0.5
175,21,0,2,14,36,686,1018.7417502999306,1019.3122294768691,"[61, 0, 193]",193,a,0.04816975723952055,colour,0.5
175,21,0,2,14,37,687,1019.819957527332,1020.7601866358891,"[60, 0, 194]",194,a,0.4179519838653505,colour,0.5
175,21,0,2,14,38,688,1021.2731225150637,1021.912210887298,"[73, 0, 181]",181,a,0.11686796136200428,colour,0.5
175,21,0,2,14,39,689,1022.4295578445308,1023.0482205632143,"[57, 0, 197]",197,a,0.09718313300982118,colour,0.5
175,21,0,2,14,40,690,1023.5546331675723,1024.232212131843,"[51, 0, 203]",203,a,0.15532468305900693,colour,0.5
175,21,0,2,14,41,691,1024.7421835307032,1025.4161918847822,"[27, 0, 227]",227,a,0.15169893437996507,colour,0.5
175,21,0,2,14,42,692,1025.9298008475453,1027.9922093274072,"[55, 0, 199]",199,a,1.5401916140690446,colour,0.5
175,21,0,2,14,43,693,1028.5081104752608,1029.1682176329195,"[66, 0, 188]",188,a,0.1377835595048964,colour,0.5
175,21,0,2,14,44,694,1029.680110607762,1030.3442562646233,"[33, 0, 221]",221,a,0.14190476620569825,colour,0.5
175,21,0,2,14,45,695,1030.8520749001764,1031.5121907223947,"[16, 0, 238]",238,a,0.13775362726300955,colour,0.5
175,21,0,2,14,46,696,1032.0241329278797,1032.7922457191162,"[80, 0, 174]",174,l,0.24618697771802545,colour,0.5
175,21,0,2,14,47,697,1033.3054572907276,1033.9361646152101,"[12, 0, 242]",242,a,0.1085101505741477,colour,0.5
175,21,0,2,14,48,698,1034.4461584631354,1034.9842284275219,"[90, 0, 164]",164,l,0.01583576900884509,colour,0.5
175,21,0,2,14,49,699,1035.4933294262737,1036.096183157526,"[31, 0, 223]",223,a,0.08057778840884566,colour,0.5
175,21,0,2,14,50,700,1036.6025441680104,1037.1288633360527,"[5, 0, 249]",249,a,0.004240936134010553,colour,0.5
175,21,0,2,15,1,701,1041.5395283768885,1042.3602586309426,"[17, 0, 237]",237,a,0.2985019665211439,colour,0.5
175,21,0,2,15,2,702,1042.8685227064416,1043.4563425388187,"[42, 0, 212]",212,a,0.0662669911980629,colour,0.5
175,21,0,2,15,3,703,1043.9624573956244,1044.5203366437927,"[26, 0, 228]",228,a,0.03662809310480952,colour,0.5
175,21,0,2,15,4,704,1045.0250041154213,1045.5522098317742,"[20, 0, 234]",234,a,0.005910844076424837,colour,0.5
175,21,0,2,15,5,705,1046.0718781189062,1047.0483891293406,"[34, 0, 220]",220,a,0.45480456948280334,colour,0.5
175,21,0,2,15,6,706,1047.5563940540887,1048.2482141042128,"[78, 0, 176]",176,l,0.169741818215698,colour,0.5
175,21,0,2,15,7,707,1048.759728198871,1049.472254714463,"[93, 0, 161]",161,l,0.1910772561095655,colour,0.5
175,21,0,2,15,8,708,1049.9784530666657,1050.528275008779,"[98, 0, 156]",156,l,0.028139525558799505,colour,0.5
175,21,0,2,15,9,709,1051.0410734359175,1051.568253158126,"[82, 0, 172]",172,l,0.005113305989652872,colour,0.5
175,21,0,2,15,10,710,1052.0882290387526,1052.7362403911538,"[12, 0, 242]",242,a,0.12655736645683646,colour,0.5
175,21,0,2,15,11,711,1053.244515100494,1054.224234382622,"[51, 0, 203]",203,a,0.4577048532664776,colour,0.5
175,21,0,2,15,12,712,1054.72883450659,1055.3042663000524,"[85, 0, 169]",169,l,0.053216503001749516,colour,0.5
175,21,0,2,15,13,713,1055.82270027278,1056.800240403507,"[40, 0, 214]",214,a,0.45540912356227636,colour,0.5
175,21,0,2,15,14,714,1057.3072741036303,1057.856249276083,"[23, 0, 231]",231,a,0.026931205298751593,colour,0.5
175,21,0,2,15,15,715,1058.3699114080518,1059.3362237708643,"[43, 0, 211]",211,a,0.4442014414817095,colour,0.5
175,21,0,2,15,16,716,1059.854465546552,1060.480202531442,"[92, 0, 162]",162,l,0.10350948525592685,colour,0.5
175,21,0,2,15,17,717,1060.99508204218,1061.8242043713108,"[52, 0, 202]",202,a,0.30679361103102565,colour,0.5
175,21,0,2,15,18,718,1062.338974392973,1063.3842348079197,"[84, 0, 170]",170,l,0.5237138755619526,colour,0.5
175,21,0,2,15,19,719,1063.901679832954,1064.4243429265916,"[0, 0, 254]",254,a,0.0005324799567461014,colour,0.5
175,21,0,2,15,20,720,1064.9329291684553,1065.6082285502926,"[47, 0, 207]",207,a,0.1535366210155189,colour,0.5
175,21,0,2,15,21,721,1066.120532700792,1066.648241752293,"[19, 0, 235]",235,a,0.005470918025821447,colour,0.5
175,21,0,2,15,22,722,1067.1675221007317,1068.096237114165,"[46, 0, 208]",208,a,0.4065072061493993,colour,0.5
175,21,0,2,15,23,723,1068.6050801435485,1069.6242431257851,"[67, 0, 187]",187,l,0.4969079131260514,colour,0.5
175,21,0,2,15,24,724,1070.1364653562196,1070.7602201127447,"[88, 0, 166]",166,l,0.10151071520522237,colour,0.5
175,21,0,2,15,25,725,1071.277231513057,1072.032204806339,"[36, 0, 218]",218,a,0.23280093213543296,colour,0.5
175,21,0,2,15,26,726,1072.5429757130332,1073.2401985456236,"[6, 0, 248]",248,a,0.1754565266892314,colour,0.5
175,21,0,2,15,27,727,1073.7461763438769,1074.2802208056673,"[21, 0, 233]",233,a,0.01179451309144497,colour,0.5
175,21,0,2,15,28,728,1074.7931129685603,1075.3922109818086,"[8, 0, 246]",246,a,0.07681143656373024,colour,0.5
175,21,0,2,15,29,729,1075.902745186817,1076.5122056882828,"[99, 0, 155]",155,l,0.08734288485720754,colour,0.5
175,21,0,2,15,30,730,1077.027620436158,1077.7041990309954,"[9, 0, 245]",245,a,0.15419276896864176,colour,0.5
175,21,0,2,15,31,731,1078.2151771006174,1078.8721874454059,"[70, 0, 184]",184,l,0.13469462329521775,colour,0.5
175,21,0,2,15,32,732,1079.387129577808,1080.0242282385007,"[65, 0, 189]",189,l,0.11484437948092818,colour,0.5
175,21,0,2,15,33,733,1080.5435763285495,1081.1122260899283,"[74, 0, 180]",180,l,0.046390360221266747,colour,0.5
175,21,0,2,15,34,734,1081.6218087621965,1082.2722087921575,"[61, 0, 193]",193,l,0.12819694867357612,colour,0.5
175,21,0,2,15,35,735,1082.7781991930678,1083.3921916834079,"[16, 0, 238]",238,a,0.09191189520061016,colour,0.5
175,21,0,2,15,36,736,1083.9033115380444,1084.4562247791328,"[87, 0, 167]",167,l,0.030736941378563643,colour,0.5
175,21,0,2,15,37,737,1084.9657672792673,1085.6962598785758,"[32, 0, 222]",222,a,0.20841003488749266,colour,0.5
175,21,0,2,15,38,738,1086.2159848795272,1086.9842024338432,"[7, 0, 247]",247,a,0.2460924545302987,colour,0.5
175,21,0,2,15,39,739,1087.4972182638012,1088.1922560376115,"[41, 0, 213]",213,a,0.1727559231221676,colour,0.5
175,21,0,2,15,40,740,1088.700443313457,1089.3842103895731,"[55, 0, 199]",199,a,0.16144938580691814,colour,0.5
175,21,0,2,15,41,741,1089.903704202734,1090.4962304974906,"[49, 0, 205]",205,a,0.07028697989881039,colour,0.5
175,21,0,2,15,42,742,1091.0130902673118,1091.7041683108546,"[90, 0, 164]",164,l,0.16888795932754874,colour,0.5
175,21,0,2,15,43,743,1092.2163330395706,1093.0242416295223,"[57, 0, 197]",197,a,0.2857901859097183,colour,0.5
175,21,0,2,15,44,744,1093.5446708272211,1094.152221174445,"[68, 0, 186]",186,a,0.08529055211693048,colour,0.5
175,21,0,2,15,45,745,1094.6697142487392,1095.3042288846336,"[3, 0, 251]",251,a,0.11222884710878134,colour,0.5
175,21,0,2,15,46,746,1095.8104571686126,1096.3362304661423,"[53, 0, 201]",201,a,0.0035142898559570312,colour,0.5
175,21,0,2,15,47,747,1096.857319356408,1097.3842533188872,"[63, 0, 191]",191,a,0.004866364412009716,colour,0.5
175,21,0,2,15,48,748,1097.9043544428423,1098.8402205221355,"[30, 0, 224]",224,a,0.4136582720093429,colour,0.5
175,21,0,2,15,49,749,1099.357533609029,1099.992191998288,"[50, 0, 204]",204,a,0.1129472223110497,colour,0.5
175,21,0,2,15,50,750,1100.4982883441262,1101.1922217733227,"[62, 0, 192]",192,a,0.17177682183682919,colour,0.5
175,21,0,2,16,1,751,1105.6385405319743,1106.32818576321,"[37, 0, 217]",217,a,0.16672850074246526,colour,0.5
175,21,0,2,16,2,752,1106.8425253103487,1107.3682718263008,"[34, 0, 220]",220,a,0.003379594534635544,colour,0.5
175,21,0,2,16,3,753,1107.8895052582957,1108.432236786466,"[22, 0, 232]",232,a,0.02062493935227394,colour,0.5
175,21,0,2,16,4,754,1108.9520145626739,1109.5601997901686,"[30, 0, 224]",224,a,0.08586635533720255,colour,0.5
175,21,0,2,16,5,755,1110.0771938613616,1111.1362325930968,"[14, 0, 240]",240,a,0.536812019534409,colour,0.5
175,21,0,2,16,6,756,1111.6554302335717,1112.224229262676,"[71, 0, 183]",183,l,0.04657231690362096,colour,0.5
175,21,0,2,16,7,757,1112.7336047720164,1113.3442609906197,"[96, 0, 158]",158,l,0.08834089105948806,colour,0.5
175,21,0,2,16,8,758,1113.8586789136752,1114.4002592293546,"[77, 0, 177]",177,l,0.019273259211331606,colour,0.5
175,21,0,2,16,9,759,1114.9056474398822,1115.4882310866378,"[35, 0, 219]",219,a,0.06039316859096289,colour,0.5
175,21,0,2,16,10,760,1115.9994647628628,1116.55226300098,"[49, 0, 205]",205,a,0.030419107526540756,colour,0.5
175,21,0,2,16,11,761,1117.0620173905045,1117.6242742398754,"[25, 0, 229]",229,a,0.04018098022788763,colour,0.5
175,21,0,2,16,12,762,1118.1402612458915,1118.8162195328623,"[57, 0, 197]",197,a,0.15386311942711473,colour,0.5
175,21,0,2,16,13,763,1119.3278998308815,1120.2322471840307,"[70, 0, 184]",184,l,0.3820426599122584,colour,0.5
175,21,0,2,16,14,764,1120.7498564431444,1121.3842344139703,"[48, 0, 206]",206,a,0.11209100065752864,colour,0.5
175,21,0,2,16,15,765,1121.8906021197326,1122.6001980258152,"[15, 0, 239]",239,a,0.18763110134750605,colour,0.5
175,21,0,2,16,16,766,1123.1094285999425,1123.656260067597,"[6, 0, 248]",248,a,0.024506294168531895,colour,0.5
175,21,0,2,16,17,767,1124.1720347907394,1124.7522144005634,"[72, 0, 182]",182,l,0.057903666980564594,colour,0.5
175,21,0,2,16,18,768,1125.265821394045,1125.8242425746284,"[1, 0, 253]",253,a,0.03613184718415141,colour,0.5
175,21,0,2,16,19,769,1126.3440884859301,1126.872263457626,"[51, 0, 203]",203,a,0.005950622260570526,colour,0.5
175,21,0,2,16,20,770,1127.3910424401984,1127.952239449136,"[89, 0, 165]",165,l,0.03927001403644681,colour,0.5
175,21,0,2,16,21,771,1128.4692248553038,1129.2242182348855,"[42, 0, 212]",212,a,0.23268789798021317,colour,0.5
175,21,0,2,16,22,772,1129.7348930430599,1130.2962672826834,"[63, 0, 191]",191,a,0.03901007538661361,colour,0.5
175,21,0,2,16,23,773,1130.813108541537,1131.3682497707196,"[27, 0, 227]",227,a,0.032889704685658216,colour,0.5
175,21,0,2,16,24,774,1131.8757501784712,1132.4563689269125,"[4, 0, 250]",250,a,0.058299482334405184,colour,0.5
175,21,0,2,16,25,775,1132.9695367817767,1133.5282549224794,"[3, 0, 251]",251,a,0.03635515784844756,colour,0.5
175,21,0,2,16,26,776,1134.0477487356402,1134.5922521781176,"[80, 0, 174]",174,l,0.02220741380006075,colour,0.5
175,21,0,2,16,27,777,1135.1103978552856,1136.0642170216888,"[10, 0, 244]",244,a,0.4314947803504765,colour,0.5
175,21,0,2,16,28,778,1136.579298181925,1137.144423019141,"[92, 0, 162]",162,l,0.04281108547002077,colour,0.5
175,21,0,2,16,29,779,1137.6574246711098,1138.2482219813392,"[66, 0, 188]",188,a,0.06875137379392982,colour,0.5
175,21,0,2,16,30,780,1138.7668914739043,1139.304232035298,"[79, 0, 175]",175,l,0.015006722882390022,colour,0.5
175,21,0,2,16,31,781,1139.8138241600245,1140.480230100453,"[50, 0, 204]",204,a,0.14407564653083682,colour,0.5
175,21,0,2,16,32,782,1140.9858325631358,1141.5125412456691,"[78, 0, 176]",176,l,0.004310647025704384,colour,0.5
175,21,0,2,16,33,783,1142.0328302341513,1142.7122161649168,"[52, 0, 202]",202,a,0.15725964959710836,colour,0.5
175,21,0,2,16,34,784,1143.220449520275,1143.7682691481896,"[32, 0, 222]",222,a,0.025628361850976944,colour,0.5
175,21,0,2,16,35,785,1144.283030898776,1144.984273720067,"[88, 0, 166]",166,l,0.1790952724404633,colour,0.5
175,21,0,2,16,36,786,1145.501805785112,1146.0402589617297,"[59, 0, 195]",195,a,0.01619574474170804,colour,0.5
175,21,0,2,16,37,787,1146.5487613142468,1147.2322176457383,"[43, 0, 211]",211,a,0.161180782597512,colour,0.5
175,21,0,2,16,38,788,1147.7520249602385,1148.3442972246557,"[20, 0, 234]",234,a,0.07007075846195221,colour,0.5
175,21,0,2,16,39,789,1148.861433474347,1149.9202311718836,"[19, 0, 235]",235,a,0.5364500749856234,colour,0.5
175,21,0,2,16,40,790,1150.439722227864,1151.080233566463,"[58, 0, 196]",196,a,0.11839844798669219,colour,0.5
175,21,0,2,16,41,791,1151.5960271940567,1152.192281243857,"[18, 0, 236]",236,a,0.07394620543345809,colour,0.5
175,21,0,2,16,42,792,1152.705577492714,1153.4802486114204,"[86, 0, 168]",168,l,0.25252002524212,colour,0.5
175,21,0,2,16,43,793,1153.9869077634066,1154.6801905585453,"[23, 0, 231]",231,a,0.17107301857322454,colour,0.5
175,21,0,2,16,44,794,1155.1901450217701,1155.7282441309653,"[87, 0, 167]",167,l,0.016139818355441093,colour,0.5
175,21,0,2,16,45,795,1156.237098582089,1156.8002793942578,"[85, 0, 169]",169,l,0.04098245734348893,colour,0.5
175,21,0,2,16,46,796,1157.3152916310355,1157.976254616864,"[26, 0, 228]",228,a,0.13877526437863708,colour,0.5
175,21,0,2,16,47,797,1158.4871677020565,1159.0802130866796,"[91, 0, 163]",163,l,0.07133894367143512,colour,0.5
175,21,0,2,16,48,798,1159.596736905165,1160.1202841834165,"[65, 0, 189]",189,a,0.0013721599243581295,colour,0.5
175,21,0,2,16,49,799,1160.6436652587727,1161.3444011998363,"[31, 0, 223]",223,a,0.17937765968963504,colour,0.5
175,21,0,2,16,50,800,1161.8624043050222,1162.4881948530674,"[83, 0, 171]",171,l,0.1033405251801014,colour,0.5
