id,age,condition,counterbalance,block,trialinblock,trial,tstart,tend,trialstim,trialintensity,response,RT,trialtype,colourfreq
168,24,0,2,Practice,1,NA,5.907684681005776e-06,0.5930708378582494,"[32, 0, 222]",222,a,0.06886823737295344,colour,0.5
168,24,0,2,Practice,2,NA,1.1102224203787046,4.553070696085342,"[52, 0, 202]",202,a,2.920121020884835,colour,0.5
168,24,0,2,Practice,3,NA,5.06366435532982,5.65702585123654,"[53, 0, 201]",201,a,0.07011869718553498,colour,0.5
168,24,0,2,Practice,4,NA,6.1731045983033255,7.457068859177525,"[36, 0, 218]",218,a,0.7606934991054004,colour,0.5
168,24,0,2,Practice,5,NA,7.970194551860914,8.505054220731836,"[0, 0, 254]",254,a,0.011818125247373246,colour,0.5
168,24,0,2,Practice,6,NA,9.018110990422429,10.321025132871,"[2, 0, 252]",252,a,0.7800644016388105,colour,0.5
168,24,0,2,Practice,7,NA,10.832127640635008,11.425089383265004,"[78, 0, 176]",176,l,0.06959133791679051,colour,0.5
168,24,0,2,Practice,8,NA,11.941628535845666,12.489055030469899,"[11, 0, 243]",243,a,0.024169123600586317,colour,0.5
168,24,0,2,Practice,9,NA,13.004288978714612,13.985029140647384,"[61, 0, 193]",193,l,0.45752650778740644,colour,0.5
168,24,0,2,Practice,10,NA,14.504345298628323,16.07302488395362,"[95, 0, 159]",159,l,1.045381254356471,colour,0.5
168,24,0,2,1,1,1,4.276773427714943,7.8239730672648875,"[76, 0, 178]",178,l,3.023203414166346,colour,0.5
168,24,0,2,1,2,2,8.340393672318896,9.767985550599406,"[54, 0, 200]",200,l,0.9043522303109057,colour,0.5
168,24,0,2,1,3,3,10.266999361192575,11.519966003252193,"[29, 0, 225]",225,a,0.7301330489281099,colour,0.5
168,24,0,2,1,4,4,12.032656496521668,13.031968054405297,"[41, 0, 213]",213,a,0.47624520197859965,colour,0.5
168,24,0,2,1,5,5,13.548439859383507,14.503930579201551,"[34, 0, 220]",220,a,0.4323412624944467,colour,0.5
168,24,0,2,1,6,6,15.017338265330181,16.127964377461467,"[93, 0, 161]",161,l,0.5874093072052347,colour,0.5
168,24,0,2,1,7,7,16.6423940929526,17.6960079021228,"[23, 0, 231]",231,a,0.5303643150691641,colour,0.5
168,24,0,2,1,8,8,18.205042326590046,19.199968807428377,"[64, 0, 190]",190,l,0.47171046360745095,colour,0.5
168,24,0,2,1,9,9,19.721451903969864,20.680058336409274,"[10, 0, 244]",244,a,0.43528801534557715,colour,0.5
168,24,0,2,1,10,10,21.192183661245508,22.1919438092591,"[71, 0, 183]",183,l,0.47649529392947443,colour,0.5
168,24,0,2,1,11,11,22.695517564337933,23.680045339511707,"[9, 0, 245]",245,a,0.461237714975141,colour,0.5
168,24,0,2,1,12,12,24.195640050325892,25.375947297157836,"[33, 0, 221]",221,a,0.6570731127139879,colour,0.5
168,24,0,2,1,13,13,25.870806430393714,26.847922425018623,"[36, 0, 218]",218,a,0.4537507099012146,colour,0.5
168,24,0,2,1,14,14,27.355345627089264,28.31196865304082,"[45, 0, 209]",209,a,0.4333057904004818,colour,0.5
168,24,0,2,1,15,15,28.824171565458528,29.879949162408593,"[52, 0, 202]",202,a,0.5325466135982424,colour,0.5
168,24,0,2,1,16,16,30.38682531293307,31.327938304879353,"[85, 0, 169]",169,l,0.4178623163024895,colour,0.5
168,24,0,2,1,17,17,31.840110497330897,32.79994257731596,"[88, 0, 166]",166,l,0.43668183498084545,colour,0.5
168,24,0,2,1,18,18,33.30892343877349,34.344061162657454,"[61, 0, 193]",193,l,0.5107287482969696,colour,0.5
168,24,0,2,1,19,19,34.85744876266108,35.815923650661716,"[2, 0, 252]",252,a,0.4352281508181477,colour,0.5
168,24,0,2,1,20,20,36.326247919510934,37.33591604157118,"[22, 0, 232]",232,a,0.48403074200905394,colour,0.5
168,24,0,2,1,21,21,37.84490320456098,38.51197014965874,"[56, 0, 198]",198,l,0.14389385703543667,colour,0.5
168,24,0,2,1,22,22,39.032458392190165,39.93593982984021,"[82, 0, 172]",172,l,0.3803693956724601,colour,0.5
168,24,0,2,1,23,23,40.45513074492919,41.39989626106399,"[30, 0, 224]",224,a,0.4215991234523244,colour,0.5
168,24,0,2,1,24,24,41.9083072279318,42.98390195450338,"[66, 0, 188]",188,l,0.5522664633317618,colour,0.5
168,24,0,2,1,25,25,43.502182692376664,44.631983178071096,"[79, 0, 175]",175,l,0.6064777363062603,colour,0.5
168,24,0,2,1,26,26,45.142930904519744,46.439930667416775,"[63, 0, 191]",191,l,0.7737510564911645,colour,0.5
168,24,0,2,1,27,27,46.955614781181794,47.99989641860884,"[90, 0, 164]",164,l,0.5210065433493583,colour,0.5
168,24,0,2,1,28,28,48.51825435023056,49.43994642124744,"[43, 0, 211]",211,l,0.39844809075293597,colour,0.5
168,24,0,2,1,29,29,49.95579122402705,50.89596646955761,"[40, 0, 214]",214,a,0.41675954857782926,colour,0.5
168,24,0,2,1,30,30,51.40905986689904,52.69592046839534,"[24, 0, 230]",230,a,0.7636209535266971,colour,0.5
168,24,0,2,1,31,31,53.206080897463835,54.35189790261211,"[7, 0, 247]",247,a,0.6233654422539985,colour,0.5
168,24,0,2,1,32,32,54.86240846043802,56.19993848132435,"[8, 0, 246]",246,a,0.8142013638134813,colour,0.5
168,24,0,2,1,33,33,56.706369192455895,57.751921769668115,"[84, 0, 170]",170,l,0.5223215938458452,colour,0.5
168,24,0,2,1,34,34,58.26902097070706,59.43990624899743,"[53, 0, 201]",201,l,0.6476566580095096,colour,0.5
168,24,0,2,1,35,35,59.95657576447411,61.01586685812799,"[31, 0, 223]",223,l,0.5359647996519925,colour,0.5
168,24,0,2,1,36,36,61.53487621039676,62.863951941384585,"[51, 0, 203]",203,l,0.8058219045924488,colour,0.5
168,24,0,2,1,37,37,63.3787447825307,64.5840218411031,"[48, 0, 206]",206,l,0.6820192937011598,colour,0.5
168,24,0,2,1,38,38,65.08665784978075,66.11993307775992,"[15, 0, 239]",239,a,0.5099871370039182,colour,0.5
168,24,0,2,1,39,39,66.63366332344594,67.83987103919208,"[91, 0, 163]",163,l,0.6831023691338487,colour,0.5
168,24,0,2,1,40,40,68.3525319940527,69.67193172607222,"[68, 0, 186]",186,l,0.7961927732394543,colour,0.5
168,24,0,2,1,41,41,70.18076292621845,71.31188397623191,"[44, 0, 210]",210,l,0.6078290205914527,colour,0.5
168,24,0,2,1,42,42,71.82160605514946,73.01587158428447,"[62, 0, 192]",192,l,0.671025487332372,colour,0.5
168,24,0,2,1,43,43,73.52553419249307,74.64783782698214,"[77, 0, 177]",177,l,0.5997882685915101,colour,0.5
168,24,0,2,1,44,44,75.16553252258745,76.17587057602941,"[98, 0, 156]",156,l,0.4870164855819894,colour,0.5
168,24,0,2,1,45,45,76.69690075011749,77.75990895865834,"[83, 0, 171]",171,l,0.539723268331727,colour,0.5
168,24,0,2,1,46,46,78.27521340524254,79.25585865038738,"[21, 0, 233]",233,a,0.4574272586760344,colour,0.5
168,24,0,2,1,47,47,79.77524609443208,80.71985919232247,"[20, 0, 234]",234,a,0.4213706930022454,colour,0.5
168,24,0,2,1,48,48,81.2285462449654,82.18391644801886,"[11, 0, 243]",243,a,0.4320131890999619,colour,0.5
168,24,0,2,1,49,49,82.69740841710882,83.59985128389962,"[78, 0, 176]",176,l,0.37921070188167505,colour,0.5
168,24,0,2,1,50,50,84.11940847540973,85.15987532424333,"[16, 0, 238]",238,l,0.5171342533139978,colour,0.5
168,24,0,2,2,1,51,90.16588146980212,91.17588239139877,"[78, 0, 176]",176,l,0.4859263209364144,colour,0.5
168,24,0,2,2,2,52,91.66996013495373,92.52786300159642,"[51, 0, 203]",203,l,0.334612018748885,colour,0.5
168,24,0,2,2,3,53,93.04508232555236,93.90403203382448,"[27, 0, 227]",227,a,0.33569312494364567,colour,0.5
168,24,0,2,2,4,54,94.42014819623728,95.35991896233463,"[0, 0, 254]",254,a,0.4164432905672584,colour,0.5
168,24,0,2,2,5,55,95.873410537577,96.41583558678394,"[73, 0, 181]",181,l,0.01918146279058419,colour,0.5
168,24,0,2,2,6,56,96.9360654665943,97.67980233677372,"[85, 0, 169]",169,l,0.22053463754127733,colour,0.5
168,24,0,2,2,7,57,98.18609086963988,98.82386239664629,"[82, 0, 172]",172,l,0.114500765237608,colour,0.5
168,24,0,2,2,8,58,99.33930035690719,100.06384946276376,"[79, 0, 175]",175,l,0.20089395077957306,colour,0.5
168,24,0,2,2,9,59,100.5740839348,101.423819231175,"[36, 0, 218]",218,a,0.3264468115521595,colour,0.5
168,24,0,2,2,10,60,101.93361771613127,102.59180029192066,"[88, 0, 166]",166,l,0.13547265017405152,colour,0.5
168,24,0,2,2,11,61,103.10824531540857,103.7358154534013,"[25, 0, 229]",229,a,0.1032119684969075,colour,0.5
168,24,0,2,2,12,62,104.25009550756658,104.86386293228134,"[71, 0, 183]",183,l,0.09067231809603982,colour,0.5
168,24,0,2,2,13,63,105.3751284921309,105.93581695001922,"[48, 0, 206]",206,l,0.037479923717910424,colour,0.5
168,24,0,2,2,14,64,106.45332496280025,107.11982910252118,"[80, 0, 174]",174,l,0.14318060263758525,colour,0.5
168,24,0,2,2,15,65,107.64103217482625,108.18381680507446,"[64, 0, 190]",190,l,0.019551677658455446,colour,0.5
168,24,0,2,2,16,66,108.7034929379588,109.39983245807525,"[97, 0, 157]",157,l,0.1730644260533154,colour,0.5
168,24,0,2,2,17,67,109.90668419018039,110.58386193978367,"[37, 0, 217]",217,a,0.15388178171997424,colour,0.5
168,24,0,2,2,18,68,111.09435083609424,111.647814590091,"[2, 0, 252]",252,a,0.03029893669008743,colour,0.5
168,24,0,2,2,19,69,112.15735550002137,112.87985030715936,"[23, 0, 231]",231,a,0.1991996269498486,colour,0.5
168,24,0,2,2,20,70,113.39182400143181,113.96780115207366,"[59, 0, 195]",195,l,0.04966865768074058,colour,0.5
168,24,0,2,2,21,71,114.48871632324881,115.0238048164174,"[45, 0, 209]",209,a,0.011968968115979806,colour,0.5
168,24,0,2,2,22,72,115.53557410481153,116.21584039171285,"[74, 0, 180]",180,l,0.15471949134371243,colour,0.5
168,24,0,2,2,23,73,116.72547346149804,117.46377329301322,"[11, 0, 243]",243,a,0.21512241114396602,colour,0.5
168,24,0,2,2,24,74,117.97555124601058,118.67179309242056,"[86, 0, 168]",168,l,0.17339958866068628,colour,0.5
168,24,0,2,2,25,75,119.17874958744505,119.92777895493782,"[13, 0, 241]",241,a,0.22573733805620577,colour,0.5
168,24,0,2,2,26,76,120.44445910425566,120.97583875330747,"[43, 0, 211]",211,a,0.008140394929796457,colour,0.5
168,24,0,2,2,27,77,121.49138935341034,122.15982688122313,"[54, 0, 200]",200,a,0.14510887073993217,colour,0.5
168,24,0,2,2,28,78,122.67910365464923,123.34382761220331,"[89, 0, 165]",165,l,0.14150990954658482,colour,0.5
168,24,0,2,2,29,79,123.85100899307872,124.50379549016361,"[22, 0, 232]",232,a,0.12947083692415617,colour,0.5
168,24,0,2,2,30,80,125.02292023917835,125.7518370928592,"[6, 0, 248]",248,a,0.20562876270560082,colour,0.5
168,24,0,2,2,31,81,126.27303110671346,127.06377699517179,"[35, 0, 219]",219,a,0.26746252362499945,colour,0.5
168,24,0,2,2,32,82,127.5700375650049,128.11181395048334,"[56, 0, 198]",198,a,0.018504442181438208,colour,0.5
168,24,0,2,2,33,83,128.6326125433552,129.37586222650134,"[72, 0, 182]",182,l,0.2202857271040557,colour,0.5
168,24,0,2,2,34,84,129.88270293091773,130.40784682241792,"[63, 0, 191]",191,l,0.0021181016927585006,colour,0.5
168,24,0,2,2,35,85,130.929703678441,131.679848810556,"[38, 0, 216]",216,l,0.2269436871720245,colour,0.5
168,24,0,2,2,36,86,132.19595630835101,132.90381581259135,"[4, 0, 250]",250,a,0.18462340088444762,colour,0.5
168,24,0,2,2,37,87,133.4147489667521,134.16783848864725,"[39, 0, 215]",215,l,0.22981718475057278,colour,0.5
168,24,0,2,2,38,88,134.68055970188288,135.43178200173134,"[40, 0, 214]",214,l,0.22799446726276074,colour,0.5
168,24,0,2,2,39,89,135.94622156336845,136.57585269544506,"[29, 0, 225]",225,a,0.10632137960055843,colour,0.5
168,24,0,2,2,40,90,137.08761056231742,137.67185177541978,"[70, 0, 184]",184,l,0.06001931418722961,colour,0.5
168,24,0,2,2,41,91,138.182369028611,138.83977257779043,"[99, 0, 155]",155,l,0.1341981657751603,colour,0.5
168,24,0,2,2,42,92,139.35447404676233,139.99183361126052,"[83, 0, 171]",171,l,0.11411597808182705,colour,0.5
168,24,0,2,2,43,93,140.5107169329276,141.14378633718297,"[28, 0, 226]",226,a,0.10975059332849924,colour,0.5
168,24,0,2,2,44,94,141.65142615434888,142.34380083069846,"[3, 0, 251]",251,a,0.16904562542913482,colour,0.5
168,24,0,2,2,45,95,142.85472965256486,143.63181264292507,"[49, 0, 205]",205,a,0.25417732348432764,colour,0.5
168,24,0,2,2,46,96,144.15160889871186,144.77581913980248,"[8, 0, 246]",246,a,0.09814868932880927,colour,0.5
168,24,0,2,2,47,97,145.2950801593979,145.98376765314606,"[93, 0, 161]",161,l,0.16552740259794518,colour,0.5
168,24,0,2,2,48,98,146.49832182384853,147.1437843679596,"[84, 0, 170]",170,l,0.12229772680439055,colour,0.5
168,24,0,2,2,49,99,147.65460606380657,148.2237732299982,"[12, 0, 242]",242,a,0.04584756756958086,colour,0.5
168,24,0,2,2,50,100,148.73280607908964,149.47174945432926,"[52, 0, 202]",202,a,0.21593333926284686,colour,0.5
168,24,0,2,3,1,101,153.98607558842923,154.57578771091357,"[0, 0, 254]",254,a,0.058736952880281024,colour,0.5
168,24,0,2,3,2,102,155.08767121454002,155.62373565713642,"[29, 0, 225]",225,a,0.0127692624082556,colour,0.5
168,24,0,2,3,3,103,156.1345829529455,156.75974630042037,"[36, 0, 218]",218,a,0.10191700412542559,colour,0.5
168,24,0,2,3,4,104,157.27529886974662,157.94374545601022,"[70, 0, 184]",184,l,0.14512423072301317,colour,0.5
168,24,0,2,3,5,105,158.46287808194757,159.09574504956254,"[20, 0, 234]",234,a,0.10957966433488764,colour,0.5
168,24,0,2,3,6,106,159.60358218337933,160.17574612081808,"[56, 0, 198]",198,l,0.04969031919608824,colour,0.5
168,24,0,2,3,7,107,160.69746867549838,161.24773873543018,"[87, 0, 167]",167,l,0.02705286117270589,colour,0.5
168,24,0,2,3,8,108,161.7600070262124,162.28779401560314,"[64, 0, 190]",190,l,0.004528436838882044,colour,0.5
168,24,0,2,3,9,109,162.80697862915986,163.40777474867355,"[78, 0, 176]",176,l,0.07762618223205209,colour,0.5
168,24,0,2,3,10,110,163.9164314751979,164.59180147346342,"[75, 0, 179]",179,l,0.15229458392423112,colour,0.5
168,24,0,2,3,11,111,165.1040685827029,166.07974822238612,"[98, 0, 156]",156,l,0.45231159805553034,colour,0.5
168,24,0,2,3,12,112,166.57921653080848,167.17582173917617,"[89, 0, 165]",165,l,0.07332420661987271,colour,0.5
168,24,0,2,3,13,113,167.6885618570086,168.38377379713347,"[10, 0, 244]",244,a,0.17180215085681994,colour,0.5
168,24,0,2,3,14,114,168.89191261668748,169.52771058333747,"[99, 0, 155]",155,l,0.11260833707638085,colour,0.5
168,24,0,2,3,15,115,170.04823663504794,170.95172634346818,"[38, 0, 216]",216,l,0.380305592683726,colour,0.5
168,24,0,2,3,16,116,171.4702221210464,172.0718122333201,"[15, 0, 239]",239,a,0.0783461319952039,colour,0.5
168,24,0,2,3,17,117,172.5796694532619,173.12774185468152,"[60, 0, 194]",194,l,0.03402117156656459,colour,0.5
168,24,0,2,3,18,118,173.64849476146628,174.38372141568107,"[80, 0, 174]",174,l,0.21198661241214722,colour,0.5
168,24,0,2,3,19,119,174.89873559804983,175.61576934195182,"[12, 0, 242]",242,a,0.19359244697261602,colour,0.5
168,24,0,2,3,20,120,176.13357707126124,176.767725612488,"[84, 0, 170]",170,l,0.11100065929349512,colour,0.5
168,24,0,2,3,21,121,177.27429062497686,177.7997551067965,"[39, 0, 215]",215,l,0.002223652307293378,colour,0.5
168,24,0,2,3,22,122,178.32127522483643,179.08774446982716,"[58, 0, 196]",196,l,0.24320911706308834,colour,0.5
168,24,0,2,3,23,123,179.60267752000073,180.23175293592794,"[23, 0, 231]",231,a,0.10591020477295388,colour,0.5
168,24,0,2,3,24,124,180.74336744299217,181.27973238978302,"[1, 0, 253]",253,a,0.013132781896274537,colour,0.5
168,24,0,2,3,25,125,181.79034416592913,182.5037415333063,"[59, 0, 195]",195,l,0.19026917772134766,colour,0.5
168,24,0,2,3,26,126,183.02480794119765,183.63974902582413,"[30, 0, 224]",224,l,0.09163842136331368,colour,0.5
168,24,0,2,3,27,127,184.1498306857684,184.77575021680968,"[40, 0, 214]",214,l,0.10284569207578897,colour,0.5
168,24,0,2,3,28,128,185.29055487332516,185.9117671616259,"[50, 0, 204]",204,l,0.09793758807063568,colour,0.5
168,24,0,2,3,29,129,186.43131608238036,187.07971829011512,"[73, 0, 181]",181,l,0.1251196306111524,colour,0.5
168,24,0,2,3,30,130,187.5876976021973,188.13572983136692,"[49, 0, 205]",205,l,0.024831571921822615,colour,0.5
168,24,0,2,3,31,131,188.650201688346,189.31174888719397,"[63, 0, 191]",191,l,0.1383630831260234,colour,0.5
168,24,0,2,3,32,132,189.82212474981498,190.4716864390357,"[61, 0, 193]",193,l,0.12627320439787582,colour,0.5
168,24,0,2,3,33,133,190.97850745117466,191.55974677302584,"[82, 0, 172]",172,l,0.05797801238077227,colour,0.5
168,24,0,2,3,34,134,192.07224703887186,192.79966570384568,"[68, 0, 186]",186,l,0.20399430341785774,colour,0.5
168,24,0,2,3,35,135,193.30682187860657,194.0557134001283,"[41, 0, 213]",213,l,0.22561406438762788,colour,0.5
168,24,0,2,3,36,136,194.57248295239697,195.11169973526557,"[6, 0, 248]",248,a,0.01587315966025926,colour,0.5
168,24,0,2,3,37,137,195.6194817306823,196.15172311392962,"[9, 0, 245]",245,a,0.008847741642966866,colour,0.5
168,24,0,2,3,38,138,196.66647460129752,197.2236960362643,"[44, 0, 210]",210,l,0.03412829757144209,colour,0.5
168,24,0,2,3,39,139,197.74471912112494,198.35169546597172,"[32, 0, 222]",222,l,0.08409430869505741,colour,0.5
168,24,0,2,3,40,140,198.86972059805703,199.4716966790147,"[86, 0, 168]",168,l,0.0787407652969705,colour,0.5
168,24,0,2,3,41,141,199.97917541331844,200.70373830376775,"[91, 0, 163]",163,l,0.2012310826103203,colour,0.5
168,24,0,2,3,42,142,201.21366085010231,201.9276674966386,"[19, 0, 235]",235,l,0.19069453098927625,colour,0.5
168,24,0,2,3,43,143,202.44810138846515,203.01568568915536,"[45, 0, 209]",209,l,0.04456638780538924,colour,0.5
168,24,0,2,3,44,144,203.5263533913676,204.0561734117946,"[27, 0, 227]",227,l,0.006550046353368089,colour,0.5
168,24,0,2,3,45,145,204.58888859131548,205.30366953833436,"[66, 0, 188]",188,l,0.19139281925163232,colour,0.5
168,24,0,2,3,46,146,205.8234130188066,206.3757011436537,"[22, 0, 232]",232,a,0.02911858139850665,colour,0.5
168,24,0,2,3,47,147,206.88594467414077,207.47966299418476,"[47, 0, 207]",207,l,0.07098830828908831,colour,0.5
168,24,0,2,3,48,148,207.99539830788854,208.59973234252539,"[28, 0, 226]",226,a,0.08100065142207313,colour,0.5
168,24,0,2,3,49,149,209.12053211692546,209.6956711641251,"[52, 0, 202]",202,l,0.051863559274352156,colour,0.5
168,24,0,2,3,50,150,210.21437410450017,211.13569989909593,"[71, 0, 183]",183,l,0.39809205431083683,colour,0.5
168,24,0,2,4,1,151,215.52813436121505,216.255686539851,"[86, 0, 168]",168,l,0.20353783635073341,colour,0.5
168,24,0,2,4,2,152,216.7633783446363,217.4556592857407,"[50, 0, 204]",204,l,0.16898261013557203,colour,0.5
168,24,0,2,4,3,153,217.9666645136458,219.32766576371796,"[12, 0, 242]",242,a,0.838405539674568,colour,0.5
168,24,0,2,4,4,154,219.8323946679593,220.46365553318174,"[64, 0, 190]",190,l,0.1080783248617081,colour,0.5
168,24,0,2,4,5,155,220.973063323283,221.61565709595743,"[29, 0, 225]",225,a,0.11969873961061239,colour,0.5
168,24,0,2,4,6,156,222.12954330451612,222.6636869620561,"[56, 0, 198]",198,l,0.011010741742211394,colour,0.5
168,24,0,2,4,7,157,223.1764597690635,223.75171303149546,"[28, 0, 226]",226,a,0.05197107914136723,colour,0.5
168,24,0,2,4,8,158,224.2709279711562,224.80775568654644,"[49, 0, 205]",205,l,0.01352150751336012,colour,0.5
168,24,0,2,4,9,159,225.31786964183266,225.87171936452796,"[92, 0, 162]",162,l,0.030600622441852465,colour,0.5
168,24,0,2,4,10,160,226.38049148781283,226.93575747932482,"[32, 0, 222]",222,l,0.0415522873372538,colour,0.5
168,24,0,2,4,11,161,227.4778107382881,228.2156367735297,"[78, 0, 176]",176,l,0.21196061858790927,colour,0.5
168,24,0,2,4,12,162,228.730450488496,229.43165833421517,"[7, 0, 247]",247,a,0.17609191726660356,colour,0.5
168,24,0,2,4,13,163,229.95177793723997,230.70368237770163,"[62, 0, 192]",192,l,0.2286317094549304,colour,0.5
168,24,0,2,4,14,164,231.2174701248441,231.7756836569024,"[44, 0, 210]",210,l,0.034886056528193876,colour,0.5
168,24,0,2,4,15,165,232.29571070622478,232.92764425974747,"[35, 0, 219]",219,a,0.10867263789987192,colour,0.5
168,24,0,2,4,16,166,233.43761131062638,234.00767053711752,"[84, 0, 170]",170,l,0.04681445854657795,colour,0.5
168,24,0,2,4,17,167,234.5157857259328,235.07968993323448,"[18, 0, 236]",236,a,0.04078625762485899,colour,0.5
168,24,0,2,4,18,168,235.5939341474441,236.50366867186676,"[58, 0, 196]",196,l,0.38634403358446434,colour,0.5
168,24,0,2,4,19,169,237.0160011594853,237.63171378767584,"[30, 0, 224]",224,l,0.09258916467661038,colour,0.5
168,24,0,2,4,20,170,238.1410790424561,238.72765812311263,"[25, 0, 229]",229,l,0.06331462041998748,colour,0.5
168,24,0,2,4,21,171,239.23488519007515,239.91170217710896,"[82, 0, 172]",172,l,0.153544649889227,colour,0.5
168,24,0,2,4,22,172,240.42252190373256,241.0556677140412,"[88, 0, 166]",166,l,0.10985850702854805,colour,0.5
168,24,0,2,4,23,173,241.55064342558035,242.24770092625113,"[39, 0, 215]",215,l,0.17377886199392378,colour,0.5
168,24,0,2,4,24,174,242.75388154541724,243.33565649730735,"[94, 0, 160]",160,l,0.05845259633497335,colour,0.5
168,24,0,2,4,25,175,243.8352854947443,244.53569304618577,"[9, 0, 245]",245,a,0.17711906661861576,colour,0.5
168,24,0,2,4,26,176,245.05417031302932,245.61564646213083,"[17, 0, 237]",237,a,0.03825934419000987,colour,0.5
168,24,0,2,4,27,177,246.13233448835672,246.7917348347837,"[90, 0, 164]",164,l,0.13620362764049787,colour,0.5
168,24,0,2,4,28,178,247.3043146574346,247.92762062900874,"[65, 0, 189]",189,l,0.10001157906663138,colour,0.5
168,24,0,2,4,29,179,248.4450203342567,249.03165494713176,"[8, 0, 246]",246,a,0.0632972911989782,colour,0.5
168,24,0,2,4,30,180,249.5388741371862,250.11165523070667,"[14, 0, 240]",240,a,0.04946622104034759,colour,0.5
168,24,0,2,4,31,181,250.6327247893496,251.31959665483737,"[41, 0, 213]",213,a,0.16385355875536334,colour,0.5
168,24,0,2,4,32,182,251.8359841768688,252.56764967905474,"[72, 0, 182]",182,l,0.20844830342684872,colour,0.5
168,24,0,2,4,33,183,253.08603124141518,253.78357395988132,"[13, 0, 241]",241,a,0.17257014982169494,colour,0.5
168,24,0,2,4,34,184,254.2909262697358,254.95969580940437,"[69, 0, 185]",185,l,0.14555431011831388,colour,0.5
168,24,0,2,4,35,185,255.47853895882145,256.1276619040291,"[40, 0, 214]",214,l,0.1258907803130569,colour,0.5
168,24,0,2,4,36,186,256.63486140179157,257.2076377691701,"[73, 0, 181]",181,l,0.04955562400573399,colour,0.5
168,24,0,2,4,37,187,257.7287534077477,258.48761591860966,"[76, 0, 178]",178,l,0.2356264075060608,colour,0.5
168,24,0,2,4,38,188,258.99442590307444,259.6796132908785,"[79, 0, 175]",175,l,0.16184100767713971,colour,0.5
168,24,0,2,4,39,189,260.1977014382428,260.8875795272761,"[95, 0, 159]",159,l,0.16671051480807364,colour,0.5
168,24,0,2,4,40,190,261.40082731209986,262.0236945396464,"[15, 0, 239]",239,l,0.09960197962936945,colour,0.5
168,24,0,2,4,41,191,262.5416346010752,263.23164580992307,"[96, 0, 158]",158,l,0.16680858237668872,colour,0.5
168,24,0,2,4,42,192,263.74486287478067,264.3356277465791,"[16, 0, 238]",238,a,0.06758863298455253,colour,0.5
168,24,0,2,4,43,193,264.8542334070953,265.5356052186107,"[4, 0, 250]",250,a,0.15801007141999435,colour,0.5
168,24,0,2,4,44,194,266.04188429919304,266.5755923635006,"[3, 0, 251]",251,a,0.008228616352425888,colour,0.5
168,24,0,2,4,45,195,267.0911031851865,267.68767964282597,"[0, 0, 254]",254,a,0.07335098811017815,colour,0.5
168,24,0,2,4,46,196,268.2005619389238,268.7596612297639,"[60, 0, 194]",194,l,0.03583837521728128,colour,0.5
168,24,0,2,4,47,197,269.2787446250004,269.8715953031642,"[75, 0, 179]",179,l,0.06955943642242346,colour,0.5
168,24,0,2,4,48,198,270.38828805553203,271.05556925263954,"[57, 0, 197]",197,l,0.14400964764354285,colour,0.5
168,24,0,2,4,49,199,271.57607049206854,272.1036294448422,"[59, 0, 195]",195,l,0.004515439926763065,colour,0.5
168,24,0,2,4,50,200,272.6226770001231,273.61564528058807,"[48, 0, 206]",206,l,0.4695691250235541,colour,0.5
168,24,0,2,5,1,201,278.07552147128445,278.61557556991465,"[83, 0, 171]",171,l,0.016350500533008017,colour,0.5
168,24,0,2,5,2,202,279.1233343284548,279.7275958954997,"[50, 0, 204]",204,l,0.08108060207450762,colour,0.5
168,24,0,2,5,3,203,280.248381885307,281.3035927384335,"[7, 0, 247]",247,a,0.5437424627743894,colour,0.5
168,24,0,2,5,4,204,281.81478898145724,282.4155898271274,"[61, 0, 193]",193,l,0.07756080385297537,colour,0.5
168,24,0,2,5,5,205,282.9242623074824,283.4876119801629,"[96, 0, 158]",158,l,0.04002652944473084,colour,0.5
168,24,0,2,5,6,206,284.00245995969453,284.7915993518982,"[23, 0, 231]",231,l,0.2658150674396893,colour,0.5
168,24,0,2,5,7,207,285.2994116734335,286.01553996627626,"[13, 0, 241]",241,a,0.19299734626838472,colour,0.5
168,24,0,2,5,8,208,286.53399045161495,287.21556391209015,"[80, 0, 174]",174,l,0.15844881543307565,colour,0.5
168,24,0,2,5,9,209,287.7371545284841,288.2635933843412,"[2, 0, 252]",252,l,0.003121226458461024,colour,0.5
168,24,0,2,5,10,210,288.7841044699162,289.4635665240785,"[14, 0, 240]",240,a,0.15618774777976796,colour,0.5
168,24,0,2,5,11,211,289.97167462366633,290.75155234248086,"[38, 0, 216]",216,a,0.25687871052650735,colour,0.5
168,24,0,2,5,12,212,291.26861846049724,291.92758715212403,"[98, 0, 156]",156,l,0.1356132530636387,colour,0.5
168,24,0,2,5,13,213,292.44064982951386,293.0075657741836,"[52, 0, 202]",202,l,0.04365542289451696,colour,0.5
168,24,0,2,5,14,214,293.518907740101,294.2715683641145,"[71, 0, 183]",183,l,0.2293977391673252,colour,0.5
168,24,0,2,5,15,215,294.78454597084783,295.40756876741943,"[18, 0, 236]",236,a,0.09975242865039036,colour,0.5
168,24,0,2,5,16,216,295.9252610999538,296.6315834247798,"[97, 0, 157]",157,l,0.18394047260517254,colour,0.5
168,24,0,2,5,17,217,297.14415025053313,297.855579571391,"[32, 0, 222]",222,a,0.18823693436570466,colour,0.5
168,24,0,2,5,18,218,298.3629393643205,300.72756556939567,"[25, 0, 229]",229,l,1.8400785958365304,colour,0.5
168,24,0,2,5,19,219,301.2393809377245,302.0235413337068,"[67, 0, 187]",187,l,0.26073997288767714,colour,0.5
168,24,0,2,5,20,220,302.53637400524167,303.06354305087007,"[81, 0, 173]",173,l,0.0038616562087554485,colour,0.5
168,24,0,2,5,21,221,303.5833460020367,304.1196313920227,"[75, 0, 179]",179,l,0.012808253115508705,colour,0.5
168,24,0,2,5,22,222,304.6301510082849,305.3356186881283,"[42, 0, 212]",212,l,0.18272073272964917,colour,0.5
168,24,0,2,5,23,223,305.8491476787167,306.76759249267343,"[54, 0, 200]",200,l,0.39526030437264126,colour,0.5
168,24,0,2,5,24,224,307.28686375226243,307.85555633449985,"[9, 0, 245]",245,a,0.04543718045169953,colour,0.5
168,24,0,2,5,25,225,308.365109059785,309.2396184266254,"[58, 0, 196]",196,l,0.3513303710933542,colour,0.5
168,24,0,2,5,26,226,309.75568063216633,310.36767772086023,"[57, 0, 197]",197,l,0.08868536697991658,colour,0.5
168,24,0,2,5,27,227,310.88087430574524,311.4155543810193,"[90, 0, 164]",164,l,0.01143885191413574,colour,0.5
168,24,0,2,5,28,228,311.9278246410395,312.51159678402473,"[34, 0, 220]",220,l,0.060552975002792664,colour,0.5
168,24,0,2,5,29,229,313.02165087476897,313.7514948410244,"[20, 0, 234]",234,a,0.20669135816569906,colour,0.5
168,24,0,2,5,30,230,314.2719299143937,315.0154816771246,"[24, 0, 230]",230,a,0.22052479139529169,colour,0.5
168,24,0,2,5,31,231,315.52183204375615,316.2155418567272,"[48, 0, 206]",206,a,0.1704555927135516,colour,0.5
168,24,0,2,5,32,232,316.72503944364144,317.39153176797845,"[94, 0, 160]",160,l,0.14351300832640845,colour,0.5
168,24,0,2,5,33,233,317.9129853261111,318.5994684659672,"[1, 0, 253]",253,a,0.16319977503735572,colour,0.5
168,24,0,2,5,34,234,319.11614349529555,319.78352157841437,"[29, 0, 225]",225,a,0.14298919367138296,colour,0.5
168,24,0,2,5,35,235,320.3038026581489,320.9274961737974,"[12, 0, 242]",242,a,0.10036643396597356,colour,0.5
168,24,0,2,5,36,236,321.4445012457436,322.0235062814463,"[46, 0, 208]",208,a,0.05574845238879789,colour,0.5
168,24,0,2,5,37,237,322.53830778719566,323.2155296475248,"[87, 0, 167]",167,l,0.1538908401853405,colour,0.5
168,24,0,2,5,38,238,323.725986642341,324.39953864926065,"[59, 0, 195]",195,l,0.1502973928290885,colour,0.5
168,24,0,2,5,39,239,324.91350835307094,325.5675291623047,"[19, 0, 235]",235,a,0.13070278598752338,colour,0.5
168,24,0,2,5,40,240,326.0731217699795,326.7915434258175,"[43, 0, 211]",211,a,0.1951335648627719,colour,0.5
168,24,0,2,5,41,241,327.3076020867593,327.9355605565215,"[28, 0, 226]",226,a,0.10460815118858591,colour,0.5
168,24,0,2,5,42,242,328.44838141270156,329.09548904991243,"[27, 0, 227]",227,a,0.12292551669816021,colour,0.5
168,24,0,2,5,43,243,329.6058381310286,330.21552689060627,"[86, 0, 168]",168,l,0.0863553763483651,colour,0.5
168,24,0,2,5,44,244,330.73091837707034,331.39948863086465,"[35, 0, 219]",219,a,0.14525459361902904,colour,0.5
168,24,0,2,5,45,245,331.91859053683584,332.583492512611,"[66, 0, 188]",188,l,0.14167808163620066,colour,0.5
168,24,0,2,5,46,246,333.0905864597444,333.79955070093274,"[74, 0, 180]",180,l,0.18578839620749932,colour,0.5
168,24,0,2,5,47,247,334.31059255647415,334.86371681555465,"[73, 0, 181]",181,l,0.03014730612630956,colour,0.5
168,24,0,2,5,48,248,335.3732927777455,336.0235137645068,"[56, 0, 198]",198,l,0.12700300030701328,colour,0.5
168,24,0,2,5,49,249,336.52970383598586,337.12751736269274,"[77, 0, 177]",177,l,0.07458175565989222,colour,0.5
168,24,0,2,5,50,250,337.63902750067064,338.3675221518497,"[11, 0, 243]",243,a,0.20505296041665133,colour,0.5
168,24,0,2,6,1,251,342.8886429104314,343.53554968637764,"[8, 0, 246]",246,l,0.12279082149325404,colour,0.5
168,24,0,2,6,2,252,344.0338628456375,344.61549995155656,"[50, 0, 204]",204,l,0.05884762349887751,colour,0.5
168,24,0,2,6,3,253,345.1276504825073,345.9354849381634,"[85, 0, 169]",169,l,0.28439552181225736,colour,0.5
168,24,0,2,6,4,254,346.45598381452146,347.09545714841806,"[70, 0, 184]",184,l,0.11611435070517473,colour,0.5
168,24,0,2,6,5,255,347.6123440666852,348.1835525346687,"[24, 0, 230]",230,a,0.0478853247477673,colour,0.5
168,24,0,2,6,6,256,348.69058070960455,349.59152932613506,"[90, 0, 164]",164,l,0.37778891922789626,colour,0.5
168,24,0,2,6,7,257,350.1130285703548,351.14347007915785,"[42, 0, 212]",212,l,0.507157356289099,colour,0.5
168,24,0,2,6,8,258,351.6599655148748,352.26349649831536,"[31, 0, 223]",223,a,0.08021729248866905,colour,0.5
168,24,0,2,6,9,259,352.7694183609274,353.36745992423675,"[58, 0, 196]",196,l,0.0747042416332988,colour,0.5
168,24,0,2,6,10,260,353.8788924746332,354.44746611549635,"[18, 0, 236]",236,a,0.045277279132278636,colour,0.5
168,24,0,2,6,11,261,354.9571208467969,355.5115176210529,"[91, 0, 163]",163,l,0.03084716979356017,colour,0.5
168,24,0,2,6,12,262,356.0200317754643,356.5675500361249,"[1, 0, 253]",253,a,0.024980839414638467,colour,0.5
168,24,0,2,6,13,263,357.08257918462914,357.63150111104187,"[5, 0, 249]",249,l,0.025800825969781727,colour,0.5
168,24,0,2,6,14,264,358.14528019358113,359.15148956349003,"[72, 0, 182]",182,l,0.482939395820722,colour,0.5
168,24,0,2,6,15,265,359.66093713200826,360.51950953618507,"[19, 0, 235]",235,a,0.33532606084190775,colour,0.5
168,24,0,2,6,16,266,361.03607704566093,361.6155031023227,"[57, 0, 197]",197,l,0.056383725357591175,colour,0.5
168,24,0,2,6,17,267,362.12987177174364,362.79147568436747,"[25, 0, 229]",229,a,0.1383410277630901,colour,0.5
168,24,0,2,6,18,268,363.3018204331893,363.99147009175795,"[77, 0, 177]",177,l,0.16638125987083185,colour,0.5
168,24,0,2,6,19,269,364.50507785147056,365.15153328035376,"[20, 0, 234]",234,a,0.12317245791200548,colour,0.5
168,24,0,2,6,20,270,365.6613601221907,366.27946772554424,"[11, 0, 243]",243,a,0.09478642934118398,colour,0.5
168,24,0,2,6,21,271,366.7739735792711,367.3994638185832,"[45, 0, 209]",209,a,0.10210683770128526,colour,0.5
168,24,0,2,6,22,272,367.91626133389946,368.7834707723232,"[71, 0, 183]",183,l,0.34448809128662106,colour,0.5
168,24,0,2,6,23,273,369.28209231268556,369.8314963061275,"[6, 0, 248]",248,a,0.026327397557906806,colour,0.5
168,24,0,2,6,24,274,370.344720460198,370.96744235872757,"[76, 0, 178]",178,a,0.09951848434866406,colour,0.5
168,24,0,2,6,25,275,371.48544346622657,372.0554625204677,"[35, 0, 219]",219,a,0.04676995398767758,colour,0.5
168,24,0,2,6,26,276,372.56359464464185,373.15943618638266,"[23, 0, 231]",231,a,0.0725802322558593,colour,0.5
168,24,0,2,6,27,277,373.6731313798082,374.3194536888768,"[13, 0, 241]",241,a,0.12311574413615745,colour,0.5
168,24,0,2,6,28,278,374.8293880505662,375.59954369047773,"[43, 0, 211]",211,a,0.24683958588866517,colour,0.5
168,24,0,2,6,29,279,376.1107667150063,376.71943265752634,"[98, 0, 156]",156,l,0.08537785154476296,colour,0.5
168,24,0,2,6,30,280,377.2358095457166,377.8555130114837,"[59, 0, 195]",195,l,0.09643388552649412,colour,0.5
168,24,0,2,6,31,281,378.3766030500992,378.9674750479171,"[56, 0, 198]",198,l,0.06762565446842927,colour,0.5
168,24,0,2,6,32,282,379.4859759454848,380.10344591279863,"[46, 0, 208]",208,l,0.09413855332240928,colour,0.5
168,24,0,2,6,33,283,380.6111093606887,381.22346327350533,"[9, 0, 245]",245,a,0.08909496641717851,colour,0.5
168,24,0,2,6,34,284,381.73619945287646,382.39946263705497,"[51, 0, 203]",203,l,0.13993728402419947,colour,0.5
168,24,0,2,6,35,285,382.9081311789487,383.55143859986856,"[65, 0, 189]",189,l,0.1199011762655573,colour,0.5
168,24,0,2,6,36,286,384.06451584953174,384.7594583992759,"[48, 0, 206]",206,l,0.17176394784473814,colour,0.5
168,24,0,2,6,37,287,385.2677248248074,385.9034664715291,"[44, 0, 210]",210,l,0.11249097109248396,colour,0.5
168,24,0,2,6,38,288,386.4240330893372,387.0634174141305,"[15, 0, 239]",239,a,0.11609111382858828,colour,0.5
168,24,0,2,6,39,289,387.5803543507791,388.2235046272981,"[63, 0, 191]",191,l,0.1199665546300821,colour,0.5
168,24,0,2,6,40,290,388.73715177156555,389.35142134943453,"[55, 0, 199]",199,l,0.09094013311550952,colour,0.5
168,24,0,2,6,41,291,389.8623127559549,390.527419925289,"[84, 0, 170]",170,l,0.14180923221283592,colour,0.5
168,24,0,2,6,42,292,391.021991551228,391.63942646626674,"[99, 0, 155]",155,l,0.09415470097155776,colour,0.5
168,24,0,2,6,43,293,392.14701587118907,393.6234497252153,"[79, 0, 175]",175,l,0.953140643046936,colour,0.5
168,24,0,2,6,44,294,394.131574366329,394.7274789233488,"[96, 0, 158]",158,l,0.07270547516236547,colour,0.5
168,24,0,2,6,45,295,395.24123752593005,395.7674644928484,"[2, 0, 252]",252,l,0.0031472202681470662,colour,0.5
168,24,0,2,6,46,296,396.28970810526516,396.87942219698743,"[88, 0, 166]",166,l,0.06643860379699618,colour,0.5
168,24,0,2,6,47,297,397.3993161264807,397.95142544542614,"[60, 0, 194]",194,l,0.02904178151220549,colour,0.5
168,24,0,2,6,48,298,398.4624023164506,399.09539177005354,"[39, 0, 215]",215,l,0.10961904890427832,colour,0.5
168,24,0,2,6,49,299,399.6032025161985,400.20743060637324,"[74, 0, 180]",180,l,0.08094630071718711,colour,0.5
168,24,0,2,6,50,300,400.7282248669362,401.7594268916291,"[28, 0, 226]",226,a,0.5078843952942407,colour,0.5
168,24,0,2,7,1,301,406.36850125204364,407.2874037145957,"[61, 0, 193]",193,l,0.3948298311297549,colour,0.5
168,24,0,2,7,2,302,407.8069459399703,408.56743109475065,"[24, 0, 230]",230,l,0.2372758329292992,colour,0.5
168,24,0,2,7,3,303,409.08829664136283,409.6234576021234,"[36, 0, 218]",218,a,0.010703148320317268,colour,0.5
168,24,0,2,7,4,304,410.136491922618,410.6874015878275,"[35, 0, 219]",219,a,0.027512872838997282,colour,0.5
168,24,0,2,7,5,305,411.19911337476515,411.8074449423584,"[97, 0, 157]",157,l,0.08518565488338936,colour,0.5
168,24,0,2,7,6,306,412.32480211227085,412.9514033900632,"[52, 0, 202]",202,l,0.1033147621928947,colour,0.5
168,24,0,2,7,7,307,413.4662367973069,414.00739484519,"[69, 0, 185]",185,l,0.018018436690908857,colour,0.5
168,24,0,2,7,8,308,414.528862975596,415.2553998202493,"[88, 0, 166]",166,l,0.20332397818856407,colour,0.5
168,24,0,2,7,9,309,415.7633381723863,416.30342299098265,"[43, 0, 211]",211,l,0.016779792262241244,colour,0.5
168,24,0,2,7,10,310,416.8102932338079,417.335409162275,"[94, 0, 160]",160,l,0.001814840579754673,colour,0.5
168,24,0,2,7,11,311,417.85724278140697,418.767362093,"[89, 0, 165]",165,l,0.3838600493327249,colour,0.5
168,24,0,2,7,12,312,419.2822337032703,419.8153832944954,"[38, 0, 216]",216,a,0.009929241699865088,colour,0.5
168,24,0,2,7,13,313,420.3291501678177,420.863377714486,"[27, 0, 227]",227,a,0.010982384861563332,colour,0.5
168,24,0,2,7,14,314,421.37613122306357,421.93541680288035,"[77, 0, 177]",177,l,0.036023876498802565,colour,0.5
168,24,0,2,7,15,315,422.45431627221114,423.05537863135396,"[42, 0, 212]",212,l,0.07776008972723503,colour,0.5
168,24,0,2,7,16,316,423.5638037766621,424.4074458875839,"[83, 0, 171]",171,l,0.32059859806031454,colour,0.5
168,24,0,2,7,17,317,424.9233107764885,425.47940581300645,"[56, 0, 198]",198,l,0.03301647141051944,colour,0.5
168,24,0,2,7,18,318,425.9858711825509,426.61534950253554,"[37, 0, 217]",217,l,0.10621740434726235,colour,0.5
168,24,0,2,7,19,319,427.1266241208359,427.71138796707965,"[18, 0, 236]",236,a,0.06154625362250954,colour,0.5
168,24,0,2,7,20,320,428.220397973113,428.8554031285603,"[64, 0, 190]",190,l,0.11174345212930348,colour,0.5
168,24,0,2,7,21,321,429.37669245305005,430.23136499800603,"[59, 0, 195]",195,l,0.3312737833621213,colour,0.5
168,24,0,2,7,22,322,430.75193752348423,431.455422978368,"[81, 0, 173]",173,l,0.18024344384321012,colour,0.5
168,24,0,2,7,23,323,431.9707246680482,432.52739865762123,"[32, 0, 222]",222,a,0.03375926423177589,colour,0.5
168,24,0,2,7,24,324,433.0489278340974,433.63938432479335,"[17, 0, 237]",237,a,0.06727670726832002,colour,0.5
168,24,0,2,7,25,325,434.1584322739218,434.77535912812164,"[26, 0, 228]",228,a,0.09369153853913303,colour,0.5
168,24,0,2,7,26,326,435.27200789582275,435.8153793560341,"[20, 0, 234]",234,a,0.020121966110309586,colour,0.5
168,24,0,2,7,27,327,436.33454664038436,437.20736444031354,"[65, 0, 189]",189,l,0.3495549150684383,colour,0.5
168,24,0,2,7,28,328,437.72531671094475,438.2558531365503,"[58, 0, 196]",196,l,0.007300322249648161,colour,0.5
168,24,0,2,7,29,329,438.7878219786362,439.4393536835996,"[28, 0, 226]",226,a,0.12820501711394172,colour,0.5
168,24,0,2,7,30,330,439.9598198707681,440.5353996312042,"[66, 0, 188]",188,l,0.052285367928561755,colour,0.5
168,24,0,2,7,31,331,441.05360987072345,441.60738988274534,"[16, 0, 238]",238,a,0.030420241149840876,colour,0.5
168,24,0,2,7,32,332,442.1162100552028,442.71140962858044,"[11, 0, 243]",243,a,0.07214660823228769,colour,0.5
168,24,0,2,7,33,333,443.22568219968525,443.78335655710544,"[51, 0, 203]",203,l,0.03433585421589669,colour,0.5
168,24,0,2,7,34,334,444.3038400734804,444.85535941169655,"[96, 0, 158]",158,l,0.02817217039410025,colour,0.5
168,24,0,2,7,35,335,445.36648121790495,445.9913259442692,"[19, 0, 235]",235,a,0.11195100875920616,colour,0.5
168,24,0,2,7,36,336,446.51235296759114,447.09537680391804,"[29, 0, 225]",225,a,0.05968769619357772,colour,0.5
168,24,0,2,7,37,337,447.60617565672146,448.3113841861632,"[49, 0, 205]",205,a,0.18178928787529003,colour,0.5
168,24,0,2,7,38,338,448.82498643202416,449.7193987868086,"[15, 0, 239]",239,a,0.37106479312933516,colour,0.5
168,24,0,2,7,39,339,450.23140123179473,450.75935560556536,"[10, 0, 244]",244,a,0.004727328865556046,colour,0.5
168,24,0,2,7,40,340,451.2783799239551,451.8073622347729,"[45, 0, 209]",209,a,0.005671376799000427,colour,0.5
168,24,0,2,7,41,341,452.3253428622993,452.9113540175895,"[76, 0, 178]",178,l,0.06269982742378488,colour,0.5
168,24,0,2,7,42,342,453.41916673297237,453.9993958408304,"[2, 0, 252]",252,a,0.05692289999569766,colour,0.5
168,24,0,2,7,43,343,454.51299887438654,455.1033486329252,"[44, 0, 210]",210,a,0.06705182141740806,colour,0.5
168,24,0,2,7,44,344,455.6226254063513,456.1913656438992,"[62, 0, 192]",192,l,0.04551358649041504,colour,0.5
168,24,0,2,7,45,345,456.7006477972609,457.59134028025437,"[50, 0, 204]",204,l,0.36740596739400644,colour,0.5
168,24,0,2,7,46,346,458.1070180924871,458.9913440611708,"[53, 0, 201]",201,l,0.361088289952022,colour,0.5
168,24,0,2,7,47,347,459.4977381446661,460.0793421675626,"[78, 0, 176]",176,l,0.058262368926079944,colour,0.5
168,24,0,2,7,48,348,460.5916057321883,461.1673635108309,"[30, 0, 224]",224,a,0.052527189123793505,colour,0.5
168,24,0,2,7,49,349,461.68548198432836,462.25536082954204,"[92, 0, 162]",162,l,0.046626200346508995,colour,0.5
168,24,0,2,7,50,350,462.76358156897186,463.37536873795034,"[75, 0, 179]",179,l,0.08846245035238098,colour,0.5
168,24,0,2,8,1,351,468.12262068020937,469.0873474734399,"[12, 0, 242]",242,a,0.44061280801543035,colour,0.5
168,24,0,2,8,2,352,469.60795977733505,470.5513169015758,"[9, 0, 245]",245,a,0.4200619440380251,colour,0.5
168,24,0,2,8,3,353,471.0507214070094,471.6793049097614,"[28, 0, 226]",226,a,0.10536118398886174,colour,0.5
168,24,0,2,8,4,354,472.1913861238718,473.0313339629647,"[20, 0, 234]",234,a,0.31667195732006803,colour,0.5
168,24,0,2,8,5,355,473.55085058836266,474.12730507990636,"[42, 0, 212]",212,a,0.06568793406768236,colour,0.5
168,24,0,2,8,6,356,474.6477874147531,475.5672936426272,"[99, 0, 155]",155,l,0.39628824141982477,colour,0.5
168,24,0,2,8,7,357,476.0854026638117,477.83929917536443,"[65, 0, 189]",189,l,1.2307108204258839,colour,0.5
168,24,0,2,8,8,358,478.35116338056105,479.0953220593801,"[74, 0, 180]",180,l,0.2208623170881765,colour,0.5
168,24,0,2,8,9,359,479.6012927588308,480.19133571164275,"[48, 0, 206]",206,l,0.06675171107053757,colour,0.5
168,24,0,2,8,10,360,480.71070385724306,481.2632724001742,"[96, 0, 158]",158,l,0.029248550461488776,colour,0.5
168,24,0,2,8,11,361,481.7733989585249,482.32730500113394,"[40, 0, 214]",214,l,0.03074280069267843,colour,0.5
168,24,0,2,8,12,362,482.8359408538381,483.38337128692365,"[62, 0, 192]",192,l,0.024229381990153342,colour,0.5
168,24,0,2,8,13,363,483.9002003098867,484.46336763203726,"[0, 0, 254]",254,a,0.03996036337048281,colour,0.5
168,24,0,2,8,14,364,484.9784007190028,485.5272950762301,"[84, 0, 170]",170,l,0.02559681395359803,colour,0.5
168,24,0,2,8,15,365,486.0409587620088,486.7033113751386,"[41, 0, 213]",213,l,0.13898260226415005,colour,0.5
168,24,0,2,8,16,366,487.20055524354393,487.7592760487605,"[32, 0, 222]",222,l,0.03543507731228601,colour,0.5
168,24,0,2,8,17,367,488.2787371419254,488.8632713761763,"[72, 0, 182]",182,l,0.0612898601393681,colour,0.5
168,24,0,2,8,18,368,489.3724897265347,489.9113032114983,"[73, 0, 181]",181,l,0.01549940017866902,colour,0.5
168,24,0,2,8,19,369,490.4195877539314,490.96733405117993,"[38, 0, 216]",216,l,0.024519252343452536,colour,0.5
168,24,0,2,8,20,370,491.48210050468333,492.0552754438104,"[52, 0, 202]",202,l,0.04969031919608824,colour,0.5
168,24,0,2,8,21,371,492.57593422148784,493.1032927068445,"[10, 0, 244]",244,a,0.004108991255634464,colour,0.5
168,24,0,2,8,22,372,493.62289322137076,494.1592695896834,"[75, 0, 179]",179,l,0.012995329772820696,colour,0.5
168,24,0,2,8,23,373,494.66984355665045,495.2473251975316,"[92, 0, 162]",162,l,0.05420457758009434,colour,0.5
168,24,0,2,8,24,374,495.7636512796453,496.2953121344617,"[77, 0, 177]",177,l,0.008412542243604548,colour,0.5
168,24,0,2,8,25,375,496.81063706103305,497.3832933054946,"[13, 0, 241]",241,a,0.04940517497016117,colour,0.5
168,24,0,2,8,26,376,497.9045050424029,498.4633416382276,"[43, 0, 211]",211,a,0.0355260556389112,colour,0.5
168,24,0,2,8,27,377,498.9827286884247,499.5672778887965,"[51, 0, 203]",203,a,0.06144779222086072,colour,0.5
168,24,0,2,8,28,378,500.07656358677195,500.6472990461916,"[64, 0, 190]",190,l,0.047526531416224316,colour,0.5
168,24,0,2,8,29,379,501.1547498174623,501.7592890456581,"[23, 0, 231]",231,a,0.08124129108909983,colour,0.5
168,24,0,2,8,30,380,502.27982021735806,502.88726445079374,"[93, 0, 161]",161,l,0.08416717013460584,colour,0.5
168,24,0,2,8,31,381,503.4049453618063,503.9912999504595,"[7, 0, 247]",247,a,0.06307082998682745,colour,0.5
168,24,0,2,8,32,382,504.49873969404143,505.14333577780053,"[58, 0, 196]",196,l,0.12146001718065236,colour,0.5
168,24,0,2,8,33,383,505.6550511093519,506.5592946382676,"[86, 0, 168]",168,l,0.3809451979614096,colour,0.5
168,24,0,2,8,34,384,507.0770295061229,507.6393130387296,"[50, 0, 204]",204,l,0.03892966940475162,colour,0.5
168,24,0,2,8,35,385,508.1552342475625,508.7593185840815,"[57, 0, 197]",197,l,0.08082932858087588,colour,0.5
168,24,0,2,8,36,386,509.2804180749954,509.8713294573681,"[17, 0, 237]",237,a,0.067691032847506,colour,0.5
168,24,0,2,8,37,387,510.3899016409996,510.9672560697509,"[34, 0, 220]",220,a,0.05409193773812149,colour,0.5
168,24,0,2,8,38,388,511.48367785634764,512.0632779927837,"[16, 0, 238]",238,a,0.056476672922144644,colour,0.5
168,24,0,2,8,39,389,512.5774977885594,513.1192450294766,"[63, 0, 191]",191,l,0.018480023762094788,colour,0.5
168,24,0,2,8,40,390,513.640138932984,514.1752624784131,"[90, 0, 164]",164,l,0.011981571180513129,colour,0.5
168,24,0,2,8,41,391,514.6876579813252,515.2792861627095,"[95, 0, 159]",159,l,0.06837671804532874,colour,0.5
168,24,0,2,8,42,392,515.797269941002,516.3432384191692,"[31, 0, 223]",223,a,0.022944263750105165,colour,0.5
168,24,0,2,8,43,393,516.8506265689794,517.4072556601604,"[83, 0, 171]",171,l,0.033277197217103094,colour,0.5
168,24,0,2,8,44,394,517.9318914908072,518.463230967609,"[91, 0, 163]",163,l,0.006629997005802579,colour,0.5
168,24,0,2,8,45,395,518.9804369008198,519.5352602098574,"[33, 0, 221]",221,a,0.0315525472688023,colour,0.5
168,24,0,2,8,46,396,520.0430292083765,520.9752775233064,"[49, 0, 205]",205,a,0.4089176886191126,colour,0.5
168,24,0,2,8,47,397,521.4963482634921,522.2393025624478,"[25, 0, 229]",229,l,0.21974773400870617,colour,0.5
168,24,0,2,8,48,398,522.7464181710966,523.2713340259797,"[46, 0, 208]",208,l,0.0016864469071151689,colour,0.5
168,24,0,2,8,49,399,523.7936225367885,524.3352614701726,"[78, 0, 176]",176,l,0.018648589684744366,colour,0.5
168,24,0,2,8,50,400,524.8558918909548,525.4072592047596,"[21, 0, 233]",233,a,0.028123333540861495,colour,0.5
168,24,0,2,9,1,401,530.2213908578997,530.7672411823878,"[54, 0, 200]",200,l,0.02170443776412867,colour,0.5
168,24,0,2,9,2,402,531.2848543519649,531.919237625174,"[14, 0, 240]",240,l,0.11113811141694896,colour,0.5
168,24,0,2,9,3,403,532.4255726318224,533.3192697629856,"[94, 0, 160]",160,l,0.37051222773152404,colour,0.5
168,24,0,2,9,4,404,533.8319255978422,534.503244106294,"[42, 0, 212]",212,a,0.1482147372298641,colour,0.5
168,24,0,2,9,5,405,535.0194851177657,535.831182805021,"[62, 0, 192]",192,l,0.2884229870396666,colour,0.5
168,24,0,2,9,6,406,536.3477826098242,537.2712871583499,"[23, 0, 231]",231,a,0.400262537485105,colour,0.5
168,24,0,2,9,7,407,537.7761322470615,538.3432238468813,"[51, 0, 203]",203,l,0.043855890311533585,colour,0.5
168,24,0,2,9,8,408,538.8543176900566,539.43120659329,"[8, 0, 246]",246,l,0.053611052251653746,colour,0.5
168,24,0,2,9,9,409,539.9481754314475,540.5592257152894,"[41, 0, 213]",213,a,0.08784962659410667,colour,0.5
168,24,0,2,9,10,410,541.0732312590553,541.9432405459374,"[47, 0, 207]",207,l,0.3467885435093194,colour,0.5
168,24,0,2,9,11,411,542.4640623757005,543.0472106672387,"[61, 0, 193]",193,l,0.05998229270335287,colour,0.5
168,24,0,2,9,12,412,543.5577543080872,544.159239657427,"[72, 0, 182]",182,l,0.07817874762986321,colour,0.5
168,24,0,2,9,13,413,544.6672725325043,545.2472873883526,"[49, 0, 205]",205,l,0.056762998676276766,colour,0.5
168,24,0,2,9,14,414,545.7610983724007,546.3592005879327,"[68, 0, 186]",186,l,0.07485350912611466,colour,0.5
168,24,0,2,9,15,415,546.8705208923348,547.4552307817212,"[2, 0, 252]",252,a,0.06133987852081191,colour,0.5
168,24,0,2,9,16,416,547.9643853290909,548.5192279365729,"[19, 0, 235]",235,a,0.032274072436848655,colour,0.5
168,24,0,2,9,17,417,549.0269110767549,549.8312225834234,"[30, 0, 224]",224,a,0.2809139266173588,colour,0.5
168,24,0,2,9,18,418,550.3395079135371,550.9032663979597,"[40, 0, 214]",214,a,0.04045188269810751,colour,0.5
168,24,0,2,9,19,419,551.4177536149218,552.0152260713221,"[55, 0, 199]",199,l,0.07425565148878377,colour,0.5
168,24,0,2,9,20,420,552.527209611726,553.0872206551576,"[76, 0, 178]",178,l,0.03700691513950005,colour,0.5
168,24,0,2,9,21,421,553.6054364085139,554.1992035654112,"[77, 0, 177]",177,l,0.07044913366553374,colour,0.5
168,24,0,2,9,22,422,554.7149219437415,555.2472180715267,"[79, 0, 175]",175,l,0.009119101276155561,colour,0.5
168,24,0,2,9,23,423,555.7620412387914,556.3672543368302,"[74, 0, 180]",180,l,0.08195100087323226,colour,0.5
168,24,0,2,9,24,424,556.8870722541324,557.7352160203882,"[86, 0, 168]",168,l,0.32487142911122646,colour,0.5
168,24,0,2,9,25,425,558.2492188072356,558.7912098385859,"[16, 0, 238]",238,a,0.018970361546962522,colour,0.5
168,24,0,2,9,26,426,559.3117252564552,559.8792059757398,"[73, 0, 181]",181,l,0.04419065908587072,colour,0.5
168,24,0,2,9,27,427,560.389918970206,560.9752267172298,"[52, 0, 202]",202,l,0.06203619755979162,colour,0.5
168,24,0,2,9,28,428,561.4838503607316,562.0632157651708,"[69, 0, 185]",185,l,0.056104094968759455,colour,0.5
168,24,0,2,9,29,429,562.5775942807377,563.4312278609577,"[84, 0, 170]",170,l,0.3303895999561064,colour,0.5
168,24,0,2,9,30,430,563.9370937974891,564.6312466867821,"[92, 0, 162]",162,l,0.17086676754115615,colour,0.5
168,24,0,2,9,31,431,565.1403661819058,565.7994380610908,"[33, 0, 221]",221,l,0.13591218188230414,colour,0.5
168,24,0,2,9,32,432,566.3123617109668,567.1511504624214,"[70, 0, 184]",184,l,0.3156349618366221,colour,0.5
168,24,0,2,9,33,433,567.6718100277794,568.2312078536052,"[35, 0, 219]",219,l,0.03609319332463201,colour,0.5
168,24,0,2,9,34,434,568.749984836948,569.3112416140502,"[34, 0, 220]",220,a,0.038089202891569585,colour,0.5
168,24,0,2,9,35,435,569.8282329013891,570.6871526774048,"[32, 0, 222]",222,a,0.33597551225102507,colour,0.5
168,24,0,2,9,36,436,571.2033519412362,571.7592185472895,"[6, 0, 248]",248,a,0.03259426890872419,colour,0.5
168,24,0,2,9,37,437,572.2660301071446,572.8712014575431,"[67, 0, 187]",187,l,0.08228025581047405,colour,0.5
168,24,0,2,9,38,438,573.3799916977441,573.9431747737253,"[11, 0, 243]",243,l,0.04018367384560406,colour,0.5
168,24,0,2,9,39,439,574.4496436878835,575.0872182920866,"[7, 0, 247]",247,a,0.1144905252585886,colour,0.5
168,24,0,2,9,40,440,575.6058786971262,576.4711937381799,"[9, 0, 245]",245,a,0.3416110491089057,colour,0.5
168,24,0,2,9,41,441,576.9811103768152,577.5591386754095,"[63, 0, 191]",191,l,0.05473390608676709,colour,0.5
168,24,0,2,9,42,442,578.0749433059245,578.6231760025112,"[53, 0, 201]",201,l,0.024981627095257863,colour,0.5
168,24,0,2,9,43,443,579.1375076504482,579.7111945888755,"[43, 0, 211]",211,l,0.05035709981166292,colour,0.5
168,24,0,2,9,44,444,580.2313835087407,580.8791591081099,"[12, 0, 242]",242,a,0.1245505236875033,colour,0.5
168,24,0,2,9,45,445,581.3877004378883,581.9591456070921,"[0, 0, 254]",254,a,0.04814368748338893,colour,0.5
168,24,0,2,9,46,446,582.46586894551,583.0712187079916,"[59, 0, 195]",195,l,0.0822050312999636,colour,0.5
168,24,0,2,9,47,447,583.5909787299752,584.1832020120783,"[83, 0, 171]",171,l,0.06892180036811624,colour,0.5
168,24,0,2,9,48,448,584.7004457544681,585.3111356695736,"[93, 0, 161]",161,l,0.08733644576568622,colour,0.5
168,24,0,2,9,49,449,585.8255204866728,586.3991471667105,"[48, 0, 206]",206,l,0.05030471834470518,colour,0.5
168,24,0,2,9,50,450,586.9193766526732,587.455695913377,"[46, 0, 208]",208,l,0.01300281283329241,colour,0.5
168,24,0,2,10,1,451,592.1350969214691,592.98317373397,"[56, 0, 198]",198,l,0.32396322111890186,colour,0.5
168,24,0,2,10,2,452,593.4954743200942,594.0471374119516,"[1, 0, 253]",253,a,0.02840335777727887,colour,0.5
168,24,0,2,10,3,453,594.5578917601961,595.4311569687416,"[6, 0, 248]",248,a,0.34993024994037114,colour,0.5
168,24,0,2,10,4,454,595.9487004276452,596.8791669850325,"[88, 0, 166]",166,l,0.40744116144196596,colour,0.5
168,24,0,2,10,5,455,597.3863294613111,598.0151622683334,"[38, 0, 216]",216,l,0.10561875902931206,colour,0.5
168,24,0,2,10,6,456,598.52699890433,599.1191796510975,"[39, 0, 215]",215,l,0.06892180036811624,colour,0.5
168,24,0,2,10,7,457,599.6364367842325,600.1991373993515,"[86, 0, 168]",168,l,0.03936998880817555,colour,0.5
168,24,0,2,10,8,458,600.7146970579051,601.2551300360064,"[19, 0, 235]",235,l,0.01724649929383304,colour,0.5
168,24,0,2,10,9,459,601.7616548762453,602.3351228365063,"[32, 0, 222]",222,a,0.05022516152530443,colour,0.5
168,24,0,2,10,10,460,602.8554484207998,603.7511210815283,"[25, 0, 229]",229,a,0.3726740462734597,colour,0.5
168,24,0,2,10,11,461,604.2618226544728,604.8151769193937,"[65, 0, 189]",189,l,0.030091773907770403,colour,0.5
168,24,0,2,10,12,462,605.3244578912127,605.9191462529998,"[52, 0, 202]",202,l,0.07148731069173664,colour,0.5
168,24,0,2,10,13,463,606.4338800172991,607.0311587016622,"[61, 0, 193]",193,l,0.07399098723544739,colour,0.5
168,24,0,2,10,14,464,607.5437148935889,608.1271057940176,"[62, 0, 192]",192,l,0.06013352940499317,colour,0.5
168,24,0,2,10,15,465,608.6375147396757,609.2711548262305,"[37, 0, 217]",217,a,0.11020784809079487,colour,0.5
168,24,0,2,10,16,466,609.7782771302591,610.431174297948,"[79, 0, 175]",175,l,0.1296906027564546,colour,0.5
168,24,0,2,10,17,467,610.9501950717386,611.6471300864214,"[81, 0, 173]",173,l,0.17379264658666216,colour,0.5
168,24,0,2,10,18,468,612.1535450437368,612.799146221485,"[45, 0, 209]",209,a,0.1223839789890917,colour,0.5
168,24,0,2,10,19,469,613.3097335791972,613.9511560550309,"[17, 0, 237]",237,a,0.11812217564147431,colour,0.5
168,24,0,2,10,20,470,614.4661907173722,615.1271097324789,"[49, 0, 205]",205,a,0.13787353302177507,colour,0.5
168,24,0,2,10,21,471,615.6381082650041,616.1832413966476,"[18, 0, 236]",236,a,0.021881274456973188,colour,0.5
168,24,0,2,10,22,472,616.7006284988311,617.2791632828739,"[89, 0, 165]",165,l,0.05522227464825846,colour,0.5
168,24,0,2,10,23,473,617.7946028185252,618.3991424405685,"[44, 0, 210]",210,l,0.0813436909520533,colour,0.5
168,24,0,2,10,24,474,618.9195936616161,619.479157690279,"[95, 0, 159]",159,l,0.03627554385457188,colour,0.5
168,24,0,2,10,25,475,619.9977747723024,620.6231307102717,"[31, 0, 223]",223,a,0.10205012393998913,colour,0.5
168,24,0,2,10,26,476,621.1386305042979,621.6711590009945,"[29, 0, 225]",225,a,0.00931563024641946,colour,0.5
168,24,0,2,10,27,477,622.1854941935308,622.7351214974333,"[28, 0, 226]",226,a,0.026383323624031618,colour,0.5
168,24,0,2,10,28,478,623.2480148212053,623.8631181702222,"[96, 0, 158]",158,l,0.09182786110613961,colour,0.5
168,24,0,2,10,29,479,624.3731947101915,624.9350981817697,"[84, 0, 170]",170,l,0.0390021369967144,colour,0.5
168,24,0,2,10,30,480,625.4513234394108,626.0551179055619,"[78, 0, 176]",176,l,0.08048825827427208,colour,0.5
168,24,0,2,10,31,481,626.5764336177235,627.367083013989,"[0, 0, 254]",254,a,0.26736288068059366,colour,0.5
168,24,0,2,10,32,482,627.873450709827,628.4231173982844,"[99, 0, 155]",155,l,0.02653495418780949,colour,0.5
168,24,0,2,10,33,483,628.9359993005346,629.4791466625902,"[63, 0, 191]",191,l,0.01987266182550229,colour,0.5
168,24,0,2,10,34,484,629.9986432018777,630.5991880478978,"[8, 0, 246]",246,a,0.07742650251020677,colour,0.5
168,24,0,2,10,35,485,631.0961893074127,631.647130480269,"[59, 0, 195]",195,l,0.02762905729468912,colour,0.5
168,24,0,2,10,36,486,632.1587599534687,632.7351112574543,"[55, 0, 199]",199,l,0.05303091766836587,colour,0.5
168,24,0,2,10,37,487,633.2525479841861,633.791117284869,"[76, 0, 178]",178,l,0.015202834430965595,colour,0.5
168,24,0,2,10,38,488,634.299427033402,634.8551333443174,"[75, 0, 179]",179,l,0.03243988144095056,colour,0.5
168,24,0,2,10,39,489,635.3621682146186,635.9431314507092,"[94, 0, 160]",160,l,0.05769089894602075,colour,0.5
168,24,0,2,10,40,490,636.4560019314231,637.0151118560898,"[16, 0, 238]",238,a,0.035736763034947217,colour,0.5
168,24,0,2,10,41,491,637.5343023773312,638.1430711135617,"[30, 0, 224]",224,l,0.08551215290208347,colour,0.5
168,24,0,2,10,42,492,638.6594196448714,639.2471294562711,"[4, 0, 250]",250,a,0.06453160336241126,colour,0.5
168,24,0,2,10,43,493,639.7532061001984,640.6310682747135,"[21, 0, 233]",233,a,0.35456620663171634,colour,0.5
168,24,0,2,10,44,494,641.1439659307798,641.8711242638092,"[2, 0, 252]",252,a,0.2039817003533244,colour,0.5
168,24,0,2,10,45,495,642.3783706292015,642.9031647857919,"[67, 0, 187]",187,l,0.0015253640449373052,colour,0.5
168,24,0,2,10,46,496,643.4253741336433,644.0150775915245,"[58, 0, 196]",196,l,0.06650634524703491,colour,0.5
168,24,0,2,10,47,497,644.5348620319419,645.1190705558693,"[36, 0, 218]",218,l,0.06098266055050772,colour,0.5
168,24,0,2,10,48,498,645.616311273523,646.2071041083691,"[93, 0, 161]",161,l,0.06615464111382607,colour,0.5
168,24,0,2,10,49,499,646.7257968087506,647.6070468432154,"[14, 0, 240]",240,a,0.3580946694564773,colour,0.5
168,24,0,2,10,50,500,648.1164510887174,648.7030998800328,"[64, 0, 190]",190,l,0.06347018943051808,colour,0.5
168,24,0,2,11,1,501,653.3973279938364,654.2950458948326,"[61, 0, 193]",193,l,0.37366496183676645,colour,0.5
168,24,0,2,11,2,502,654.804526940221,655.9350375295471,"[29, 0, 225]",225,a,0.6072792121121893,colour,0.5
168,24,0,2,11,3,503,656.4452649123705,656.999083127419,"[48, 0, 206]",206,l,0.030522640998242423,colour,0.5
168,24,0,2,11,4,504,657.5077894784918,658.0550426810514,"[53, 0, 201]",201,l,0.023972594644874334,colour,0.5
168,24,0,2,11,5,505,658.5704885182204,659.1511378593568,"[43, 0, 211]",211,l,0.05745104695961345,colour,0.5
168,24,0,2,11,6,506,659.6642580381886,660.223076123264,"[32, 0, 222]",222,a,0.035544172540539876,colour,0.5
168,24,0,2,11,7,507,660.7424749888451,661.3510783099046,"[59, 0, 195]",195,l,0.08536879309394863,colour,0.5
168,24,0,2,11,8,508,661.8676032840449,662.7830304529343,"[12, 0, 242]",242,a,0.3921402594569372,colour,0.5
168,24,0,2,11,9,509,663.2895218162885,663.8950653508073,"[4, 0, 250]",250,a,0.08294112874136772,colour,0.5
168,24,0,2,11,10,510,664.4146678345569,665.0550170810893,"[25, 0, 229]",229,a,0.11742231198877562,colour,0.5
168,24,0,2,11,11,511,665.571864614787,666.2310613430309,"[55, 0, 199]",199,l,0.13595904951216653,colour,0.5
168,24,0,2,11,12,512,666.7437731039681,667.279036070744,"[86, 0, 168]",168,l,0.01192485740466509,colour,0.5
168,24,0,2,11,13,513,667.7906694824051,668.4070445589023,"[52, 0, 202]",202,l,0.09304838864773046,colour,0.5
168,24,0,2,11,14,514,668.9158840298041,669.5590579370619,"[83, 0, 171]",171,l,0.120147723617265,colour,0.5
168,24,0,2,11,15,515,670.0721162821283,670.799011132447,"[26, 0, 228]",228,l,0.20357013169268612,colour,0.5
168,24,0,2,11,16,516,671.3066706418904,671.9510564120865,"[42, 0, 212]",212,l,0.1212012606265489,colour,0.5
168,24,0,2,11,17,517,672.4504798221169,673.031075206396,"[79, 0, 175]",175,l,0.0572312811127631,colour,0.5
168,24,0,2,11,18,518,673.5443635573174,674.1110388623201,"[94, 0, 160]",160,l,0.04339509095007088,colour,0.5
168,24,0,2,11,19,519,674.6225466372271,675.4790261458402,"[20, 0, 234]",234,a,0.33313824847573414,colour,0.5
168,24,0,2,11,20,520,675.9976857631991,676.5350636809017,"[54, 0, 200]",200,a,0.014112275937804952,colour,0.5
168,24,0,2,11,21,521,677.0354819449421,677.7190195134754,"[99, 0, 155]",155,l,0.16025892985635437,colour,0.5
168,24,0,2,11,22,522,678.2386802863766,678.8230254747323,"[76, 0, 178]",178,l,0.06106733735941816,colour,0.5
168,24,0,2,11,23,523,679.3325451169949,679.9190592131199,"[64, 0, 190]",190,l,0.0634717648208607,colour,0.5
168,24,0,2,11,24,524,680.4263788337994,681.142999827498,"[56, 0, 198]",198,l,0.19336519806529395,colour,0.5
168,24,0,2,11,25,525,681.6608162213961,682.5430378729798,"[69, 0, 185]",185,l,0.3589142621640349,colour,0.5
168,24,0,2,11,26,526,683.0523015156068,683.6310088040336,"[81, 0, 173]",173,l,0.0554447974282084,colour,0.5
168,24,0,2,11,27,527,684.1461324754928,684.7591074828379,"[96, 0, 158]",158,l,0.08978104547713883,colour,0.5
168,24,0,2,11,28,528,685.271272586062,686.071042658994,"[3, 0, 251]",251,a,0.276530818809988,colour,0.5
168,24,0,2,11,29,529,686.5837575706973,687.2070414869086,"[44, 0, 210]",210,a,0.09993477916577831,colour,0.5
168,24,0,2,11,30,530,687.724528625884,688.2790061384876,"[77, 0, 177]",177,l,0.031202812373521738,colour,0.5
168,24,0,2,11,31,531,688.7871083303908,689.3590745573456,"[49, 0, 205]",205,l,0.04874312051106244,colour,0.5
168,24,0,2,11,32,532,689.8663130458299,690.4630127771379,"[19, 0, 235]",235,a,0.07364400924416259,colour,0.5
168,24,0,2,11,33,533,690.9758040948946,691.5430024268862,"[34, 0, 220]",220,a,0.043935447130934335,colour,0.5
168,24,0,2,11,34,534,692.0539446394832,692.6230417011684,"[11, 0, 243]",243,a,0.04579045996069908,colour,0.5
168,24,0,2,11,35,535,693.1321285071026,693.7270126101503,"[31, 0, 223]",223,a,0.07163342740386724,colour,0.5
168,24,0,2,11,36,536,694.2416542145802,694.8069912322098,"[95, 0, 159]",159,l,0.04207137585035525,colour,0.5
168,24,0,2,11,37,537,695.319900309798,695.8950094247266,"[5, 0, 249]",249,a,0.051836383921909146,colour,0.5
168,24,0,2,11,38,538,696.4162735431164,696.9829736604006,"[68, 0, 186]",186,l,0.043243460400844924,colour,0.5
168,24,0,2,11,39,539,697.4945416936825,698.1030115010799,"[62, 0, 192]",192,l,0.0852124363736948,colour,0.5
168,24,0,2,11,40,540,698.6195494721323,699.2950762209512,"[33, 0, 221]",221,a,0.1521587071911199,colour,0.5
168,24,0,2,11,41,541,699.8086256914976,700.4150096925441,"[35, 0, 219]",219,a,0.08311796541966032,colour,0.5
168,24,0,2,11,42,542,700.9336949098652,701.5030330050504,"[1, 0, 253]",253,a,0.04602125348174013,colour,0.5
168,24,0,2,11,43,543,701.9994907576329,702.5670002276456,"[67, 0, 187]",187,l,0.04444626488839276,colour,0.5
168,24,0,2,11,44,544,703.0776364222111,703.9430160539341,"[40, 0, 214]",214,a,0.3421151714865118,colour,0.5
168,24,0,2,11,45,545,704.4527932712372,705.0389954416314,"[2, 0, 252]",252,a,0.06290226406417787,colour,0.5
168,24,0,2,11,46,546,705.5466317141836,706.8150197749928,"[91, 0, 163]",163,l,0.7451310836331686,colour,0.5
168,24,0,2,11,47,547,707.3280359785858,707.8950326616177,"[7, 0, 247]",247,a,0.04373261664295569,colour,0.5
168,24,0,2,11,48,548,708.4061977908423,709.2389957567066,"[75, 0, 179]",179,l,0.3081897044030484,colour,0.5
168,24,0,2,11,49,549,709.7513991365413,710.3189759541565,"[78, 0, 176]",176,l,0.044261945149628446,colour,0.5
168,24,0,2,11,50,550,710.8296712255687,713.0309940742009,"[22, 0, 232]",232,a,1.6780619330093032,colour,0.5
168,24,0,2,12,1,551,717.6497298612958,718.1750072664581,"[33, 0, 221]",221,a,0.0018573759007267654,colour,0.5
168,24,0,2,12,2,552,718.6974844293145,719.2789836892771,"[15, 0, 239]",239,a,0.05809734760259744,colour,0.5
168,24,0,2,12,3,553,719.7912846692489,720.6551097923511,"[95, 0, 159]",159,l,0.3408296594134299,colour,0.5
168,24,0,2,12,4,554,721.1663974075491,722.0470365874789,"[21, 0, 233]",233,a,0.35841132132918574,colour,0.5
168,24,0,2,12,5,555,722.5571792934934,723.4310017935786,"[9, 0, 245]",245,a,0.3512709003989585,colour,0.5
168,24,0,2,12,6,556,723.9478725641675,724.8390041850071,"[1, 0, 253]",253,a,0.3683732522185892,colour,0.5
168,24,0,2,12,7,557,725.3454215053935,726.006991547285,"[62, 0, 192]",192,l,0.13762698567006737,colour,0.5
168,24,0,2,12,8,558,726.5174241236818,727.1591809744277,"[59, 0, 195]",195,l,0.1188740269135451,colour,0.5
168,24,0,2,12,9,559,727.6735480684729,728.2149963805568,"[49, 0, 205]",205,l,0.019114509035716765,colour,0.5
168,24,0,2,12,10,560,728.7206055297574,729.2790786060796,"[36, 0, 218]",218,l,0.03541105272597633,colour,0.5
168,24,0,2,12,11,561,729.7988260250131,730.3270237953693,"[55, 0, 199]",199,l,0.0050817899173125625,colour,0.5
168,24,0,2,12,12,562,730.8458697016904,731.7109645830496,"[13, 0, 241]",241,a,0.341803639617865,colour,0.5
168,24,0,2,12,13,563,732.2209406923648,733.0789735280705,"[5, 0, 249]",249,a,0.33470024017151445,colour,0.5
168,24,0,2,12,14,564,733.5960427968384,734.270989411074,"[37, 0, 217]",217,a,0.15162583407072816,colour,0.5
168,24,0,2,12,15,565,734.7836598182184,735.3349515136651,"[26, 0, 228]",228,a,0.027976035271422006,colour,0.5
168,24,0,2,12,16,566,735.8462340088881,736.398979388483,"[7, 0, 247]",247,a,0.029478556287358515,colour,0.5
168,24,0,2,12,17,567,736.910512763352,737.7349312700098,"[43, 0, 211]",211,a,0.30109063726558816,colour,0.5
168,24,0,2,12,18,568,738.2545057907118,738.7829508961149,"[76, 0, 178]",178,l,0.005185371308471076,colour,0.5
168,24,0,2,12,19,569,739.3013052831229,739.9029910998797,"[67, 0, 187]",187,l,0.07838472886942327,colour,0.5
168,24,0,2,12,20,570,740.4107986952731,740.9989346476214,"[78, 0, 176]",176,l,0.06477027379150968,colour,0.5
168,24,0,2,12,21,571,741.5046678581857,742.2789187047601,"[46, 0, 208]",208,l,0.25091706951207016,colour,0.5
168,24,0,2,12,22,572,742.7859811442468,743.4469659315655,"[19, 0, 235]",235,a,0.1376317118119914,colour,0.5
168,24,0,2,12,23,573,743.9580904946924,744.5589504172094,"[52, 0, 202]",202,a,0.07763090837397613,colour,0.5
168,24,0,2,12,24,574,745.0674622085498,745.6069511387323,"[89, 0, 165]",165,l,0.016184297695872374,colour,0.5
168,24,0,2,12,25,575,746.1162455012964,746.8869544943009,"[50, 0, 204]",204,l,0.24753984340350144,colour,0.5
168,24,0,2,12,26,576,747.3975977780792,748.7749822178739,"[63, 0, 191]",191,l,0.8548895538697252,colour,0.5
168,24,0,2,12,27,577,749.2884304701001,750.0469357629918,"[23, 0, 231]",231,a,0.23524477110186126,colour,0.5
168,24,0,2,12,28,578,750.5541269900132,751.4632215153106,"[40, 0, 214]",214,a,0.38570048986002803,colour,0.5
168,24,0,2,12,29,579,751.976194395902,752.5669439077174,"[6, 0, 248]",248,a,0.0675208915345138,colour,0.5
168,24,0,2,12,30,580,753.0855905281787,753.702958095615,"[29, 0, 225]",225,a,0.09403418422152754,colour,0.5
168,24,0,2,12,31,581,754.2006588249351,754.8069203400082,"[34, 0, 220]",220,a,0.08294152260350529,colour,0.5
168,24,0,2,12,32,582,755.3257004741172,755.8789747883711,"[91, 0, 163]",163,l,0.029961411011754535,colour,0.5
168,24,0,2,12,33,583,756.3902202620957,756.9673466542445,"[66, 0, 188]",188,l,0.053939125646138564,colour,0.5
168,24,0,2,12,34,584,757.4851228758926,758.3109627713566,"[99, 0, 155]",155,l,0.302565589081496,colour,0.5
168,24,0,2,12,35,585,758.8290005064919,759.3829356936767,"[83, 0, 171]",171,l,0.03069750845315866,colour,0.5
168,24,0,2,12,36,586,759.8932658702106,760.5028924021753,"[71, 0, 183]",183,l,0.0862167426967062,colour,0.5
168,24,0,2,12,37,587,761.0183973161766,761.5989336236235,"[88, 0, 166]",166,l,0.05734234556439333,colour,0.5
168,24,0,2,12,38,588,762.1122668729367,762.9349556096713,"[60, 0, 194]",194,l,0.29941049189073965,colour,0.5
168,24,0,2,12,39,589,763.4560322575417,764.4629450357024,"[11, 0, 243]",243,a,0.48346281664271373,colour,0.5
168,24,0,2,12,40,590,764.9719715832616,765.5109126741881,"[27, 0, 227]",227,a,0.016105922404676676,colour,0.5
168,24,0,2,12,41,591,766.0188025833195,766.5669041293149,"[70, 0, 184]",184,l,0.024800064275041223,colour,0.5
168,24,0,2,12,42,592,767.0813090325391,767.6229310305498,"[86, 0, 168]",168,l,0.018264196361997165,colour,0.5
168,24,0,2,12,43,593,768.1439359985234,768.6869301546394,"[44, 0, 210]",210,l,0.01971039744967129,colour,0.5
168,24,0,2,12,44,594,769.2065511491237,769.7589046523499,"[73, 0, 181]",181,l,0.029108735267072916,colour,0.5
168,24,0,2,12,45,595,770.2690946198418,770.8229120471951,"[80, 0, 174]",174,l,0.03046277647081297,colour,0.5
168,24,0,2,12,46,596,771.331704256605,771.8949176587048,"[17, 0, 237]",237,a,0.039965089526958764,colour,0.5
168,24,0,2,12,47,597,772.4100110040454,772.9749919852475,"[61, 0, 193]",193,l,0.042657811965909787,colour,0.5
168,24,0,2,12,48,598,773.4881590317091,774.0230895927962,"[31, 0, 223]",223,a,0.011665707002975978,colour,0.5
168,24,0,2,12,49,599,774.5350621055113,775.4468875562889,"[57, 0, 197]",197,a,0.3885188490530709,colour,0.5
168,24,0,2,12,50,600,775.9601345534174,776.6709699550993,"[98, 0, 156]",156,l,0.18797266395995393,colour,0.5
168,24,0,2,13,1,601,781.2566459477675,782.1348972417472,"[67, 0, 187]",187,l,0.3541361272218637,colour,0.5
168,24,0,2,13,2,602,782.6482383679686,783.206988317761,"[6, 0, 248]",248,a,0.035538264870410785,colour,0.5
168,24,0,2,13,3,603,783.7263761556387,784.4868774580973,"[58, 0, 196]",196,l,0.23725180834298953,colour,0.5
168,24,0,2,13,4,604,785.0077575769974,785.7348989746679,"[3, 0, 251]",251,l,0.2038525190000655,colour,0.5
168,24,0,2,13,5,605,786.2422087492014,786.854895855402,"[55, 0, 199]",199,l,0.08940925520437304,colour,0.5
168,24,0,2,13,6,606,787.3672886013956,787.8949078125588,"[5, 0, 249]",249,l,0.006968310393858701,colour,0.5
168,24,0,2,13,7,607,788.4116088356968,788.9989507952996,"[17, 0, 237]",237,a,0.06394753031781875,colour,0.5
168,24,0,2,13,8,608,789.5053996233328,790.0395176809106,"[85, 0, 169]",169,l,0.010735837509855628,colour,0.5
168,24,0,2,13,9,609,790.552433060031,791.0949085214816,"[93, 0, 161]",161,l,0.019498114663292654,colour,0.5
168,24,0,2,13,10,610,791.6159509047866,792.1588694425445,"[99, 0, 155]",155,l,0.019871086449711584,colour,0.5
168,24,0,2,13,11,611,792.6786975998257,793.2949238026922,"[59, 0, 195]",195,l,0.0933398344059242,colour,0.5
168,24,0,2,13,12,612,793.8036596921884,794.6069239633798,"[1, 0, 253]",253,a,0.28002501706941985,colour,0.5
168,24,0,2,13,13,613,795.11629591354,795.6548912080325,"[98, 0, 156]",156,l,0.015596286189975217,colour,0.5
168,24,0,2,13,14,614,796.1632714549341,796.7588810216112,"[2, 0, 252]",252,a,0.07231871878320817,colour,0.5
168,24,0,2,13,15,615,797.272612842673,797.8548336278036,"[41, 0, 213]",213,a,0.05876137131417636,colour,0.5
168,24,0,2,13,16,616,798.3664965778735,798.9109105474199,"[76, 0, 178]",178,l,0.021288142961566336,colour,0.5
168,24,0,2,13,17,617,799.4291207869392,799.966903577937,"[77, 0, 177]",177,l,0.015321381957619451,colour,0.5
168,24,0,2,13,18,618,800.4760652145342,801.0309117604629,"[30, 0, 224]",224,a,0.031547427279292606,colour,0.5
168,24,0,2,13,19,619,801.5387016328023,802.0788431651745,"[75, 0, 179]",179,l,0.01693339204939548,colour,0.5
168,24,0,2,13,20,620,802.5855743805005,803.6149064262281,"[24, 0, 230]",230,a,0.506016385552357,colour,0.5
168,24,0,2,13,21,621,804.1326078172133,804.7748561872722,"[34, 0, 220]",220,a,0.1191816203208873,colour,0.5
168,24,0,2,13,22,622,805.2889369555633,806.0068639413075,"[22, 0, 232]",232,a,0.19462274710531346,colour,0.5
168,24,0,2,13,23,623,806.5234373584681,807.2628722530353,"[46, 0, 208]",208,a,0.21645400316629093,colour,0.5
168,24,0,2,13,24,624,807.7732945894386,808.3031256375398,"[87, 0, 167]",167,l,0.006098699290305376,colour,0.5
168,24,0,2,13,25,625,808.8354158576403,809.4069260113756,"[32, 0, 222]",222,a,0.04779749718727544,colour,0.5
168,24,0,2,13,26,626,809.9143645734293,810.5348679396266,"[35, 0, 219]",219,a,0.09679701118147932,colour,0.5
168,24,0,2,13,27,627,811.0550863979151,811.7348812516138,"[90, 0, 164]",164,l,0.1566083748912206,colour,0.5
168,24,0,2,13,28,628,812.2426683670346,812.782863462402,"[68, 0, 186]",186,l,0.01726894850435201,colour,0.5
168,24,0,2,13,29,629,813.2894182348973,813.8629523612326,"[26, 0, 228]",228,a,0.04992938348732423,colour,0.5
168,24,0,2,13,30,630,814.3832495886309,814.9509295938042,"[80, 0, 174]",174,l,0.044651064614299685,colour,0.5
168,24,0,2,13,31,631,815.4614893823164,816.0389174602024,"[71, 0, 183]",183,l,0.053976147130015306,colour,0.5
168,24,0,2,13,32,632,816.5552695361257,817.0948876476614,"[31, 0, 223]",223,a,0.016598623275058344,colour,0.5
168,24,0,2,13,33,633,817.6022588621272,818.1589198547881,"[95, 0, 159]",159,l,0.03377186729630921,colour,0.5
168,24,0,2,13,34,634,818.6648696804332,819.2228646281728,"[39, 0, 215]",215,a,0.035016419424209744,colour,0.5
168,24,0,2,13,35,635,819.743083480309,820.3108430422872,"[73, 0, 181]",181,l,0.047718728063046,colour,0.5
168,24,0,2,13,36,636,820.8179425032722,821.4388408966188,"[11, 0, 243]",243,l,0.0982113107747864,colour,0.5
168,24,0,2,13,37,637,821.9587427030347,822.6229393013055,"[42, 0, 212]",212,a,0.1418663398217177,colour,0.5
168,24,0,2,13,38,638,823.1305716353963,823.686938425395,"[9, 0, 245]",245,a,0.03393807014799677,colour,0.5
168,24,0,2,13,39,639,824.1961997049366,824.7988819510792,"[8, 0, 246]",246,a,0.09117368354054634,colour,0.5
168,24,0,2,13,40,640,825.2980883521814,825.9188532318658,"[57, 0, 197]",197,l,0.09748899792612065,colour,0.5
168,24,0,2,13,41,641,826.4388349889341,827.0468219416216,"[7, 0, 247]",247,a,0.08474691088485997,colour,0.5
168,24,0,2,13,42,642,827.563848281221,828.1348704602424,"[40, 0, 214]",214,a,0.0476923404057743,colour,0.5
168,24,0,2,13,43,643,828.642153059438,829.2148593222955,"[81, 0, 173]",173,l,0.0494933963927906,colour,0.5
168,24,0,2,13,44,644,829.7360127700522,830.3108414669114,"[94, 0, 160]",160,l,0.05158865504199639,colour,0.5
168,24,0,2,13,45,645,830.8298649976059,831.4468351748219,"[84, 0, 170]",170,l,0.09374588922946714,colour,0.5
168,24,0,2,13,46,646,831.94457135025,832.4948268379085,"[65, 0, 189]",189,l,0.027042227346100844,colour,0.5
168,24,0,2,13,47,647,833.0071400270826,833.5748444506753,"[60, 0, 194]",194,l,0.04442736029159278,colour,0.5
168,24,0,2,13,48,648,834.0853739130835,834.6388534209109,"[0, 0, 254]",254,a,0.030212290657800622,colour,0.5
168,24,0,2,13,49,649,835.1479583437467,835.7667996814562,"[54, 0, 200]",200,a,0.09558751131407917,colour,0.5
168,24,0,2,13,50,650,836.2730165344256,836.918842204177,"[48, 0, 206]",206,l,0.12249543728830758,colour,0.5
168,24,0,2,14,1,651,842.1945431903005,842.7827850871254,"[85, 0, 169]",169,l,0.06418383769050706,colour,0.5
168,24,0,2,14,2,652,843.2891303337528,843.8708375442075,"[46, 0, 208]",208,l,0.05825409817043692,colour,0.5
168,24,0,2,14,3,653,844.3830117058824,845.2548027503071,"[99, 0, 155]",155,l,0.34866994398180395,colour,0.5
168,24,0,2,14,4,654,845.7736644104589,846.3267989095184,"[74, 0, 180]",180,l,0.029812143518938683,colour,0.5
168,24,0,2,14,5,655,846.8363571486552,847.3828313245904,"[66, 0, 188]",188,l,0.023198688024422154,colour,0.5
168,24,0,2,14,6,656,847.8989616654289,848.4232930534345,"[62, 0, 192]",192,l,0.001144909198046662,colour,0.5
168,24,0,2,14,7,657,848.9458745853772,849.5268244307226,"[37, 0, 217]",217,a,0.054713819961762056,colour,0.5
168,24,0,2,14,8,658,850.0426794734813,850.5748231830221,"[72, 0, 182]",182,l,0.008848923185723834,colour,0.5
168,24,0,2,14,9,659,851.0896534394997,851.6148343524837,"[43, 0, 211]",211,a,0.0018530436063883826,colour,0.5
168,24,0,2,14,10,660,852.1365911717148,852.830767297899,"[70, 0, 184]",184,l,0.1708443183451891,colour,0.5
168,24,0,2,14,11,661,853.3398458330776,854.0468569938676,"[78, 0, 176]",176,a,0.1837852974276757,colour,0.5
168,24,0,2,14,12,662,854.5587101713754,855.102774012179,"[33, 0, 221]",221,a,0.020852549714618362,colour,0.5
168,24,0,2,14,13,663,855.6212658513105,856.1827778403531,"[32, 0, 222]",222,a,0.03818727043108083,colour,0.5
168,24,0,2,14,14,664,856.6994662604266,857.31080995925,"[27, 0, 227]",227,a,0.08817297383211553,colour,0.5
168,24,0,2,14,15,665,857.824620155603,858.6467468746414,"[83, 0, 171]",171,l,0.29890558181796223,colour,0.5
168,24,0,2,14,16,666,859.1528353339381,860.0628144364891,"[79, 0, 175]",175,l,0.386836734454846,colour,0.5
168,24,0,2,14,17,667,860.5747767092398,861.4147769297851,"[5, 0, 249]",249,a,0.31677908332494553,colour,0.5
168,24,0,2,14,18,668,861.9343144290033,862.6228065753385,"[90, 0, 164]",164,l,0.165160732329241,colour,0.5
168,24,0,2,14,19,669,863.1375249796547,863.7347564025549,"[49, 0, 205]",205,a,0.07388622430153191,colour,0.5
168,24,0,2,14,20,670,864.236615747679,864.83880371759,"[40, 0, 214]",214,l,0.07886758359381929,colour,0.5
168,24,0,2,14,21,671,865.3460685937316,865.9587612137693,"[25, 0, 229]",229,a,0.08937695987697225,colour,0.5
168,24,0,2,14,22,672,866.4711929504847,867.1508019090543,"[64, 0, 190]",190,l,0.15630196301208343,colour,0.5
168,24,0,2,14,23,673,867.6587796457461,868.2547586395958,"[61, 0, 193]",193,l,0.07268499518977478,colour,0.5
168,24,0,2,14,24,674,868.7684857345157,869.3427977059328,"[34, 0, 220]",220,a,0.05129996620235033,colour,0.5
168,24,0,2,14,25,675,869.8506781627657,870.4468272979138,"[92, 0, 162]",162,l,0.07296305018826388,colour,0.5
168,24,0,2,14,26,676,870.9601034396183,871.5427940825466,"[57, 0, 197]",197,l,0.05954551791364793,colour,0.5
168,24,0,2,14,27,677,872.0539647256082,872.6228262676159,"[53, 0, 201]",201,l,0.04262866739009041,colour,0.5
168,24,0,2,14,28,678,873.1352371305111,873.6867698594724,"[24, 0, 230]",230,a,0.028349400919978507,colour,0.5
168,24,0,2,14,29,679,874.1978436165082,875.0707764193648,"[68, 0, 186]",186,l,0.34974238558788784,colour,0.5
168,24,0,2,14,30,680,875.5885896624968,876.5268137968815,"[7, 0, 247]",247,a,0.4150077233061893,colour,0.5
168,24,0,2,14,31,681,877.0418374315632,877.6630961936462,"[12, 0, 242]",242,a,0.09457257117901463,colour,0.5
168,24,0,2,14,32,682,878.1825009668974,878.8467909065803,"[4, 0, 250]",250,a,0.14121452534163836,colour,0.5
168,24,0,2,14,33,683,879.3452147364442,879.9347531730164,"[60, 0, 194]",194,l,0.06629445630824193,colour,0.5
168,24,0,2,14,34,684,880.4546534040564,881.0547307553352,"[44, 0, 210]",210,l,0.07708818912215065,colour,0.5
168,24,0,2,14,35,685,881.564221646855,882.1347523065633,"[19, 0, 235]",235,a,0.04715986114752013,colour,0.5
168,24,0,2,14,36,686,882.6424571082462,883.1747386637435,"[13, 0, 241]",241,a,0.009019064484164119,colour,0.5
168,24,0,2,14,37,687,883.6893243421073,884.2467470321862,"[82, 0, 172]",172,l,0.03405701152223628,colour,0.5
168,24,0,2,14,38,688,884.767622818792,885.3907417136943,"[26, 0, 228]",228,a,0.09984616391011514,colour,0.5
168,24,0,2,14,39,689,885.9083186494536,886.4707778372103,"[86, 0, 168]",168,l,0.03914352758147288,colour,0.5
168,24,0,2,14,40,690,886.98654820316,887.5747566231148,"[52, 0, 202]",202,a,0.06493844588112552,colour,0.5
168,24,0,2,14,41,691,888.0959518185118,888.7907825160946,"[41, 0, 213]",213,l,0.17149534514464904,colour,0.5
168,24,0,2,14,42,692,889.2992100244737,890.254997703887,"[3, 0, 251]",251,a,0.4330005600495497,colour,0.5
168,24,0,2,14,43,693,890.7680989781365,891.3027451826783,"[1, 0, 253]",253,a,0.011435307314968668,colour,0.5
168,24,0,2,14,44,694,891.8150465564977,892.5267330585339,"[45, 0, 209]",209,l,0.1885264108859701,colour,0.5
168,24,0,2,14,45,695,893.0338707225455,893.9826912730932,"[80, 0, 174]",174,l,0.42550173962081317,colour,0.5
168,24,0,2,14,46,696,894.50280299921,895.0787588822132,"[98, 0, 156]",156,l,0.05274892422312405,colour,0.5
168,24,0,2,14,47,697,895.5965772453346,896.2148195438785,"[91, 0, 163]",163,l,0.09490537071542349,colour,0.5
168,24,0,2,14,48,698,896.7217677681474,897.3187361021701,"[9, 0, 245]",245,a,0.071712984223268,colour,0.5
168,24,0,2,14,49,699,897.833299725171,898.3990321637975,"[89, 0, 165]",165,l,0.04269916575867683,colour,0.5
168,24,0,2,14,50,700,898.9006138477707,899.4392225330084,"[8, 0, 246]",246,a,0.015332803479395807,colour,0.5
168,24,0,2,15,1,701,904.4665900768305,905.2867140909366,"[78, 0, 176]",176,l,0.29612148719024844,colour,0.5
168,24,0,2,15,2,702,905.7955953094643,906.6467137916043,"[7, 0, 247]",247,a,0.327854809598648,colour,0.5
168,24,0,2,15,3,703,907.1550385062874,907.790762036122,"[98, 0, 156]",156,l,0.1124429219198646,colour,0.5
168,24,0,2,15,4,704,908.3113577985059,908.97471629332,"[97, 0, 157]",157,l,0.14007434230006766,colour,0.5
168,24,0,2,15,5,705,909.4833836536709,910.0147475489066,"[85, 0, 169]",169,l,0.008346770031494088,colour,0.5
168,24,0,2,15,6,706,910.5302926351724,911.2866794325237,"[81, 0, 173]",173,l,0.23299394344212487,colour,0.5
168,24,0,2,15,7,707,911.7960789518693,912.638768744102,"[79, 0, 175]",175,l,0.31945565810019616,colour,0.5
168,24,0,2,15,8,708,913.1554768564529,914.0067993506382,"[91, 0, 163]",163,l,0.32795642178098205,colour,0.5
168,24,0,2,15,9,709,914.5149661332252,915.3907795228733,"[44, 0, 210]",210,a,0.3506407474342268,colour,0.5
168,24,0,2,15,10,710,915.9075553766597,916.510746865184,"[23, 0, 231]",231,a,0.07995223440229893,colour,0.5
168,24,0,2,15,11,711,917.0170031027228,917.6866973918804,"[52, 0, 202]",202,l,0.14633451828558464,colour,0.5
168,24,0,2,15,12,712,918.2046256379399,919.1106918843434,"[64, 0, 190]",190,l,0.38275491853710264,colour,0.5
168,24,0,2,15,13,713,919.6265741024545,922.5187202695815,"[99, 0, 155]",155,l,2.3696489181456855,colour,0.5
168,24,0,2,15,14,714,923.0331082374469,923.5667442279955,"[34, 0, 220]",220,a,0.010910704950219952,colour,0.5
168,24,0,2,15,15,715,924.079958142087,924.766698463136,"[83, 0, 171]",171,l,0.16336203942773864,colour,0.5
168,24,0,2,15,16,716,925.2831454558473,925.8466975651681,"[77, 0, 177]",177,l,0.040330184405320324,colour,0.5
168,24,0,2,15,17,717,926.3490952972497,926.9026811433869,"[11, 0, 243]",243,a,0.030447810335317627,colour,0.5
168,24,0,2,15,18,718,927.4116946940339,927.9506865910516,"[10, 0, 244]",244,a,0.01572467986261472,colour,0.5
168,24,0,2,15,19,719,928.4586599954491,928.9987093679374,"[50, 0, 204]",204,a,0.016734106160583906,colour,0.5
168,24,0,2,15,20,720,929.5055496785062,930.054754779907,"[25, 0, 229]",229,l,0.025914647354511544,colour,0.5
168,24,0,2,15,21,721,930.5681825521751,931.3666793222365,"[42, 0, 212]",212,l,0.27519095603202004,colour,0.5
168,24,0,2,15,22,722,931.880943228738,932.4386951737397,"[69, 0, 185]",185,l,0.03459854923130479,colour,0.5
168,24,0,2,15,23,723,932.9589671950234,933.5666969665326,"[27, 0, 227]",227,a,0.08435660987743177,colour,0.5
168,24,0,2,15,24,724,934.0841171517386,934.8867288207548,"[92, 0, 162]",162,l,0.27952601468132343,colour,0.5
168,24,0,2,15,25,725,935.3989435485419,936.2626824194449,"[24, 0, 230]",230,a,0.3404956783342641,colour,0.5
168,24,0,2,15,26,726,936.7740342314937,937.6386872180592,"[9, 0, 245]",245,a,0.3413534740684554,colour,0.5
168,24,0,2,15,27,727,938.1491627236246,938.742660096279,"[33, 0, 221]",221,a,0.07046567517681979,colour,0.5
168,24,0,2,15,28,728,939.2586289604224,939.8147330553911,"[37, 0, 217]",217,a,0.032819548607221805,colour,0.5
168,24,0,2,15,29,729,940.3211810957291,940.9666617567273,"[53, 0, 201]",201,a,0.12216854543657973,colour,0.5
168,24,0,2,15,30,730,941.4774751818186,942.1027322645386,"[59, 0, 195]",195,l,0.1019465425342787,colour,0.5
168,24,0,2,15,31,731,942.6182044893649,943.1427398894011,"[70, 0, 184]",184,l,0.001277241317438893,colour,0.5
168,24,0,2,15,32,732,943.665189483072,944.2547255565732,"[40, 0, 214]",214,l,0.06632045011792798,colour,0.5
168,24,0,2,15,33,733,944.7746698983101,945.3906802737765,"[19, 0, 235]",235,a,0.09332644366077147,colour,0.5
168,24,0,2,15,34,734,945.8997564458841,946.438686902984,"[22, 0, 232]",232,l,0.015929479588521644,colour,0.5
168,24,0,2,15,35,735,946.9467142642243,949.6066833237128,"[13, 0, 241]",241,l,2.1367534361052094,colour,0.5
168,24,0,2,15,36,736,950.1188098300772,950.7506441345031,"[2, 0, 252]",252,a,0.10854542575543746,colour,0.5
168,24,0,2,15,37,737,951.2595351991622,951.8226753459749,"[48, 0, 206]",206,l,0.03986584043013863,colour,0.5
168,24,0,2,15,38,738,952.3378502173728,952.9027035925828,"[35, 0, 219]",219,a,0.04172833632037509,colour,0.5
168,24,0,2,15,39,739,953.4159624050808,954.1027019384346,"[94, 0, 160]",160,l,0.16371334971336182,colour,0.5
168,24,0,2,15,40,740,954.6192217925854,955.2066582751286,"[95, 0, 159]",159,l,0.06428781291469932,colour,0.5
168,24,0,2,15,41,741,955.7006296803593,956.3026534166565,"[62, 0, 192]",192,a,0.07871043919294607,colour,0.5
168,24,0,2,15,42,742,956.8100730741135,957.3826414910145,"[14, 0, 240]",240,a,0.04931852895242628,colour,0.5
168,24,0,2,15,43,743,957.8977001779422,958.4547006655193,"[31, 0, 223]",223,a,0.033755325770471245,colour,0.5
168,24,0,2,15,44,744,958.9759033439914,959.5346781060507,"[18, 0, 236]",236,a,0.03551384643651545,colour,0.5
168,24,0,2,15,45,745,960.0540765777696,960.6146409742796,"[63, 0, 191]",191,l,0.037319234703318216,colour,0.5
168,24,0,2,15,46,746,961.1323659960035,961.7026792529214,"[90, 0, 164]",164,l,0.047194913393468596,colour,0.5
168,24,0,2,15,47,747,962.2105360790156,962.7426569455129,"[32, 0, 222]",222,l,0.008900910805095918,colour,0.5
168,24,0,2,15,48,748,963.2481341564271,964.1186491410626,"[72, 0, 182]",182,l,0.3472631274635205,colour,0.5
168,24,0,2,15,49,749,964.6396619859443,965.166624656471,"[29, 0, 225]",225,a,0.004470935367862694,colour,0.5
168,24,0,2,15,50,750,965.6858596822713,966.2467123737733,"[67, 0, 187]",187,l,0.0382778549392242,colour,0.5
168,24,0,2,16,1,751,971.7948785104527,972.59867565475,"[75, 0, 179]",179,l,0.29039300278236624,colour,0.5
168,24,0,2,16,2,752,973.113252274663,974.0226000426919,"[47, 0, 207]",207,a,0.3861471107811667,colour,0.5
168,24,0,2,16,3,753,974.5352342160477,975.2866286264325,"[0, 0, 254]",254,a,0.22812364861601964,colour,0.5
168,24,0,2,16,4,754,975.8009228590381,976.4786468725215,"[52, 0, 202]",202,l,0.15437645181373227,colour,0.5
168,24,0,2,16,5,755,976.9885938372609,977.6306188968738,"[30, 0, 224]",224,a,0.11913278346764855,colour,0.5
168,24,0,2,16,6,756,978.1448993448867,978.950590492721,"[65, 0, 189]",189,l,0.2824018753308337,colour,0.5
168,24,0,2,16,7,757,979.4575013016583,979.998619571139,"[79, 0, 175]",175,l,0.017842387707787566,colour,0.5
168,24,0,2,16,8,758,980.5199998739699,981.0866413082695,"[23, 0, 231]",231,a,0.04330608184682205,colour,0.5
168,24,0,2,16,9,759,981.5982916552748,982.1746055439289,"[48, 0, 206]",206,a,0.05312859137484338,colour,0.5
168,24,0,2,16,10,760,982.6920627506333,983.302638450521,"[49, 0, 205]",205,a,0.08803749094658997,colour,0.5
168,24,0,2,16,11,761,983.8171808058542,984.614630340453,"[40, 0, 214]",214,a,0.27424454504216556,colour,0.5
168,24,0,2,16,12,762,985.1285594781803,985.9746111365384,"[2, 0, 252]",252,a,0.32271827514341567,colour,0.5
168,24,0,2,16,13,763,986.4881216163776,987.0786769623228,"[77, 0, 177]",177,l,0.06732042413204908,colour,0.5
168,24,0,2,16,14,764,987.5975717055117,988.1666443487484,"[97, 0, 157]",157,l,0.04591491517203394,colour,0.5
168,24,0,2,16,15,765,988.6758055915125,989.270604230056,"[59, 0, 195]",195,l,0.07158340900787152,colour,0.5
168,24,0,2,16,16,766,989.7857889475999,990.4066369287029,"[7, 0, 247]",247,a,0.09756658550759312,colour,0.5
168,24,0,2,16,17,767,990.9281125421694,991.5426243350958,"[51, 0, 203]",203,a,0.0912804157123901,colour,0.5
168,24,0,2,16,18,768,992.0542073345132,992.6066053422837,"[20, 0, 234]",234,a,0.027510115920449607,colour,0.5
168,24,0,2,16,19,769,993.1183403661125,993.6705875310145,"[63, 0, 191]",191,l,0.028968132377485745,colour,0.5
168,24,0,2,16,20,770,994.1809027413983,994.7106321773463,"[66, 0, 188]",188,l,0.006468520310590975,colour,0.5
168,24,0,2,16,21,771,995.227900732003,995.8226068168442,"[56, 0, 198]",198,l,0.07142429539817385,colour,0.5
168,24,0,2,16,22,772,996.3373287657741,996.9745878996473,"[72, 0, 182]",182,l,0.11398167672450654,colour,0.5
168,24,0,2,16,23,773,997.4937303717161,998.0705779211712,"[25, 0, 229]",229,l,0.053626806067768484,colour,0.5
168,24,0,2,16,24,774,998.5873821318528,999.9665821999079,"[19, 0, 235]",235,a,0.8557497126894305,colour,0.5
168,24,0,2,16,25,775,1000.4782908360794,1001.022597679621,"[84, 0, 170]",170,l,0.021040414067101665,colour,0.5
168,24,0,2,16,26,776,1001.5408390329394,1002.1345951621624,"[43, 0, 211]",211,l,0.07078862858179491,colour,0.5
168,24,0,2,16,27,777,1002.6503808880952,1003.2146048980212,"[35, 0, 219]",219,a,0.04090007899503689,colour,0.5
168,24,0,2,16,28,778,1003.7286116233299,1004.3026321489888,"[62, 0, 192]",192,l,0.05078914844489191,colour,0.5
168,24,0,2,16,29,779,1004.824241669965,1005.3666013408074,"[31, 0, 223]",223,l,0.019066459863097407,colour,0.5
168,24,0,2,16,30,780,1005.8867697807,1006.4145756746875,"[87, 0, 167]",167,l,0.004420916986418888,colour,0.5
168,24,0,2,16,31,781,1006.9337724974466,1007.4626126299991,"[8, 0, 246]",246,a,0.0024926488695200533,colour,0.5
168,24,0,2,16,32,782,1007.9855230230314,1008.5666079574148,"[94, 0, 160]",160,l,0.057722012730664574,colour,0.5
168,24,0,2,16,33,783,1009.0793449244811,1009.646574764105,"[9, 0, 245]",245,a,0.042819682508707047,colour,0.5
168,24,0,2,16,34,784,1010.1586717320461,1011.0305632071104,"[93, 0, 161]",161,l,0.3485616364487214,colour,0.5
168,24,0,2,16,35,785,1011.5494559810613,1012.4385880477348,"[16, 0, 238]",238,a,0.36641268875973765,colour,0.5
168,24,0,2,16,36,786,1012.9557671994407,1013.6866107458482,"[90, 0, 164]",164,l,0.20762477225798648,colour,0.5
168,24,0,2,16,37,787,1014.2058749162097,1014.774574193827,"[34, 0, 220]",220,a,0.04357310917112045,colour,0.5
168,24,0,2,16,38,788,1015.2858700797951,1015.8229766378645,"[53, 0, 201]",201,l,0.013833039382006973,colour,0.5
168,24,0,2,16,39,789,1016.3328318365966,1016.8946427544724,"[5, 0, 249]",249,a,0.03872605123615358,colour,0.5
168,24,0,2,16,40,790,1017.4110444549297,1017.9425887314574,"[91, 0, 163]",163,l,0.008228222504840232,colour,0.5
168,24,0,2,16,41,791,1018.4580901008449,1018.9905965421931,"[78, 0, 176]",176,l,0.009289242574595846,colour,0.5
168,24,0,2,16,42,792,1019.505007353102,1020.3345261604118,"[81, 0, 173]",173,l,0.3063012147031259,colour,0.5
168,24,0,2,16,43,793,1020.8487995191972,1021.4145362901181,"[4, 0, 250]",250,a,0.04242347383114975,colour,0.5
168,24,0,2,16,44,794,1021.9269948083238,1022.4705773697933,"[76, 0, 178]",178,l,0.020203886000672355,colour,0.5
168,24,0,2,16,45,795,1022.9896666727145,1023.5746128694591,"[74, 0, 180]",180,l,0.06171993953466881,colour,0.5
168,24,0,2,16,46,796,1024.0834161065577,1024.6545989745937,"[82, 0, 172]",172,l,0.04800899229303468,colour,0.5
168,24,0,2,16,47,797,1025.161590128031,1025.7026063914818,"[24, 0, 230]",230,a,0.01768800022546202,colour,0.5
168,24,0,2,16,48,798,1026.22420803555,1026.750573242287,"[6, 0, 248]",248,a,0.003037337344721891,colour,0.5
168,24,0,2,16,49,799,1027.271212327687,1027.7985881422646,"[29, 0, 225]",225,a,0.004092055911314674,colour,0.5
168,24,0,2,16,50,800,1028.318146515303,1028.8865964886354,"[12, 0, 242]",242,a,0.045188270014477894,colour,0.5
