id,age,condition,counterbalance,block,trialinblock,trial,tstart,tend,trialstim,trialintensity,response,RT,trialtype,colourfreq
032,66,1,1,Practice,1,NA,5.120178684592247e-06,2.0824591268319637,"[79, 0, 175]",175,a,1.4407092535402626,colour,0.5
032,66,1,1,Practice,2,NA,2.602346770465374,3.346371340099722,"[20, 0, 234]",234,a,0.22716441960074008,colour,0.5
032,66,1,1,Practice,3,NA,3.870262427488342,4.5623859816696495,"[76, 0, 178]",178,a,0.17286724550649524,colour,0.5
032,66,1,1,Practice,4,NA,5.070977730443701,6.338377843378112,"[31, 0, 223]",223,a,0.7507636672817171,colour,0.5
032,66,1,1,Practice,5,NA,6.8527508564293385,7.578413147712126,"[54, 0, 200]",200,a,0.20875409222207963,colour,0.5
032,66,1,1,Practice,6,NA,8.089206101372838,8.834381882566959,"[25, 0, 229]",229,a,0.2136716521345079,colour,0.5
032,66,1,1,Practice,7,NA,9.353296726709232,11.050406370311975,"[89, 0, 165]",165,l,1.1787879313342273,colour,0.5
032,66,1,1,Practice,8,NA,11.571368819568306,12.810533724259585,"[49, 0, 205]",205,a,0.7073157667182386,colour,0.5
032,66,1,1,Practice,9,NA,13.334998645354062,15.370383732020855,"[82, 0, 172]",172,l,1.5058616087771952,colour,0.5
032,66,1,1,Practice,10,NA,15.886388448765501,16.426383895799518,"[29, 0, 225]",225,a,0.019535545259714127,colour,0.5
032,66,1,1,1,1,1,5.253249228931963,6.423949928022921,"[35, 0, 219]",219,a,0.6465996918268502,colour,0.5
032,66,1,1,1,2,2,6.9416150990873575,7.976032112725079,"[45, 0, 209]",209,a,0.5073932756204158,colour,0.5
032,66,1,1,1,3,3,8.495093861361966,9.23198863840662,"[18, 0, 236]",236,a,0.21359445829875767,colour,0.5
032,66,1,1,1,4,4,9.745220286073163,11.98399961576797,"[76, 0, 178]",178,l,1.7155534480698407,colour,0.5
032,66,1,1,1,5,5,12.49343852698803,13.255984094925225,"[98, 0, 156]",156,l,0.2151403035968542,colour,0.5
032,66,1,1,1,6,6,13.764796003699303,14.344037015223876,"[12, 0, 242]",242,a,0.060492764227092266,colour,0.5
032,66,1,1,1,7,7,14.85594888520427,15.62398939137347,"[66, 0, 188]",188,a,0.2447965075261891,colour,0.5
032,66,1,1,1,8,8,16.137076497543603,16.9119754366111,"[9, 0, 245]",245,a,0.2514347806572914,colour,0.5
032,66,1,1,1,9,9,17.409313825890422,18.37603935948573,"[70, 0, 184]",184,a,0.44335432280786335,colour,0.5
032,66,1,1,1,10,10,18.893736826023087,19.575983512215316,"[0, 0, 254]",254,a,0.15892273699864745,colour,0.5
032,66,1,1,1,11,11,20.09685143828392,20.847947117639706,"[59, 0, 195]",195,a,0.22773707169108093,colour,0.5
032,66,1,1,1,12,12,21.362567072035745,21.943965177750215,"[60, 0, 194]",194,a,0.058176162419840693,colour,0.5
032,66,1,1,1,13,13,22.445197915425524,23.04796255636029,"[34, 0, 220]",220,a,0.07125027175061405,colour,0.5
032,66,1,1,1,14,14,23.55808321502991,24.335953327827156,"[46, 0, 208]",208,a,0.25468676653690636,colour,0.5
032,66,1,1,1,15,15,24.854952061083168,25.5200006775558,"[40, 0, 214]",214,a,0.14178177481517196,colour,0.5
032,66,1,1,1,16,16,26.014337960863486,26.903971306048334,"[72, 0, 182]",182,a,0.36627906979992986,colour,0.5
032,66,1,1,1,17,17,27.42237336281687,28.160129874711856,"[4, 0, 250]",250,a,0.2248592395335436,colour,0.5
032,66,1,1,1,18,18,28.67922746343538,29.319943884853274,"[57, 0, 197]",197,a,0.11730503826402128,colour,0.5
032,66,1,1,1,19,19,29.838022594340146,30.60809889016673,"[29, 0, 225]",225,a,0.24694099882617593,colour,0.5
032,66,1,1,1,20,20,31.11928214505315,31.991955697070807,"[74, 0, 180]",180,l,0.3494256150443107,colour,0.5
032,66,1,1,1,21,21,32.5042964653112,33.216002826346084,"[30, 0, 224]",224,a,0.19101999793201685,colour,0.5
032,66,1,1,1,22,22,33.73689910932444,34.375963740982115,"[55, 0, 199]",199,a,0.11587970983237028,colour,0.5
032,66,1,1,1,23,23,34.893126364797354,35.50400620070286,"[64, 0, 190]",190,a,0.08747554197907448,colour,0.5
032,66,1,1,1,24,24,36.02018617885187,36.791946559911594,"[28, 0, 226]",226,a,0.24843209935352206,colour,0.5
032,66,1,1,1,25,25,37.30216213548556,37.95995532232337,"[20, 0, 234]",234,a,0.14755240525119007,colour,0.5
032,66,1,1,1,26,26,38.46439199661836,39.11997334449552,"[92, 0, 162]",162,l,0.1323905186727643,colour,0.5
032,66,1,1,1,27,27,39.637111549964175,40.424019638914615,"[83, 0, 171]",171,l,0.26374955498613417,colour,0.5
032,66,1,1,1,28,28,40.933924863813445,41.56794747989625,"[63, 0, 191]",191,a,0.11065967613831162,colour,0.5
032,66,1,1,1,29,29,42.07454124838114,42.687963359756395,"[91, 0, 163]",163,l,0.09704757342115045,colour,0.5
032,66,1,1,1,30,30,43.206599754979834,43.863979797344655,"[95, 0, 159]",159,l,0.130283443024382,colour,0.5
032,66,1,1,1,31,31,44.3730414044112,45.36795961041935,"[78, 0, 176]",176,a,0.47167775221168995,colour,0.5
032,66,1,1,1,32,32,45.89117328287102,46.48797430866398,"[24, 0, 230]",230,a,0.07349125505425036,colour,0.5
032,66,1,1,1,33,33,47.00044031976722,47.6159517839551,"[3, 0, 251]",251,a,0.08060214319266379,colour,0.5
032,66,1,1,1,34,34,48.12332261027768,48.655988584971055,"[33, 0, 221]",221,a,0.009304216131567955,colour,0.5
032,66,1,1,1,35,35,49.17025841027498,49.71223687171005,"[54, 0, 200]",200,a,0.018329195445403457,colour,0.5
032,66,1,1,1,36,36,50.23262903187424,50.823940633330494,"[94, 0, 160]",160,l,0.06795456912368536,colour,0.5
032,66,1,1,1,37,37,51.34210165636614,51.879986877087504,"[22, 0, 232]",232,a,0.014591991435736418,colour,0.5
032,66,1,1,1,38,38,52.38894096412696,53.00794308469631,"[99, 0, 155]",155,l,0.10150275845080614,colour,0.5
032,66,1,1,1,39,39,53.51869310904294,54.05596235464327,"[25, 0, 229]",229,a,0.02206088532693684,colour,0.5
032,66,1,1,1,40,40,54.5731627875939,55.18394888844341,"[51, 0, 203]",203,a,0.08757597301155329,colour,0.5
032,66,1,1,1,41,41,55.69812773540616,56.24001836916432,"[17, 0, 237]",237,a,0.018581256736069918,colour,0.5
032,66,1,1,1,42,42,56.7607259999495,83.67193461861461,"[48, 0, 206]",206,a,26.388124521588907,colour,0.5
032,66,1,1,1,43,43,84.18132744985633,84.99991926178336,"[37, 0, 217]",217,a,0.28718063049018383,colour,0.5
032,66,1,1,1,44,44,85.5228225835599,86.18396424828097,"[43, 0, 211]",211,a,0.1291542868129909,colour,0.5
032,66,1,1,1,45,45,86.69617347186431,90.99993540928699,"[67, 0, 187]",187,l,3.7864748584106565,colour,0.5
032,66,1,1,1,46,46,91.51072363671847,92.71997043024749,"[38, 0, 216]",216,a,0.6915170315187424,colour,0.5
032,66,1,1,1,47,47,93.22535351617262,93.94395730085671,"[93, 0, 161]",161,l,0.18867464549839497,colour,0.5
032,66,1,1,1,48,48,94.46535810059868,95.02395646600053,"[62, 0, 192]",192,a,0.035330736078321934,colour,0.5
032,66,1,1,1,49,49,95.54352982062846,97.1199697998818,"[27, 0, 227]",227,a,1.0532416668720543,colour,0.5
032,66,1,1,1,50,50,97.63821510621347,98.24791419203393,"[56, 0, 198]",198,a,0.0975772961974144,colour,0.5
032,66,1,1,2,1,51,104.0359762494918,105.76792156486772,"[72, 0, 182]",182,a,1.2142049195244908,colour,0.5
032,66,1,1,2,2,52,106.27848018007353,107.56795614445582,"[84, 0, 170]",170,l,0.7594156742561609,colour,0.5
032,66,1,1,2,3,53,108.08404593192972,108.75992452353239,"[87, 0, 167]",167,l,0.15835953736677766,colour,0.5
032,66,1,1,2,4,54,109.27368707535788,110.19192269281484,"[79, 0, 175]",175,l,0.40143454424105585,colour,0.5
032,66,1,1,2,5,55,110.71052049100399,111.9999078400433,"[76, 0, 178]",178,a,0.7714634211733937,colour,0.5
032,66,1,1,2,6,56,112.5143103916198,113.17594200070016,"[19, 0, 235]",235,a,0.13823755527846515,colour,0.5
032,66,1,1,2,7,57,113.68497761385515,114.27196833165362,"[43, 0, 211]",211,a,0.058657048270106316,colour,0.5
032,66,1,1,2,8,58,114.78116975398734,115.31988205108792,"[53, 0, 201]",201,a,0.020182634238153696,colour,0.5
032,66,1,1,2,9,59,115.83168915798888,116.83990281471051,"[86, 0, 168]",168,l,0.4907907007727772,colour,0.5
032,66,1,1,2,10,60,117.3619920569472,117.9199307304807,"[17, 0, 237]",237,a,0.03821644512936473,colour,0.5
032,66,1,1,2,11,61,118.42921682959422,119.04791096248664,"[88, 0, 166]",166,l,0.10111285094171762,colour,0.5
032,66,1,1,2,12,62,119.55736680934206,120.18412257428281,"[26, 0, 228]",228,a,0.09487196849659085,colour,0.5
032,66,1,1,2,13,63,120.70031318627298,121.39989263773896,"[35, 0, 219]",219,a,0.18249402148649096,colour,0.5
032,66,1,1,2,14,64,121.92125208349898,122.60793938254938,"[67, 0, 187]",187,a,0.16708755679428577,colour,0.5
032,66,1,1,2,15,65,123.12491256627254,123.88798194937408,"[91, 0, 163]",163,l,0.24537427979521453,colour,0.5
032,66,1,1,2,16,66,124.40264522680081,125.37590387649834,"[5, 0, 249]",249,a,0.45513504184782505,colour,0.5
032,66,1,1,2,17,67,125.88793508172967,126.50392073625699,"[59, 0, 195]",195,a,0.09837798494845629,colour,0.5
032,66,1,1,2,18,68,127.01687354082242,127.70393459964544,"[12, 0, 242]",242,a,0.1553863943554461,colour,0.5
032,66,1,1,2,19,69,128.22296444675885,128.86394828977063,"[40, 0, 214]",214,a,0.12405476975254714,colour,0.5
032,66,1,1,2,20,70,129.38162803300656,130.27187341474928,"[90, 0, 164]",164,l,0.37354867765679955,colour,0.5
032,66,1,1,2,21,71,130.78866858035326,131.36788911209442,"[20, 0, 234]",234,a,0.06216621561907232,colour,0.5
032,66,1,1,2,22,72,131.88598003052175,132.4879479210358,"[14, 0, 240]",240,a,0.08403963036835194,colour,0.5
032,66,1,1,2,23,73,132.99415768962353,133.6239173177164,"[96, 0, 158]",158,l,0.10813000379130244,colour,0.5
032,66,1,1,2,24,74,134.14249739283696,134.87988959718496,"[39, 0, 215]",215,a,0.20891478122211993,colour,0.5
032,66,1,1,2,25,75,135.38943839166313,136.31186846806668,"[52, 0, 202]",202,a,0.39073887071572244,colour,0.5
032,66,1,1,2,26,76,136.8266116962768,137.40788455912843,"[50, 0, 204]",204,a,0.0636963068973273,colour,0.5
032,66,1,1,2,27,77,137.92313584848307,138.88789412169717,"[23, 0, 231]",231,a,0.43378386669792235,colour,0.5
032,66,1,1,2,28,78,139.40628554462455,140.15192133793607,"[21, 0, 233]",233,a,0.22748343483544886,colour,0.5
032,66,1,1,2,29,79,140.67598532373086,141.3999020899646,"[8, 0, 246]",246,a,0.2045978361275047,colour,0.5
032,66,1,1,2,30,80,141.91499938559718,142.58390060276724,"[0, 0, 254]",254,a,0.1514447843655944,colour,0.5
032,66,1,1,2,31,81,143.09013675921597,144.239857285982,"[81, 0, 173]",173,l,0.6366700483486056,colour,0.5
032,66,1,1,2,32,82,144.75109213474207,145.77590245869942,"[4, 0, 250]",250,a,0.4924783306196332,colour,0.5
032,66,1,1,2,33,83,146.29621033580042,146.89586753235199,"[41, 0, 213]",213,a,0.08106688130646944,colour,0.5
032,66,1,1,2,34,84,147.40998336393386,148.22390573867597,"[58, 0, 196]",196,a,0.2829140976537019,colour,0.5
032,66,1,1,2,35,85,148.73908574180678,149.30390057130717,"[34, 0, 220]",220,a,0.032639193115755916,colour,0.5
032,66,1,1,2,36,86,149.82123254868202,150.39990957314149,"[18, 0, 236]",236,a,0.046436797361820936,colour,0.5
032,66,1,1,2,37,87,150.9181355808396,151.5359171726741,"[9, 0, 245]",245,a,0.08464339608326554,colour,0.5
032,66,1,1,2,38,88,152.04581176373176,153.01587514136918,"[83, 0, 171]",171,l,0.4515939732082188,colour,0.5
032,66,1,1,2,39,89,153.53386838617735,154.4399073831737,"[78, 0, 176]",176,l,0.38923280383460224,colour,0.5
032,66,1,1,2,40,90,154.9574863021262,155.94424520223401,"[49, 0, 205]",205,a,0.463261658558622,colour,0.5
032,66,1,1,2,41,91,156.4575564067345,157.3439015322365,"[51, 0, 203]",203,a,0.36306961928494275,colour,0.5
032,66,1,1,2,42,92,157.86389551428147,158.80790992290713,"[54, 0, 200]",200,a,0.42073260084725916,colour,0.5
032,66,1,1,2,43,93,159.32164845010266,160.49600088852458,"[85, 0, 169]",169,l,0.6510111598763615,colour,0.5
032,66,1,1,2,44,94,161.00920220999978,161.9839035172481,"[15, 0, 239]",239,a,0.45141004701144993,colour,0.5
032,66,1,1,2,45,95,162.49354841001332,163.47190066892654,"[32, 0, 222]",222,a,0.45511377416551113,colour,0.5
032,66,1,1,2,46,96,163.99253977066837,164.95185351767577,"[70, 0, 184]",184,l,0.4412094377912581,colour,0.5
032,66,1,1,2,47,97,165.47560636536218,166.18386814999394,"[57, 0, 197]",197,a,0.17593569913879037,colour,0.5
032,66,1,1,2,48,98,166.69618371198885,167.57586969062686,"[36, 0, 218]",218,a,0.3474110933020711,colour,0.5
032,66,1,1,2,49,99,168.09895772626624,168.74387530214153,"[31, 0, 223]",223,a,0.12725161714479327,colour,0.5
032,66,1,1,2,50,100,169.25838852440938,170.24802131811157,"[99, 0, 155]",155,l,0.4702165836934,colour,0.5
032,66,1,1,3,1,101,176.05986379249953,177.75988986506127,"[3, 0, 251]",251,a,1.1818894678726792,colour,0.5
032,66,1,1,3,2,102,178.27562755416147,179.7600757603068,"[82, 0, 172]",172,l,0.9677932497579604,colour,0.5
032,66,1,1,3,3,103,180.27252050372772,180.87987738801166,"[8, 0, 246]",246,a,0.07536793081089854,colour,0.5
032,66,1,1,3,4,104,181.39975361013785,182.35990861197934,"[47, 0, 207]",207,a,0.4432645256165415,colour,0.5
032,66,1,1,3,5,105,182.87495510163717,183.4798823504243,"[45, 0, 209]",209,a,0.0880670987535268,colour,0.5
032,66,1,1,3,6,106,183.98901760648005,185.0078784939833,"[95, 0, 159]",159,l,0.500535236671567,colour,0.5
032,66,1,1,3,7,107,185.52416599192657,186.38386035175063,"[83, 0, 171]",171,l,0.3363987673074007,colour,0.5
032,66,1,1,3,8,108,186.89913093973882,187.4398514572531,"[13, 0, 241]",241,a,0.01737687597051263,colour,0.5
032,66,1,1,3,9,109,187.94659843156114,188.71187689644285,"[22, 0, 232]",232,a,0.2419462448451668,colour,0.5
032,66,1,1,3,10,110,189.22280297009274,189.8878555248957,"[20, 0, 234]",234,a,0.14177429163828492,colour,0.5
032,66,1,1,3,11,111,190.39468638855033,190.95187439164147,"[25, 0, 229]",229,a,0.03399559832178056,colour,0.5
032,66,1,1,3,12,112,191.47274980088696,192.0638558147475,"[9, 0, 245]",245,a,0.06787225534208119,colour,0.5
032,66,1,1,3,13,113,192.5820904870052,193.16790951322764,"[48, 0, 206]",206,a,0.07168074534274638,colour,0.5
032,66,1,1,3,14,114,193.6823506616056,194.8644161785487,"[71, 0, 183]",183,l,0.6583733216393739,colour,0.5
032,66,1,1,3,15,115,195.38540107710287,196.367880447302,"[41, 0, 213]",213,a,0.4592944486066699,colour,0.5
032,66,1,1,3,16,116,196.88576774764806,197.951858243905,"[79, 0, 175]",175,l,0.5425440240651369,colour,0.5
032,66,1,1,3,17,117,198.46387605834752,199.31190036959015,"[49, 0, 205]",205,a,0.33001019270159304,colour,0.5
032,66,1,1,3,18,118,199.8179967107717,200.78386799246073,"[88, 0, 166]",166,l,0.44277261244133115,colour,0.5
032,66,1,1,3,19,119,201.30235118139535,202.255852550501,"[81, 0, 173]",173,l,0.4303459858056158,colour,0.5
032,66,1,1,3,20,120,202.77193839941174,203.8158939674031,"[73, 0, 181]",181,a,0.5208190893754363,colour,0.5
032,66,1,1,3,21,121,204.33127877046354,204.95193071151152,"[31, 0, 223]",223,a,0.1025287271477282,colour,0.5
032,66,1,1,3,22,122,205.46699689351954,206.29585626837797,"[74, 0, 180]",180,l,0.29742574435658753,colour,0.5
032,66,1,1,3,23,123,206.80834906105883,207.4318528403528,"[19, 0, 235]",235,a,0.1059673959389329,colour,0.5
032,66,1,1,3,24,124,207.94308453821577,208.95195119152777,"[98, 0, 156]",156,l,0.47734322561882436,colour,0.5
032,66,1,1,3,25,125,209.4719290258363,210.11991544929333,"[61, 0, 193]",193,a,0.12892191763967276,colour,0.5
032,66,1,1,3,26,126,210.63320577982813,211.40794363594614,"[35, 0, 219]",219,a,0.2558147411327809,colour,0.5
032,66,1,1,3,27,127,211.92074402235448,212.58387697208673,"[14, 0, 240]",240,a,0.14419644395820796,colour,0.5
032,66,1,1,3,28,128,213.09826337592676,213.68790073832497,"[12, 0, 242]",242,a,0.0646710756700486,colour,0.5
032,66,1,1,3,29,129,214.19002238637768,215.09590817731805,"[2, 0, 252]",252,a,0.3867980483919382,colour,0.5
032,66,1,1,3,30,130,215.61250720755197,216.3278562494088,"[52, 0, 202]",202,a,0.19224328338168561,colour,0.5
032,66,1,1,3,31,131,216.84664309374057,217.4318906494882,"[39, 0, 215]",215,a,0.06235289853066206,colour,0.5
032,66,1,1,3,32,132,217.92836021468975,218.5759267983958,"[28, 0, 226]",226,a,0.12504529231227934,colour,0.5
032,66,1,1,3,33,133,219.07294184016064,219.83993471623398,"[54, 0, 200]",200,a,0.2431277825962752,colour,0.5
032,66,1,1,3,34,134,220.35402612946928,221.29585154214874,"[51, 0, 203]",203,a,0.4156846774276346,colour,0.5
032,66,1,1,3,35,135,221.81021628458984,222.48793610557914,"[11, 0, 243]",243,a,0.15475309011526406,colour,0.5
032,66,1,1,3,36,136,222.99138934677467,224.03194090421312,"[72, 0, 182]",182,l,0.5175804940517992,colour,0.5
032,66,1,1,3,37,137,224.5424321719911,225.16791857173666,"[17, 0, 237]",237,a,0.10687718004919589,colour,0.5
032,66,1,1,3,38,138,225.68853522418067,226.69608800741844,"[77, 0, 177]",177,l,0.4843304462265223,colour,0.5
032,66,1,1,3,39,139,227.20428866706789,227.79987192130648,"[43, 0, 211]",211,a,0.07244913862086833,colour,0.5
032,66,1,1,3,40,140,228.31340486113913,229.32789760339074,"[87, 0, 167]",167,l,0.4910057408269495,colour,0.5
032,66,1,1,3,41,141,229.85165045084432,230.47335080965422,"[38, 0, 216]",216,a,0.097918760497123,colour,0.5
032,66,1,1,3,42,142,230.99626240227371,231.99988460331224,"[96, 0, 158]",158,l,0.4801044794730842,colour,0.5
032,66,1,1,3,43,143,232.51208594976924,233.49587919027545,"[63, 0, 191]",191,a,0.47113700164482,colour,0.5
032,66,1,1,3,44,144,234.00159862078726,234.7678593371529,"[53, 0, 201]",201,a,0.24003451666794717,colour,0.5
032,66,1,1,3,45,145,235.29023648099974,236.33585565397516,"[0, 0, 254]",254,a,0.5286018785554916,colour,0.5
032,66,1,1,3,46,146,236.84808456990868,237.84783329605125,"[90, 0, 164]",164,l,0.4822603918146342,colour,0.5
032,66,1,1,3,47,147,238.362667896552,239.0558469579555,"[68, 0, 186]",186,a,0.17583172395825386,colour,0.5
032,66,1,1,3,48,148,239.56752252019942,240.5438760111574,"[59, 0, 195]",195,a,0.443321633618325,colour,0.5
032,66,1,1,3,49,149,241.05880946689285,241.76787745417096,"[58, 0, 196]",196,a,0.1903654260095209,colour,0.5
032,66,1,1,3,50,150,242.28074833890423,243.23185591236688,"[60, 0, 194]",194,a,0.42095591127872467,colour,0.5
032,66,1,1,4,1,151,249.22517116554081,250.30409040511586,"[83, 0, 171]",171,l,0.5505690285935998,colour,0.5
032,66,1,1,4,2,152,250.82243496039882,252.1198697630316,"[62, 0, 192]",192,a,0.779262358089909,colour,0.5
032,66,1,1,4,3,153,252.63455982203595,253.35985701833852,"[54, 0, 200]",200,a,0.1909861273597926,colour,0.5
032,66,1,1,4,4,154,253.87170508503914,254.43184811412357,"[29, 0, 225]",225,a,0.0416700798086822,colour,0.5
032,66,1,1,4,5,155,254.95437807007693,257.5038482686505,"[2, 0, 252]",252,a,2.0237796290311962,colour,0.5
032,66,1,1,4,6,156,258.00868745334446,258.83185417950153,"[86, 0, 168]",168,l,0.2997884261421859,colour,0.5
032,66,1,1,4,7,157,259.35251218569465,260.04784637177363,"[70, 0, 184]",184,a,0.171008292818442,colour,0.5
032,66,1,1,4,8,158,260.556621652795,261.19189039757475,"[23, 0, 231]",231,a,0.1120948507450521,colour,0.5
032,66,1,1,4,9,159,261.71283827442676,262.255803713575,"[37, 0, 217]",217,a,0.019865588285028934,colour,0.5
032,66,1,1,4,10,160,262.77544914209284,263.3118322342634,"[4, 0, 250]",250,a,0.013380127493292093,colour,0.5
032,66,1,1,4,11,161,263.82245307718404,264.40787471295334,"[52, 0, 202]",202,a,0.06241670157760382,colour,0.5
032,66,1,1,4,12,162,264.9290143928956,265.50401604687795,"[60, 0, 194]",194,a,0.027495565125718713,colour,0.5
032,66,1,1,4,13,163,266.02371661388315,266.5758909583092,"[36, 0, 218]",218,a,0.02007590187713504,colour,0.5
032,66,1,1,4,14,164,267.08902611373924,267.6638324202504,"[35, 0, 219]",219,a,0.04217302124015987,colour,0.5
032,66,1,1,4,15,165,268.18449948495254,269.7118698072154,"[72, 0, 182]",182,l,0.9958803716581315,colour,0.5
032,66,1,1,4,16,166,270.2253696639091,270.92782458430156,"[95, 0, 159]",159,l,0.18010692135430872,colour,0.5
032,66,1,1,4,17,167,271.4375045292545,272.11992805241607,"[57, 0, 197]",197,a,0.1635984757449478,colour,0.5
032,66,1,1,4,18,168,272.6363530026283,273.3038564606104,"[28, 0, 226]",226,a,0.14849251531995833,colour,0.5
032,66,1,1,4,19,169,273.82790784328245,274.6239570961334,"[94, 0, 160]",160,l,0.27828443865291774,colour,0.5
032,66,1,1,4,20,170,275.1429979710374,275.7118343610782,"[55, 0, 199]",199,a,0.04016480082646012,colour,0.5
032,66,1,1,4,21,171,276.2345872337464,277.06386959925294,"[78, 0, 176]",176,l,0.2981236393097788,colour,0.5
032,66,1,1,4,22,172,277.57686297013424,278.1518346918747,"[32, 0, 222]",222,a,0.05598204676061869,colour,0.5
032,66,1,1,4,23,173,278.67614286229946,279.3838410533499,"[50, 0, 204]",204,a,0.17532720719464123,colour,0.5
032,66,1,1,4,24,174,279.89716328540817,282.51980454218574,"[20, 0, 234]",234,a,2.1035566648934036,colour,0.5
032,66,1,1,4,25,175,283.04343766067177,283.7758358987048,"[79, 0, 175]",175,l,0.21409109816886485,colour,0.5
032,66,1,1,4,26,176,284.2955530069303,284.9118931228295,"[38, 0, 216]",216,a,0.10405448614619672,colour,0.5
032,66,1,1,4,27,177,285.43560107192025,286.3598125136923,"[26, 0, 228]",228,a,0.391490722540766,colour,0.5
032,66,1,1,4,28,178,286.8670722756069,287.8479758682661,"[49, 0, 205]",205,a,0.45755522488616407,colour,0.5
032,66,1,1,4,29,179,288.3669332480058,288.9518503670115,"[51, 0, 203]",203,a,0.062062240205705166,colour,0.5
032,66,1,1,4,30,180,289.46063628187403,290.10398241248913,"[1, 0, 253]",253,a,0.11885757907293737,colour,0.5
032,66,1,1,4,31,181,290.6180080533959,291.1839441622142,"[5, 0, 249]",249,a,0.042937870137393475,colour,0.5
032,66,1,1,4,32,182,291.6962242780719,292.63980309292674,"[97, 0, 157]",157,l,0.42104098200798035,colour,0.5
032,66,1,1,4,33,183,293.15024040360004,294.21583662345074,"[93, 0, 161]",161,l,0.5422892058268189,colour,0.5
032,66,1,1,4,34,184,294.7310028420761,295.47184159210883,"[84, 0, 170]",170,l,0.22234098869375885,colour,0.5
032,66,1,1,4,35,185,295.9837278618943,297.01585111697204,"[27, 0, 227]",227,a,0.5090659393463284,colour,0.5
032,66,1,1,4,36,186,297.53055299120024,298.59184408118017,"[16, 0, 238]",238,a,0.542907937662676,colour,0.5
032,66,1,1,4,37,187,299.1033195697237,300.73581130686216,"[66, 0, 188]",188,l,1.1093016953673214,colour,0.5
032,66,1,1,4,38,188,301.25261316774413,301.83179352711886,"[25, 0, 229]",229,a,0.056002526776865125,colour,0.5
032,66,1,1,4,39,189,302.34628705703653,303.3038371622097,"[41, 0, 213]",213,a,0.43452272191643715,colour,0.5
032,66,1,1,4,40,190,303.8231545169838,304.4237561558839,"[7, 0, 247]",247,a,0.07725917897187173,colour,0.5
032,66,1,1,4,41,191,304.93140661297366,305.87981082801707,"[82, 0, 172]",172,l,0.42951300158165395,colour,0.5
032,66,1,1,4,42,192,306.397815100383,307.36781625053845,"[53, 0, 201]",201,a,0.4467067392542958,colour,0.5
032,66,1,1,4,43,193,307.8699662552681,308.8718271772377,"[67, 0, 187]",187,a,0.47786861611530185,colour,0.5
032,66,1,1,4,44,194,309.38683270686306,310.0080517861061,"[42, 0, 212]",212,a,0.10813236678950489,colour,0.5
032,66,1,1,4,45,195,310.5173867221456,311.5118551561609,"[73, 0, 181]",181,l,0.4712736662477255,colour,0.5
032,66,1,1,4,46,196,312.03286053449847,313.04786094417796,"[21, 0, 233]",233,a,0.49168000486679375,colour,0.5
032,66,1,1,4,47,197,313.5517690773122,314.463843369158,"[11, 0, 243]",243,a,0.401558605954051,colour,0.5
032,66,1,1,4,48,198,314.97633616183884,315.95199293922633,"[76, 0, 178]",178,l,0.4573929605539888,colour,0.5
032,66,1,1,4,49,199,316.4732326560188,317.0478329809848,"[10, 0, 244]",244,a,0.05136696039699018,colour,0.5
032,66,1,1,4,50,200,317.566949080443,318.151775615057,"[24, 0, 230]",230,a,0.06159120053052902,colour,0.5
032,66,1,1,5,1,201,323.6137927204836,324.75980755127966,"[82, 0, 172]",172,l,0.6220020449254662,colour,0.4
032,66,1,1,5,2,202,325.26613153517246,326.1357874397654,"[59, 0, 195]",195,a,0.32663729623891413,colour,0.4
032,66,1,1,5,3,203,326.64604397537187,327.69607067806646,"[1, 0, 253]",253,a,0.526661399519071,colour,0.4
032,66,1,1,5,4,204,328.20858946465887,329.1757919455413,"[53, 0, 201]",201,a,0.4426780892536044,colour,0.4
032,66,1,1,5,5,205,329.6941042053513,330.41580795147456,"[77, 0, 177]",177,l,0.21094387560151517,colour,0.4
032,66,1,1,5,6,206,330.9316570989322,332.0321039564442,"[71, 0, 183]",183,a,0.5771567788906395,colour,0.4
032,66,1,1,5,7,207,332.54094146518037,333.5918751950376,"[57, 0, 197]",197,a,0.5276759467087686,colour,0.4
032,66,1,1,5,8,208,334.1034452067688,334.6878259074874,"[45, 0, 209]",209,a,0.06116151460446417,colour,0.4
032,66,1,1,5,9,209,335.1874612062238,335.89593803090975,"[10, 0, 244]",244,a,0.19105189945548773,colour,0.4
032,66,1,1,5,10,210,336.4079968051519,337.0477581503801,"[56, 0, 198]",198,a,0.11647874978370965,colour,0.4
032,66,1,1,5,11,211,337.55703007103875,338.1197984770406,"[14, 0, 240]",240,a,0.03838422358967364,colour,0.4
032,66,1,1,5,12,212,338.63894529640675,339.21579684480093,"[51, 0, 203]",203,a,0.05353902047500014,colour,0.4
032,66,1,1,5,13,213,339.732712920988,340.27183048566803,"[52, 0, 202]",202,a,0.0229647618252784,colour,0.4
032,66,1,1,5,14,214,340.7880679653026,341.4158075575251,"[48, 0, 206]",206,a,0.10443179053254426,colour,0.4
032,66,1,1,5,15,215,341.92866938374937,343.00777254928835,"[81, 0, 173]",173,l,0.5557815793436021,colour,0.4
032,66,1,1,5,16,216,343.52246772823855,344.8637903574854,"[39, 0, 215]",215,a,0.8179762305226177,colour,0.4
032,66,1,1,5,17,217,345.3703774304595,346.0637758639641,"[0, 0, 254]",254,a,0.17454542312771082,colour,0.4
032,66,1,1,5,18,218,346.57100923825055,348.26377830584534,"[66, 0, 188]",188,l,1.169579813722521,colour,0.4
032,66,1,1,5,19,219,348.7740616227966,349.71178591810167,"[98, 0, 156]",156,l,0.4143920752685517,colour,0.4
032,66,1,1,5,20,220,350.2229301822372,350.83973779319786,"[60, 0, 194]",194,a,0.09349744627252221,colour,0.4
032,66,1,1,5,21,221,351.3479569638148,352.3518135030754,"[96, 0, 158]",158,l,0.48060623928904533,colour,0.4
032,66,1,1,5,22,222,352.85708906920627,353.81578802270815,"[7, 0, 247]",247,a,0.44027247838675976,colour,0.4
032,66,1,1,5,23,223,354.3370226195548,354.9677900990937,"[43, 0, 211]",211,a,0.10755420103669167,colour,0.4
032,66,1,1,5,24,224,355.4800213780254,356.46388314757496,"[90, 0, 164]",164,l,0.4660812015645206,colour,0.4
032,66,1,1,5,25,225,356.9815873093903,357.943858445622,"[94, 0, 160]",160,l,0.4392079128883779,colour,0.4
032,66,1,1,5,26,226,358.46244679158553,359.46376617532223,"[61, 0, 193]",193,a,0.4779513238463551,colour,0.4
032,66,1,1,5,27,227,359.97812382830307,360.99185290327296,"[76, 0, 178]",178,l,0.49894882505759597,colour,0.4
032,66,1,1,5,28,228,361.50126306386665,362.61586238094606,"[42, 0, 212]",212,a,0.5912344076205045,colour,0.4
032,66,1,1,5,29,229,363.11989811994135,364.4477913908195,"[68, 0, 186]",186,a,0.8044708599336445,colour,0.4
032,66,1,1,5,30,230,364.96363856922835,366.0078005124815,"[72, 0, 182]",182,l,0.5240372044499964,colour,0.4
032,66,1,1,5,31,231,366.5219214640092,367.295799160609,"[38, 0, 216]",216,a,0.24231921671889722,colour,0.4
032,66,1,1,5,32,232,367.8191045993008,368.7117717396468,"[29, 0, 225]",225,a,0.3752705722581595,colour,0.4
032,66,1,1,5,33,233,369.225077430252,370.1838256146293,"[97, 0, 157]",157,l,0.4268356370739639,colour,0.4
032,66,1,1,5,34,234,370.7079451326281,371.79976243223064,"[69, 0, 185]",185,a,0.5746755497530103,colour,0.4
032,66,1,1,5,35,235,372.31687149289064,372.9757733559236,"[24, 0, 230]",230,a,0.14153522718697786,colour,0.4
032,66,1,1,5,36,236,373.49192379554734,374.15983645943925,"[25, 0, 229]",229,a,0.15049797878600657,colour,0.4
032,66,1,1,5,37,237,374.6818150312174,375.2157728204038,"[27, 0, 227]",227,a,0.010640929220244288,colour,0.4
032,66,1,1,5,38,238,375.71873099706136,378.7918122585397,"[5, 0, 249]",249,a,2.5258221139665693,colour,0.4
032,66,1,1,5,39,239,379.30894494988024,380.4237530052196,"[49, 0, 205]",205,a,0.5826028804294765,colour,0.4
032,66,1,1,5,40,240,380.9475023080595,382.2797700255178,"[99, 0, 155]",155,l,0.8144304356537759,colour,0.4
032,66,1,1,5,41,241,382.7896634351928,383.60776766575873,"[63, 0, 191]",191,a,0.2994552324526012,colour,0.4
032,66,1,1,5,42,242,384.1205534795299,385.0718024438247,"[70, 0, 184]",184,a,0.433633811539039,colour,0.4
032,66,1,1,5,43,243,385.5778306494467,386.1363337042276,"[67, 0, 187]",187,a,0.040774080669507384,colour,0.4
032,66,1,1,5,44,244,386.65569516969845,387.3677914382424,"[11, 0, 243]",243,a,0.17959610326215625,colour,0.4
032,66,1,1,5,45,245,387.8912630795967,388.511760633206,"[62, 0, 192]",192,a,0.10343024041503668,colour,0.4
032,66,1,1,5,46,246,389.03277270682156,390.01573138777167,"[80, 0, 174]",174,l,0.4514155611395836,colour,0.4
032,66,1,1,5,47,247,390.5294411643408,391.1037898219656,"[2, 0, 252]",252,a,0.05666733905673027,colour,0.4
032,66,1,1,5,48,248,391.61265923199244,392.67974143242463,"[55, 0, 199]",199,a,0.5482343100011349,colour,0.4
032,66,1,1,5,49,249,393.1919990989845,394.15173583664,"[95, 0, 159]",159,l,0.4420625080820173,colour,0.4
032,66,1,1,5,50,250,394.66232241503894,395.2717525041662,"[17, 0, 237]",237,a,0.09191339812241495,colour,0.4
032,66,1,1,6,1,251,401.7389924004674,403.1597179118544,"[33, 0, 221]",221,a,0.9031233557034284,colour,0.28
032,66,1,1,6,2,252,403.6744205739815,404.6397715851199,"[63, 0, 191]",191,a,0.44719195715151727,colour,0.28
032,66,1,1,6,3,253,405.1496311239898,406.3202798354905,"[96, 0, 158]",158,l,0.6481258447747678,colour,0.28
032,66,1,1,6,4,254,406.8359060662333,408.2159484755248,"[59, 0, 195]",195,a,0.8476934807840735,colour,0.28
032,66,1,1,6,5,255,408.7377443027217,409.39975479152054,"[18, 0, 236]",236,a,0.1431484199129045,colour,0.28
032,66,1,1,6,6,256,409.91301952232607,410.7117449580692,"[83, 0, 171]",171,l,0.2804899758193642,colour,0.28
032,66,1,1,6,7,257,411.22746098577045,411.76791486958973,"[35, 0, 219]",219,a,0.0220923931337893,colour,0.28
032,66,1,1,6,8,258,412.27865032153204,412.9437828271184,"[74, 0, 180]",180,l,0.14731688518077135,colour,0.28
032,66,1,1,6,9,259,413.4528436465189,414.0557614932768,"[32, 0, 222]",222,a,0.07092022895812988,colour,0.28
032,66,1,1,6,10,260,414.5674276032951,415.16773188859224,"[87, 0, 167]",167,l,0.07167129288427532,colour,0.28
032,66,1,1,6,11,261,415.68208560324274,416.2477558660321,"[64, 0, 190]",190,a,0.05071947770193219,colour,0.28
032,66,1,1,6,12,262,416.7662583536003,417.7677104633767,"[53, 0, 201]",201,a,0.48064995603635907,colour,0.28
032,66,1,1,6,13,263,418.28472736408,419.14377109054476,"[72, 0, 182]",182,a,0.32759237266145647,colour,0.28
032,66,1,1,6,14,264,419.6592216659337,420.3597361075226,"[17, 0, 237]",237,a,0.1698948903940618,colour,0.28
032,66,1,1,6,15,265,420.8768057837151,421.60773694561794,"[92, 0, 162]",162,l,0.21140428120270371,colour,0.28
032,66,1,1,6,16,266,422.1306123044342,423.3918101317249,"[76, 0, 178]",178,l,0.743962342152372,colour,0.28
032,66,1,1,6,17,267,423.9060957110487,424.6958107398823,"[77, 0, 177]",177,l,0.2711444061715156,colour,0.28
032,66,1,1,6,18,268,425.210876527708,425.78376716794446,"[94, 0, 160]",160,l,0.049700598465278745,colour,0.28
032,66,1,1,6,19,269,426.2951426196378,426.9837144713383,"[48, 0, 206]",206,a,0.1707164531107992,colour,0.28
032,66,1,1,6,20,270,427.50395815167576,428.7917374277022,"[71, 0, 183]",183,a,0.7645754497498274,colour,0.28
032,66,1,1,6,21,271,429.3008191208355,429.8798553326633,"[6, 0, 248]",248,a,0.055679573211818933,colour,0.28
032,66,1,1,6,22,272,430.39455011766404,430.9597532793414,"[60, 0, 194]",194,a,0.04179099085740745,colour,0.28
032,66,1,1,6,23,273,431.4759954849724,432.0157164216507,"[73, 0, 181]",181,a,0.016410771990194917,colour,0.28
032,66,1,1,6,24,274,432.5228028912097,433.16772519331425,"[44, 0, 210]",210,a,0.12055859947577119,colour,0.28
032,66,1,1,6,25,275,433.6800537521485,434.2157716387883,"[55, 0, 199]",199,a,0.008470838190987706,colour,0.28
032,66,1,1,6,26,276,434.73081970377825,435.7277307701297,"[89, 0, 165]",165,l,0.47357569565065205,colour,0.28
032,66,1,1,6,27,277,436.24326956714503,436.9037661124021,"[82, 0, 172]",172,l,0.09824132057838142,colour,0.28
032,66,1,1,6,28,278,437.420276527293,438.0557378625963,"[58, 0, 196]",196,a,0.11172306025400758,colour,0.28
032,66,1,1,6,29,279,438.5715358101297,439.23171530943364,"[93, 0, 161]",161,l,0.13676417781971395,colour,0.28
032,66,1,1,6,30,280,439.7433703916613,440.2960965144448,"[24, 0, 230]",230,a,0.029348216485232115,colour,0.28
032,66,1,1,6,31,281,440.8059517208021,441.37570183351636,"[85, 0, 169]",169,l,0.05318140867166221,colour,0.28
032,66,1,1,6,32,282,441.8930082109291,442.43975102645345,"[51, 0, 203]",203,a,0.0240435057785362,colour,0.28
032,66,1,1,6,33,283,442.95559072168544,443.52776456205174,"[78, 0, 176]",176,l,0.05735696293413639,colour,0.28
032,66,1,1,6,34,284,444.04080795147456,444.783711241791,"[40, 0, 214]",214,a,0.21953483647666872,colour,0.28
032,66,1,1,6,35,285,445.2908331574872,446.03170656599104,"[97, 0, 157]",157,l,0.21756481914781034,colour,0.28
032,66,1,1,6,36,286,446.5491807218641,447.1357358461246,"[20, 0, 234]",234,a,0.059031595941632986,colour,0.28
032,66,1,1,6,37,287,447.6584520910401,448.9196995429229,"[67, 0, 187]",187,a,0.743803228251636,colour,0.28
032,66,1,1,6,38,288,449.43717251718044,450.04774003336206,"[90, 0, 164]",164,l,0.09362780931405723,colour,0.28
032,66,1,1,6,39,289,450.56383375939913,451.60774364112876,"[61, 0, 193]",193,a,0.5269945934414864,colour,0.28
032,66,1,1,6,40,290,452.12599524878897,452.7437335175928,"[65, 0, 189]",189,a,0.08587652770802379,colour,0.28
032,66,1,1,6,41,291,453.25365252722986,453.8158128350042,"[56, 0, 198]",198,a,0.04303436214104295,colour,0.28
032,66,1,1,6,42,292,454.33680009655654,454.8557700791862,"[49, 0, 205]",205,a,0.0013020546175539494,colour,0.28
032,66,1,1,6,43,293,455.37929567764513,455.91171116614714,"[19, 0, 235]",235,a,0.009196696104481816,colour,0.28
032,66,1,1,6,44,294,456.43577987793833,457.47169626294635,"[69, 0, 185]",185,a,0.49226329079829156,colour,0.28
032,66,1,1,6,45,295,457.98219146905467,458.54372083581984,"[52, 0, 202]",202,a,0.038535460364073515,colour,0.28
032,66,1,1,6,46,296,459.060307262931,460.0717213116586,"[75, 0, 179]",179,l,0.4881054593715817,colour,0.28
032,66,1,1,6,47,297,460.5915297921747,461.415739815915,"[81, 0, 173]",173,l,0.30077973613515496,colour,0.28
032,66,1,1,6,48,298,461.91755268885754,462.94370011938736,"[62, 0, 192]",192,a,0.5028786198236048,colour,0.28
032,66,1,1,6,49,299,463.4644195656292,464.455690364819,"[98, 0, 156]",156,l,0.46795118204317987,colour,0.28
032,66,1,1,6,50,300,464.96436560875736,465.9036652878858,"[14, 0, 240]",240,a,0.41592807439155877,colour,0.28
032,66,1,1,7,1,301,470.2005313769914,471.11971576930955,"[25, 0, 229]",229,a,0.401415639789775,colour,0.14
032,66,1,1,7,2,302,471.6379512294661,472.30369143909775,"[92, 0, 162]",162,l,0.147436220664531,colour,0.14
032,66,1,1,7,3,303,472.8145029034931,473.36773275514133,"[66, 0, 188]",188,a,0.028318309457972646,colour,0.14
032,66,1,1,7,4,304,473.88873537653126,474.8237196856644,"[72, 0, 182]",182,a,0.41828209115192294,colour,0.14
032,66,1,1,7,5,305,475.34385545225814,475.8797899542842,"[52, 0, 202]",202,a,0.021392528899013996,colour,0.14
032,66,1,1,7,6,306,476.38781023258343,476.91972908144817,"[58, 0, 196]",196,a,0.013011881615966558,colour,0.14
032,66,1,1,7,7,307,477.43557744123973,478.4637102491688,"[88, 0, 166]",166,l,0.4963273867033422,colour,0.14
032,66,1,1,7,8,308,478.98541667335667,479.7277185609564,"[51, 0, 203]",203,a,0.21071662637405097,colour,0.14
032,66,1,1,7,9,309,480.25104487338103,480.9277186396066,"[86, 0, 168]",168,l,0.1596103918273002,colour,0.14
032,66,1,1,7,10,310,481.4393749036826,482.0799432389904,"[71, 0, 183]",183,a,0.12305991491302848,colour,0.14
032,66,1,1,7,11,311,482.5999462795444,483.17569269635715,"[19, 0, 235]",235,a,0.057897319784387946,colour,0.14
032,66,1,1,7,12,312,483.6888825960923,484.61569027020596,"[79, 0, 175]",175,l,0.40955131500959396,colour,0.14
032,66,1,1,7,13,313,485.126439900836,486.1917809082661,"[74, 0, 180]",180,l,0.5357375787571073,colour,0.14
032,66,1,1,7,14,314,486.70994508219883,487.3598133013584,"[87, 0, 167]",167,l,0.10301985288970172,colour,0.14
032,66,1,1,7,15,315,487.8804212892428,488.9197231736034,"[60, 0, 194]",194,a,0.5166395963169634,colour,0.14
032,66,1,1,7,16,316,489.4325243476778,490.199677125318,"[68, 0, 186]",186,a,0.25062660896219313,colour,0.14
032,66,1,1,7,17,317,490.7138823599089,491.8397015593946,"[77, 0, 177]",177,a,0.6064663985744119,colour,0.14
032,66,1,1,7,18,318,492.35640220181085,492.983684145147,"[55, 0, 199]",199,a,0.10914258169941604,colour,0.14
032,66,1,1,7,19,319,493.50450362823904,494.0316695445217,"[67, 0, 187]",187,a,0.010562947718426585,colour,0.14
032,66,1,1,7,20,320,494.5555657518562,495.5116830454208,"[0, 0, 254]",254,a,0.4381110519170761,colour,0.14
032,66,1,1,7,21,321,496.03236468252726,498.40767030697316,"[35, 0, 219]",219,a,1.861732906429097,colour,0.14
032,66,1,1,7,22,322,498.930328262737,499.9356928381603,"[85, 0, 169]",169,l,0.48061923612840474,colour,0.14
032,66,1,1,7,23,323,500.44755390193313,501.13569961232133,"[91, 0, 163]",163,l,0.16494739800691605,colour,0.14
032,66,1,1,7,24,324,501.65407606912777,502.2316948294174,"[95, 0, 159]",159,l,0.05445156176574528,colour,0.14
032,66,1,1,7,25,325,502.74969713250175,503.40766361146234,"[94, 0, 160]",160,l,0.13495681853964925,colour,0.14
032,66,1,1,7,26,326,503.92159945564345,504.58388642431237,"[96, 0, 158]",158,l,0.1390681762713939,colour,0.14
032,66,1,1,7,27,327,505.0933678711299,506.1196641754359,"[53, 0, 201]",201,a,0.5028963428921998,colour,0.14
032,66,1,1,7,28,328,506.6291909145657,508.3197493250482,"[73, 0, 181]",181,a,1.1720578921958804,colour,0.14
032,66,1,1,7,29,329,508.8214243517723,509.551708818879,"[57, 0, 197]",197,a,0.20798530499450862,colour,0.14
032,66,1,1,7,30,330,510.07063941680826,511.1360225658864,"[89, 0, 165]",165,l,0.5409170466009527,colour,0.14
032,66,1,1,7,31,331,511.6518382364884,512.2876882979181,"[27, 0, 227]",227,a,0.112400081474334,colour,0.14
032,66,1,1,7,32,332,512.8089717314579,513.8000184320845,"[81, 0, 173]",173,l,0.46841710177250206,colour,0.14
032,66,1,1,7,33,333,514.3082746241707,515.2556918612681,"[54, 0, 200]",200,a,0.4248857058119029,colour,0.14
032,66,1,1,7,34,334,515.7769500887953,516.9276796488557,"[78, 0, 176]",176,l,0.6274674446322024,colour,0.14
032,66,1,1,7,35,335,517.4451620755717,518.8316793118138,"[76, 0, 178]",178,a,0.8557003682944924,colour,0.14
032,66,1,1,7,36,336,519.3433745664079,520.0316679691896,"[80, 0, 174]",174,l,0.16482806275598705,colour,0.14
032,66,1,1,7,37,337,520.5465427418239,521.1836747715715,"[69, 0, 185]",185,a,0.11377263441681862,colour,0.14
032,66,1,1,7,38,338,521.7027766925748,522.7597382343374,"[97, 0, 157]",157,l,0.5427334639243782,colour,0.14
032,66,1,1,7,39,339,523.2717647133395,523.7996903583407,"[59, 0, 195]",195,a,0.004593818681314588,colour,0.14
032,66,1,1,7,40,340,524.3197209681384,525.4477185294963,"[75, 0, 179]",179,a,0.6048425720073283,colour,0.14
032,66,1,1,7,41,341,525.9603724051267,526.5436857833993,"[61, 0, 193]",193,a,0.06004732451401651,colour,0.14
032,66,1,1,7,42,342,527.0538292853162,527.6956681676675,"[4, 0, 250]",250,a,0.08066515857353806,colour,0.14
032,66,1,1,7,43,343,528.2114562690258,529.2396516986191,"[93, 0, 161]",161,l,0.5115333839785308,colour,0.14
032,66,1,1,7,44,344,529.7573653126601,530.6799005460925,"[98, 0, 156]",156,l,0.4054805235937238,colour,0.14
032,66,1,1,7,45,345,531.1893197651953,533.2076820435468,"[90, 0, 164]",164,l,1.5007333410903811,colour,0.14
032,66,1,1,7,46,346,533.7235260710586,534.7036931719631,"[50, 0, 204]",204,a,0.462626778986305,colour,0.14
032,66,1,1,7,47,347,535.221083044773,536.3196611036547,"[83, 0, 171]",171,l,0.5811570722144097,colour,0.14
032,66,1,1,7,48,348,536.8134143133648,537.8477190807462,"[62, 0, 192]",192,a,0.5106216305866838,colour,0.14
032,66,1,1,7,49,349,538.3683396717533,539.1437419459689,"[30, 0, 224]",224,a,0.24404898821376264,colour,0.14
032,66,1,1,7,50,350,539.6677177101374,540.6157245347276,"[99, 0, 155]",155,l,0.4154621544294059,colour,0.14
032,66,1,1,8,1,351,546.100562648382,547.7916688986588,"[89, 0, 165]",165,l,1.1796748724300414,colour,0.06
032,66,1,1,8,2,352,548.3107771212235,549.1996956360526,"[82, 0, 172]",172,l,0.36910806503146887,colour,0.06
032,66,1,1,8,3,353,549.7177837975323,552.5596857741475,"[68, 0, 186]",186,a,2.3229339632671326,colour,0.06
032,66,1,1,8,4,354,553.0802378358785,553.9836845388636,"[75, 0, 179]",179,a,0.38664799300022423,colour,0.06
032,66,1,1,8,5,355,554.5036095979158,555.0636557410471,"[54, 0, 200]",200,a,0.040774080669507384,colour,0.06
032,66,1,1,8,6,356,555.5736188611481,557.8761976854876,"[60, 0, 194]",194,a,1.7849156223237514,colour,0.06
032,66,1,1,8,7,357,558.3893533209339,558.9836553942878,"[72, 0, 182]",182,a,0.07107776706106961,colour,0.06
032,66,1,1,8,8,358,559.498675102368,561.0236406014301,"[88, 0, 166]",166,l,1.0017281959298998,colour,0.06
032,66,1,1,8,9,359,561.5298267393373,562.2796739272308,"[53, 0, 201]",201,a,0.22697970597073436,colour,0.06
032,66,1,1,8,10,360,562.7988101127557,563.8236314642709,"[81, 0, 173]",173,l,0.501423753099516,colour,0.06
032,66,1,1,8,11,361,564.3300613928586,564.9756225128658,"[86, 0, 168]",168,l,0.12229388463310897,colour,0.06
032,66,1,1,8,12,362,565.4864379158244,566.4716293092351,"[62, 0, 192]",192,a,0.46221442241221666,colour,0.06
032,66,1,1,8,13,363,566.9863493004814,567.6316457560752,"[61, 0, 193]",193,a,0.12160307890735567,colour,0.06
032,66,1,1,8,14,364,568.1476481098216,568.6876478891354,"[65, 0, 189]",189,a,0.02257761126384139,colour,0.06
032,66,1,1,8,15,365,569.1969934590161,570.3676299613435,"[78, 0, 176]",176,a,0.6393316593021154,colour,0.06
032,66,1,1,8,16,366,570.879874631064,571.5596715956926,"[63, 0, 191]",191,a,0.1622759411111474,colour,0.06
032,66,1,1,8,17,367,572.0699297063984,572.6156485225074,"[58, 0, 196]",196,a,0.028579035308212042,colour,0.06
032,66,1,1,8,18,368,573.1355731876101,573.9196329829283,"[73, 0, 181]",181,a,0.2675135403405875,colour,0.06
032,66,1,1,8,19,369,574.4330166550353,575.7755936833564,"[94, 0, 160]",160,l,0.8247547126375139,colour,0.06
032,66,1,1,8,20,370,576.292195470538,577.247663312126,"[59, 0, 195]",195,a,0.4270589475054294,colour,0.06
032,66,1,1,8,21,371,577.7598595388699,578.3277936279774,"[71, 0, 183]",183,a,0.05125156347639859,colour,0.06
032,66,1,1,8,22,372,578.8469467489049,579.8396511471365,"[90, 0, 164]",164,l,0.47473990404978395,colour,0.06
032,66,1,1,8,23,373,580.3629049919546,581.087647652952,"[99, 0, 155]",155,l,0.20614328747615218,colour,0.06
032,66,1,1,8,24,374,581.5996729503386,582.151671245927,"[55, 0, 199]",199,a,0.020057785091921687,colour,0.06
032,66,1,1,8,25,375,582.6656968868338,583.607664084062,"[95, 0, 159]",159,l,0.4247258042450994,colour,0.06
032,66,1,1,8,26,376,584.1282354444265,584.6719291047193,"[50, 0, 204]",204,a,0.02619469235651195,colour,0.06
032,66,1,1,8,27,377,585.1934886241797,586.087616933044,"[52, 0, 202]",202,a,0.3768463497981429,colour,0.06
032,66,1,1,8,28,378,586.604836270446,587.1438994843047,"[46, 0, 208]",208,a,0.015714846085757017,colour,0.06
032,66,1,1,8,29,379,587.649279025849,588.6636268326547,"[93, 0, 161]",161,l,0.49628170067444444,colour,0.06
032,66,1,1,8,30,380,589.1704789639916,589.8796367482282,"[96, 0, 158]",158,l,0.1861256747506559,colour,0.06
032,66,1,1,8,31,381,590.3891823918093,590.9437903102953,"[18, 0, 236]",236,a,0.03136076917871833,colour,0.06
032,66,1,1,8,32,382,591.4518050746992,592.2956345330458,"[66, 0, 188]",188,a,0.3205456812866032,colour,0.06
032,66,1,1,8,33,383,592.8140594330616,593.7676218480337,"[76, 0, 178]",178,l,0.4283054699189961,colour,0.06
032,66,1,1,8,34,384,594.2849065640476,594.9516597455367,"[98, 0, 156]",156,l,0.14348791516385972,colour,0.06
032,66,1,1,8,35,385,595.4724650501739,596.1275993832387,"[87, 0, 167]",167,l,0.13199115893803537,colour,0.06
032,66,1,1,8,36,386,596.6441984134726,597.25566547364,"[69, 0, 185]",185,a,0.08822739403694868,colour,0.06
032,66,1,1,8,37,387,597.7684961860068,598.6076223365963,"[92, 0, 162]",162,l,0.32054292457178235,colour,0.06
032,66,1,1,8,38,388,599.117379475385,599.7276315209456,"[97, 0, 157]",157,l,0.08703482849523425,colour,0.06
032,66,1,1,8,39,389,600.2424137399066,600.9516447794158,"[83, 0, 171]",171,l,0.18596419785171747,colour,0.06
032,66,1,1,8,40,390,601.4611171677243,602.0556657887064,"[28, 0, 226]",226,a,0.07138851168565452,colour,0.06
032,66,1,1,8,41,391,602.5597625740338,603.5835953722708,"[77, 0, 177]",177,l,0.5005470521282405,colour,0.06
032,66,1,1,8,42,392,604.0984764464665,604.7595932991244,"[56, 0, 198]",198,a,0.1378444971051067,colour,0.06
032,66,1,1,8,43,393,605.2703909787815,606.1996605836321,"[79, 0, 175]",175,l,0.4065029474440962,colour,0.06
032,66,1,1,8,44,394,606.707886449527,607.47963501513,"[80, 0, 174]",174,l,0.2484033484943211,colour,0.06
032,66,1,1,8,45,395,607.9969977126457,608.7356710978784,"[74, 0, 180]",180,a,0.20987025159411132,colour,0.06
032,66,1,1,8,46,396,609.2598615081515,609.8956513109151,"[85, 0, 169]",169,l,0.10400131694041193,colour,0.06
032,66,1,1,8,47,397,610.4198795305565,611.0396295643877,"[70, 0, 184]",184,a,0.0880292896181345,colour,0.06
032,66,1,1,8,48,398,611.5623859816696,612.199613322271,"[84, 0, 170]",170,l,0.11794228130020201,colour,0.06
032,66,1,1,8,49,399,612.7221145273652,613.2636617273092,"[67, 0, 187]",187,a,0.02460000989958644,colour,0.06
032,66,1,1,8,50,400,613.7807507019024,614.4156429299619,"[64, 0, 190]",190,a,0.10273864702321589,colour,0.06
032,66,1,1,9,1,401,619.6089637756813,621.1436273367144,"[65, 0, 189]",189,a,1.011999303707853,colour,0.06
032,66,1,1,9,2,402,621.655121729942,622.8236444611102,"[93, 0, 161]",161,l,0.6451286773663014,colour,0.06
032,66,1,1,9,3,403,623.3212782349437,623.9038295214996,"[74, 0, 180]",180,a,0.05931319575756788,colour,0.06
032,66,1,1,9,4,404,624.4149245549925,625.1116226294544,"[22, 0, 232]",232,a,0.1733725497033447,colour,0.06
032,66,1,1,9,5,405,625.6180671304464,626.9116162492428,"[66, 0, 188]",188,a,0.7701499450486153,colour,0.06
032,66,1,1,9,6,406,627.4190430017188,627.9596071625128,"[16, 0, 238]",238,a,0.022815100383013487,colour,0.06
032,66,1,1,9,7,407,628.5006482703611,629.143709650496,"[88, 0, 166]",166,l,0.1239003820810467,colour,0.06
032,66,1,1,9,8,408,629.6533931402955,630.2555993075948,"[71, 0, 183]",183,a,0.07899682712741196,colour,0.06
032,66,1,1,9,9,409,630.7627594263759,631.3515795585699,"[59, 0, 195]",195,a,0.06546388752758503,colour,0.06
032,66,1,1,9,10,410,631.857715284219,632.5436385220382,"[89, 0, 165]",165,l,0.16259968234226108,colour,0.06
032,66,1,1,9,11,411,633.0604403829202,633.735560427187,"[97, 0, 157]",157,l,0.15512724383734167,colour,0.06
032,66,1,1,9,12,412,634.2446610247716,634.8795449819881,"[98, 0, 156]",156,l,0.11158994026482105,colour,0.06
032,66,1,1,9,13,413,635.4010170677211,636.1436241860501,"[72, 0, 182]",182,a,0.2194229841697961,colour,0.06
032,66,1,1,9,14,414,636.650942630833,637.6076010689139,"[61, 0, 193]",193,a,0.4333498487249017,colour,0.06
032,66,1,1,9,15,415,638.1234659701586,638.7196017904207,"[57, 0, 197]",197,a,0.07930323947221041,colour,0.06
032,66,1,1,9,16,416,639.2391456065234,640.0076083156746,"[76, 0, 178]",178,a,0.24527542432770133,colour,0.06
032,66,1,1,9,17,417,640.5202980311587,641.2556201813277,"[78, 0, 176]",176,a,0.2122242683544755,colour,0.06
032,66,1,1,9,18,418,641.7593904684763,642.3675956968218,"[68, 0, 186]",186,a,0.08498328528366983,colour,0.06
032,66,1,1,9,19,419,642.8838989487849,643.4876265428029,"[52, 0, 202]",202,a,0.08039734326303005,colour,0.06
032,66,1,1,9,20,420,644.0089635394979,644.9835935605224,"[79, 0, 175]",175,a,0.45149905630387366,colour,0.06
032,66,1,1,9,21,421,645.4931817394681,646.071629939368,"[95, 0, 159]",159,l,0.055041936691850424,colour,0.06
032,66,1,1,9,22,422,646.5869647241198,647.2556217566598,"[54, 0, 200]",200,a,0.14556348323822021,colour,0.06
032,66,1,1,9,23,423,647.7744956410024,648.4555922970176,"[62, 0, 192]",192,a,0.15762895299121737,colour,0.06
032,66,1,1,9,24,424,648.9757513005752,649.5516851879656,"[56, 0, 198]",198,a,0.05849675298668444,colour,0.06
032,66,1,1,9,25,425,650.0719753422309,650.6636039896403,"[21, 0, 233]",233,a,0.07464837445877492,colour,0.06
032,66,1,1,9,26,426,651.1827484460082,652.2796290286351,"[91, 0, 163]",163,l,0.5789649256039411,colour,0.06
032,66,1,1,9,27,427,652.7890584878623,654.1756040810142,"[77, 0, 177]",177,l,0.8678918688092381,colour,0.06
032,66,1,1,9,28,428,654.6867463758681,655.3036244853865,"[63, 0, 191]",191,a,0.0981082005891949,colour,0.06
032,66,1,1,9,29,429,655.8164079361595,656.4555958416313,"[85, 0, 169]",169,l,0.12035261816345155,colour,0.06
032,66,1,1,9,30,430,656.9776563332416,657.6635898111854,"[92, 0, 162]",162,l,0.15410206280648708,colour,0.06
032,66,1,1,9,31,431,658.1645626106765,658.8316092072055,"[99, 0, 155]",155,l,0.1497819668147713,colour,0.06
032,66,1,1,9,32,432,659.3489348832518,660.1596525334753,"[69, 0, 185]",185,a,0.28739645797759295,colour,0.06
032,66,1,1,9,33,433,660.6770987261552,661.6956020013895,"[84, 0, 170]",170,l,0.4952143782284111,colour,0.06
032,66,1,1,9,34,434,662.2083909662906,663.4475724126678,"[81, 0, 173]",173,l,0.7162470107432455,colour,0.06
032,66,1,1,9,35,435,663.9543772824109,664.5676327969413,"[51, 0, 203]",203,a,0.08986264211125672,colour,0.06
032,66,1,1,9,36,436,665.0794284823351,665.887567229569,"[80, 0, 174]",174,l,0.28479589335620403,colour,0.06
032,66,1,1,9,37,437,666.4075627869461,667.0956080667675,"[82, 0, 172]",172,l,0.16503365035168827,colour,0.06
032,66,1,1,9,38,438,667.6106191100553,668.5836493291426,"[75, 0, 179]",179,a,0.459010879509151,colour,0.06
032,66,1,1,9,39,439,669.0943280674983,669.7116508288309,"[70, 0, 184]",184,a,0.10012035933323205,colour,0.06
032,66,1,1,9,40,440,670.2209704050329,670.7836064787116,"[73, 0, 181]",181,a,0.04461368452757597,colour,0.06
032,66,1,1,9,41,441,671.3040758327115,672.3757234951481,"[90, 0, 164]",164,l,0.5400805179961026,colour,0.06
032,66,1,1,9,42,442,672.8947505853139,673.5515898773447,"[64, 0, 190]",190,a,0.13152484549209476,colour,0.06
032,66,1,1,9,43,443,674.0622930340469,674.7756102250423,"[53, 0, 201]",201,a,0.19428891921415925,colour,0.06
032,66,1,1,9,44,444,675.2859853080008,675.9035813985392,"[67, 0, 187]",187,a,0.09906603372655809,colour,0.06
032,66,1,1,9,45,445,676.4151297486387,677.5596235464327,"[96, 0, 158]",158,l,0.6268699804786593,colour,0.06
032,66,1,1,9,46,446,678.0797270175535,678.8396357870661,"[55, 0, 199]",199,a,0.23491215659305453,colour,0.06
032,66,1,1,9,47,447,679.3634382591117,680.3276191542391,"[58, 0, 196]",196,a,0.4447308140806854,colour,0.06
032,66,1,1,9,48,448,680.8502995593008,681.9116453938186,"[87, 0, 167]",167,l,0.544588478282094,colour,0.06
032,66,1,1,9,49,449,682.4257978531532,683.4955968027934,"[60, 0, 194]",194,a,0.5526638950686902,colour,0.06
032,66,1,1,9,50,450,684.0176966788713,685.0235720723867,"[86, 0, 168]",168,l,0.48896246822550893,colour,0.06
032,66,1,1,10,1,451,689.9646468148567,692.9676014469005,"[76, 0, 178]",178,a,2.4846837259829044,colour,0.06
032,66,1,1,10,2,452,693.490497285733,694.0877138189971,"[98, 0, 156]",156,l,0.07924416242167354,colour,0.06
032,66,1,1,10,3,453,694.6037130218465,695.6155835378449,"[90, 0, 164]",164,l,0.49490639055147767,colour,0.06
032,66,1,1,10,4,454,696.1349316127598,696.7435862191487,"[89, 0, 165]",165,l,0.0758173088543117,colour,0.06
032,66,1,1,10,5,455,697.2638117827009,697.9595654148143,"[27, 0, 227]",227,a,0.17290466092526913,colour,0.06
032,66,1,1,10,6,456,698.4620320717804,699.0555862318724,"[51, 0, 203]",203,a,0.07597681670449674,colour,0.06
032,66,1,1,10,7,457,699.5666584223509,700.5435979559552,"[88, 0, 166]",166,l,0.46509737451560795,colour,0.06
032,66,1,1,10,8,458,701.0555669334717,701.6796492724679,"[50, 0, 204]",204,a,0.10074421134777367,colour,0.06
032,66,1,1,10,9,459,702.1961388133932,702.903643626254,"[55, 0, 199]",199,a,0.1841280881781131,colour,0.06
032,66,1,1,10,10,460,703.417251002742,704.0075413617305,"[69, 0, 185]",185,a,0.06737167714163661,colour,0.06
032,66,1,1,10,11,461,704.5265700274613,705.0555917457677,"[64, 0, 190]",190,a,0.005668230587616563,colour,0.06
032,66,1,1,10,12,462,705.573470775038,706.1675578088034,"[57, 0, 197]",197,a,0.07118331803940237,colour,0.06
032,66,1,1,10,13,463,706.6828567537013,708.1836026976816,"[84, 0, 170]",170,l,0.9774696500971913,colour,0.06
032,66,1,1,10,14,464,708.6959418905899,709.7275901671965,"[81, 0, 173]",173,l,0.4995770095847547,colour,0.06
032,66,1,1,10,15,465,710.2488476068247,711.31952680205,"[73, 0, 181]",181,a,0.5473115288186818,colour,0.06
032,66,1,1,10,16,466,711.8270559546072,712.7995765369851,"[77, 0, 177]",177,l,0.4491966331843287,colour,0.06
032,66,1,1,10,17,467,713.3113206285052,715.3835452750791,"[74, 0, 180]",180,l,1.5578350920695812,colour,0.06
032,66,1,1,10,18,468,715.8980002079625,716.8715782666113,"[82, 0, 172]",172,l,0.4505262568127364,colour,0.06
032,66,1,1,10,19,469,717.3852612618357,717.9998365540523,"[86, 0, 168]",168,l,0.09125882619991899,colour,0.06
032,66,1,1,10,20,470,718.5095519451424,719.1275603924878,"[79, 0, 175]",175,l,0.09933306137099862,colour,0.06
032,66,1,1,10,21,471,719.6460935999639,720.3595415477175,"[56, 0, 198]",198,a,0.19662600080482662,colour,0.06
032,66,1,1,10,22,472,720.880975036649,722.5758078568615,"[72, 0, 182]",182,a,1.1636087156366557,colour,0.06
032,66,1,1,10,23,473,723.0915683889762,723.6715604648925,"[78, 0, 176]",176,l,0.0627109045162797,colour,0.06
032,66,1,1,10,24,474,724.1834234979469,724.9675888437778,"[97, 0, 157]",157,l,0.26659194100648165,colour,0.06
032,66,1,1,10,25,475,725.4813943249173,726.1195444464684,"[60, 0, 194]",194,a,0.11935461265966296,colour,0.06
032,66,1,1,10,26,476,726.642246512929,727.2395949847996,"[61, 0, 193]",193,a,0.08039064798504114,colour,0.06
032,66,1,1,10,27,477,727.7691464256495,728.3435840925667,"[67, 0, 187]",187,a,0.051222812850028276,colour,0.06
032,66,1,1,10,28,478,728.8629565855954,731.4875832197722,"[54, 0, 200]",200,a,2.0776297880802304,colour,0.06
032,66,1,1,10,29,479,732.0077658540104,733.135547587648,"[66, 0, 188]",188,a,0.6044235196895897,colour,0.06
032,66,1,1,10,30,480,733.6533903833479,734.3035701345652,"[70, 0, 184]",184,a,0.12705548177473247,colour,0.06
032,66,1,1,10,31,481,734.8095317801926,736.2955427670386,"[95, 0, 159]",159,l,0.9626315052155405,colour,0.06
032,66,1,1,10,32,482,736.8095420203172,737.8475607547443,"[63, 0, 191]",191,a,0.5147117206361145,colour,0.06
032,66,1,1,10,33,483,738.35644355556,739.35955848312,"[62, 0, 192]",192,a,0.4909277593251318,colour,0.06
032,66,1,1,10,34,484,739.8719799895771,740.4875406844076,"[52, 0, 202]",202,a,0.096410330850631,colour,0.06
032,66,1,1,10,35,485,741.0004308675416,742.2315400480293,"[92, 0, 162]",162,l,0.7138957506977022,colour,0.06
032,66,1,1,10,36,486,742.7477499584202,743.7675635588821,"[59, 0, 195]",195,a,0.48924564314074814,colour,0.06
032,66,1,1,10,37,487,744.2770087718964,745.2475388569292,"[26, 0, 228]",228,a,0.4527703910134733,colour,0.06
032,66,1,1,10,38,488,745.7617771746591,746.8396078241058,"[83, 0, 171]",171,l,0.5602158906403929,colour,0.06
032,66,1,1,10,39,489,747.3559158020653,748.4315669082571,"[99, 0, 155]",155,l,0.5581548949703574,colour,0.06
032,66,1,1,10,40,490,748.9362843947019,749.9115851353854,"[65, 0, 189]",189,a,0.4572881974745542,colour,0.06
032,66,1,1,10,41,491,750.4229495595209,751.471680902876,"[85, 0, 169]",169,l,0.5254589880350977,colour,0.06
032,66,1,1,10,42,492,751.9854859902989,753.0635809102096,"[96, 0, 158]",158,l,0.555015942780301,colour,0.06
032,66,1,1,10,43,493,753.5817356319167,754.5035457948688,"[15, 0, 239]",239,a,0.3967320241499692,colour,0.06
032,66,1,1,10,44,494,755.0210101045668,756.4636692891363,"[71, 0, 183]",183,a,0.9194856844842434,colour,0.06
032,66,1,1,10,45,495,756.974066427676,758.0315080676228,"[94, 0, 160]",160,l,0.5344611243344843,colour,0.06
032,66,1,1,10,46,496,758.5521904923953,759.5515335572418,"[68, 0, 186]",186,a,0.4734646310098469,colour,0.06
032,66,1,1,10,47,497,760.0707973490935,761.1676306703594,"[93, 0, 161]",161,l,0.5796167408116162,colour,0.06
032,66,1,1,10,48,498,761.677507932065,762.6315559593495,"[58, 0, 196]",196,a,0.4359448994509876,colour,0.06
032,66,1,1,10,49,499,763.146361021325,764.1355479815975,"[87, 0, 167]",167,l,0.46924969204701483,colour,0.06
032,66,1,1,10,50,500,764.6492660287768,765.6555577174295,"[80, 0, 174]",174,l,0.4879416194744408,colour,0.06
032,66,1,1,11,1,501,770.3061569146812,771.359533670824,"[68, 0, 186]",186,a,0.5293017427902669,colour,0.06
032,66,1,1,11,2,502,771.8694054188672,772.5835138461553,"[62, 0, 192]",192,a,0.19092823192477226,colour,0.06
032,66,1,1,11,3,503,773.1037858834025,773.7517396174371,"[56, 0, 198]",198,a,0.13512617233209312,colour,0.06
032,66,1,1,11,4,504,774.2638149333652,775.3755631998647,"[87, 0, 167]",167,l,0.5884979662951082,colour,0.06
032,66,1,1,11,5,505,775.8887605827767,776.8555341653991,"[51, 0, 203]",203,a,0.44349492574110627,colour,0.06
032,66,1,1,11,6,506,777.373157588765,778.4636145445984,"[77, 0, 177]",177,a,0.5671235541813076,colour,0.06
032,66,1,1,11,7,507,778.9835077021271,779.5515024436172,"[52, 0, 202]",202,a,0.044692453695461154,colour,0.06
032,66,1,1,11,8,508,780.0686461625155,781.6235490716062,"[81, 0, 173]",173,l,1.0209435443393886,colour,0.06
032,66,1,1,11,9,509,782.1457753723953,782.8635508990847,"[90, 0, 164]",164,l,0.18559713335707784,colour,0.06
032,66,1,1,11,10,510,783.3816619038116,784.0875216221903,"[84, 0, 170]",170,l,0.1876864859368652,colour,0.06
032,66,1,1,11,11,511,784.6026583025232,785.247527435422,"[58, 0, 196]",196,a,0.1274130940437317,colour,0.06
032,66,1,1,11,12,512,785.7617452731356,786.7755436650477,"[57, 0, 197]",197,a,0.496796851279214,colour,0.06
032,66,1,1,11,13,513,787.292327015195,790.5355040284339,"[39, 0, 215]",215,a,2.7240191663149744,colour,0.06
032,66,1,1,11,14,514,791.0467877138872,792.3995342378039,"[71, 0, 183]",183,a,0.8293375037610531,colour,0.06
032,66,1,1,11,15,515,792.9061713293195,794.5035517027136,"[83, 0, 171]",171,l,1.0740505163557827,colour,0.06
032,66,1,1,11,16,516,795.0227646881249,795.999572677305,"[99, 0, 155]",155,l,0.4535190921742469,colour,0.06
032,66,1,1,11,17,517,796.5071104944218,797.3035173593089,"[65, 0, 189]",189,a,0.27303210948593915,colour,0.06
032,66,1,1,11,18,518,797.8195590975229,798.8155261152424,"[74, 0, 180]",180,a,0.4727738252840936,colour,0.06
032,66,1,1,11,19,519,799.3238697410561,800.2795156012289,"[96, 0, 158]",158,l,0.4362138961441815,colour,0.06
032,66,1,1,11,20,520,800.7986844759434,801.7595125606749,"[67, 0, 187]",187,a,0.43753800611011684,colour,0.06
032,66,1,1,11,21,521,802.2674560390878,803.2155219404958,"[50, 0, 204]",204,a,0.42473565065301955,colour,0.06
032,66,1,1,11,22,522,803.7273652812,804.3196630727034,"[93, 0, 161]",161,l,0.058295497903600335,colour,0.06
032,66,1,1,11,23,523,804.8241044732276,806.4155019330792,"[88, 0, 166]",166,l,1.0681211659684777,colour,0.06
032,66,1,1,11,24,524,806.9334617010318,807.5194646532182,"[53, 0, 201]",201,a,0.06267900299280882,colour,0.06
032,66,1,1,11,25,525,808.0148491729051,808.9435244642664,"[54, 0, 200]",200,a,0.4105871298816055,colour,0.06
032,66,1,1,11,26,526,809.4627346929628,810.3994865824934,"[92, 0, 162]",162,l,0.4044084749184549,colour,0.06
032,66,1,1,11,27,527,810.9119269936346,814.7274889487308,"[72, 0, 182]",182,l,3.2924577717203647,colour,0.06
032,66,1,1,11,28,528,815.2241117199883,818.3194665436167,"[98, 0, 156]",156,l,2.5721198834944516,colour,0.06
032,66,1,1,11,29,529,818.8387011906598,820.0154958679341,"[75, 0, 179]",179,a,0.6545561673119664,colour,0.06
032,66,1,1,11,30,530,820.5311760555487,822.11952239112,"[85, 0, 169]",169,l,1.0612761238589883,colour,0.06
032,66,1,1,11,31,531,822.6312499409541,823.4875328075141,"[73, 0, 181]",181,a,0.32495872490108013,colour,0.06
032,66,1,1,11,32,532,824.0054405876435,825.1835310177412,"[21, 0, 233]",233,a,0.6602043113671243,colour,0.06
032,66,1,1,11,33,533,825.7070794592146,826.3275163604412,"[70, 0, 184]",184,a,0.10333414212800562,colour,0.06
032,66,1,1,11,34,534,826.8386373876128,828.8635103330016,"[63, 0, 191]",191,a,1.5069234173279256,colour,0.06
032,66,1,1,11,35,535,829.3734675457235,830.0395165306982,"[69, 0, 185]",185,a,0.14174751029349864,colour,0.06
032,66,1,1,11,36,536,830.5595034232829,831.9834939176217,"[97, 0, 157]",157,l,0.9072213226463646,colour,0.06
032,66,1,1,11,37,537,832.4932246687822,833.479514104547,"[66, 0, 188]",188,a,0.468049643561244,colour,0.06
032,66,1,1,11,38,538,833.9934771240223,834.9434807472862,"[59, 0, 195]",195,a,0.41979997348971665,colour,0.06
032,66,1,1,11,39,539,835.4596307931934,835.9914755988866,"[61, 0, 193]",193,a,0.013434084365144372,colour,0.06
032,66,1,1,11,40,540,836.5116054578684,837.599486267427,"[82, 0, 172]",172,l,0.5554487796034664,colour,0.06
032,66,1,1,11,41,541,838.1083544960711,839.0715050902218,"[86, 0, 168]",168,l,0.4308579855132848,colour,0.06
032,66,1,1,11,42,542,839.5788109318819,840.2874929502141,"[64, 0, 190]",190,a,0.18997276155278087,colour,0.06
032,66,1,1,11,43,543,840.804981284542,841.9515136287082,"[94, 0, 160]",160,l,0.6278538075275719,colour,0.06
032,66,1,1,11,44,544,842.4629749387968,843.5595609250013,"[7, 0, 247]",247,a,0.5785045197699219,colour,0.06
032,66,1,1,11,45,545,844.0722530034836,845.1035606034566,"[55, 0, 199]",199,a,0.5134671672713012,colour,0.06
032,66,1,1,11,46,546,845.6194593757391,846.8154599491972,"[79, 0, 175]",175,l,0.6635886295698583,colour,0.06
032,66,1,1,11,47,547,847.3361242569517,848.3755163319875,"[80, 0, 174]",174,l,0.5220317407511175,colour,0.06
032,66,1,1,11,48,548,848.8848945910577,849.759505077498,"[91, 0, 163]",163,l,0.3559437650255859,colour,0.06
032,66,1,1,11,49,549,850.2709793846589,851.415491299238,"[89, 0, 165]",165,l,0.6156181963160634,colour,0.06
032,66,1,1,11,50,550,851.9378542643972,852.6475153837819,"[78, 0, 176]",176,l,0.190867185825482,colour,0.06
032,66,1,1,12,1,551,857.3605226178188,858.7355104086455,"[72, 0, 182]",182,a,0.8549646642059088,colour,0.06
032,66,1,1,12,2,552,859.2538084902335,860.3034685223829,"[68, 0, 186]",186,a,0.5363539478275925,colour,0.06
032,66,1,1,12,3,553,860.8145804912783,861.8715392760932,"[54, 0, 200]",200,a,0.5249387177173048,colour,0.06
032,66,1,1,12,4,554,862.3930259339977,863.4154605793301,"[29, 0, 225]",225,a,0.5049285879358649,colour,0.06
032,66,1,1,12,5,555,863.9272125477437,864.9274579137564,"[71, 0, 183]",183,a,0.482883456395939,colour,0.06
032,66,1,1,12,6,556,865.4417667298112,866.0475915535353,"[65, 0, 189]",189,a,0.0884979662951082,colour,0.06
032,66,1,1,12,7,557,866.5697792572901,867.1755324010737,"[61, 0, 193]",193,a,0.08759408979676664,colour,0.06
032,66,1,1,12,8,558,867.6988039687276,869.1594737274572,"[87, 0, 167]",167,l,0.9434653872158378,colour,0.06
032,66,1,1,12,9,559,869.6575123746879,871.26347228745,"[81, 0, 173]",173,a,1.0839462887961417,colour,0.06
032,66,1,1,12,10,560,871.771846239455,872.5035170442425,"[56, 0, 198]",198,a,0.20833976613357663,colour,0.06
032,66,1,1,12,11,561,873.0218675071374,873.6394521761686,"[69, 0, 185]",185,a,0.09434736589901149,colour,0.06
032,66,1,1,12,12,562,874.1468182764947,875.1434764938895,"[94, 0, 160]",160,l,0.47336538205854595,colour,0.06
032,66,1,1,12,13,563,875.6511970553547,876.6874942893628,"[53, 0, 201]",201,a,0.5130099123343825,colour,0.06
032,66,1,1,12,14,564,877.1981009538285,878.2394323262852,"[90, 0, 164]",164,l,0.5304470465052873,colour,0.06
032,66,1,1,12,15,565,878.7410675745923,879.8554546085652,"[99, 0, 155]",155,l,0.5911544568371028,colour,0.06
032,66,1,1,12,16,566,880.3684511301108,881.511567648733,"[86, 0, 168]",168,l,0.6247258833609521,colour,0.06
032,66,1,1,12,17,567,882.0211692184675,882.9755145991221,"[59, 0, 195]",195,a,0.4373359631281346,colour,0.06
032,66,1,1,12,18,568,883.4890510835685,884.4715005215257,"[6, 0, 248]",248,a,0.46130897058174014,colour,0.06
032,66,1,1,12,19,569,884.9936102437787,886.0395066845231,"[80, 0, 174]",174,l,0.5285593431908637,colour,0.06
032,66,1,1,12,20,570,886.5555161272641,887.5435140666086,"[76, 0, 178]",178,a,0.4710330262314528,colour,0.06
032,66,1,1,12,21,571,888.0552101091016,889.1515397012699,"[79, 0, 175]",175,a,0.5769834867678583,colour,0.06
032,66,1,1,12,22,572,889.659106269246,890.30343622691,"[64, 0, 190]",190,a,0.12965683406218886,colour,0.06
032,66,1,1,12,23,573,890.8383238862734,892.7914696126245,"[83, 0, 171]",171,l,1.42632206203416,colour,0.06
032,66,1,1,12,24,574,893.3107263150159,894.5114349224605,"[78, 0, 176]",176,l,0.6780983069911599,colour,0.06
032,66,1,1,12,25,575,895.0295305673499,895.6234222534113,"[84, 0, 170]",170,l,0.06660840380936861,colour,0.06
032,66,1,1,12,26,576,896.142991669476,896.7834599679336,"[91, 0, 163]",163,l,0.11715301382355392,colour,0.06
032,66,1,1,12,27,577,897.299202383263,898.2554496461526,"[57, 0, 197]",197,a,0.4328835350461304,colour,0.06
032,66,1,1,12,28,578,898.7679727647919,899.4314790805802,"[50, 0, 204]",204,a,0.14024104946292937,colour,0.06
032,66,1,1,12,29,579,899.9397904111538,900.7114314567298,"[66, 0, 188]",188,a,0.24871054850518703,colour,0.06
032,66,1,1,12,30,580,901.2261786235031,902.239437446231,"[75, 0, 179]",179,a,0.4813785708975047,colour,0.06
032,66,1,1,12,31,581,902.7557332152501,903.767449343577,"[63, 0, 191]",191,a,0.49477130151353776,colour,0.06
032,66,1,1,12,32,582,904.2851570500061,905.4794869290199,"[95, 0, 159]",159,l,0.6620081258006394,colour,0.06
032,66,1,1,12,33,583,906.0020511497278,906.9594252055977,"[52, 0, 202]",202,a,0.4390889713540673,colour,0.06
032,66,1,1,12,34,584,907.4722689150367,908.4315476098564,"[58, 0, 196]",196,a,0.44226021878421307,colour,0.06
032,66,1,1,12,35,585,908.9404737337027,909.8394743104,"[74, 0, 180]",180,a,0.37046801508404315,colour,0.06
032,66,1,1,12,36,586,910.3462854817044,911.41541686235,"[85, 0, 169]",169,a,0.5523468491155654,colour,0.06
032,66,1,1,12,37,587,911.9227908395696,912.5594849125482,"[60, 0, 194]",194,a,0.1134618897922337,colour,0.06
032,66,1,1,12,38,588,913.0790503902826,915.4634278616868,"[62, 0, 192]",192,a,1.8611701005138457,colour,0.06
032,66,1,1,12,39,589,915.9788575633429,917.1114784819074,"[97, 0, 157]",157,l,0.6095198860857636,colour,0.06
032,66,1,1,12,40,590,917.6194593757391,918.5513968928717,"[73, 0, 181]",181,a,0.4087065155617893,colour,0.06
032,66,1,1,12,41,591,919.0724199942779,920.0314478091896,"[77, 0, 177]",177,a,0.4358598287217319,colour,0.06
032,66,1,1,12,42,592,920.5411911634728,921.5994512152392,"[67, 0, 187]",187,a,0.5409371329005808,colour,0.06
032,66,1,1,12,43,593,922.1067346078344,922.7194958457258,"[82, 0, 172]",172,a,0.08944162097759545,colour,0.06
032,66,1,1,12,44,594,923.2318263738416,924.3274328650441,"[92, 0, 162]",162,l,0.575757444370538,colour,0.06
032,66,1,1,12,45,595,924.8379690311849,925.8394290180877,"[55, 0, 199]",199,a,0.48282162263058126,colour,0.06
032,66,1,1,12,46,596,926.3489254307933,927.3994168718345,"[96, 0, 158]",158,l,0.5272108146455139,colour,0.06
032,66,1,1,12,47,597,927.911425627768,929.0154237940442,"[44, 0, 210]",210,a,0.5815245301928371,colour,0.06
032,66,1,1,12,48,598,929.5364366555586,930.703489553649,"[88, 0, 166]",166,l,0.643938081106171,colour,0.06
032,66,1,1,12,49,599,931.2208333464805,932.3274214435369,"[98, 0, 156]",156,l,0.5881943108979613,colour,0.06
032,66,1,1,12,50,600,932.8418169058859,933.8714156083297,"[51, 0, 203]",203,a,0.5074964631348848,colour,0.06
032,66,1,1,13,1,601,942.8795969695784,943.6074112351052,"[52, 0, 202]",202,a,0.2092007133178413,colour,0.06
032,66,1,1,13,2,602,944.1250831016805,945.415724062128,"[95, 0, 159]",159,l,0.7728970202151686,colour,0.06
032,66,1,1,13,3,603,945.9342694790103,946.6074025705457,"[91, 0, 163]",163,l,0.15566563117317855,colour,0.06
032,66,1,1,13,4,604,947.1245037543122,947.7834170388523,"[98, 0, 156]",156,l,0.14126268588006496,colour,0.06
032,66,1,1,13,5,605,948.2984784946311,948.9514447057154,"[72, 0, 182]",182,a,0.12897666217759252,colour,0.06
032,66,1,1,13,6,606,949.4637901999522,950.2154215096962,"[5, 0, 249]",249,a,0.23347461898811162,colour,0.06
032,66,1,1,13,7,607,950.7196675625164,951.3034251993522,"[27, 0, 227]",227,a,0.06653475458733737,colour,0.06
032,66,1,1,13,8,608,951.8152547553182,952.4314172468148,"[68, 0, 186]",186,a,0.09287989605218172,colour,0.06
032,66,1,1,13,9,609,952.9403457338922,953.4794944121968,"[58, 0, 196]",196,a,0.016132716555148363,colour,0.06
032,66,1,1,13,10,610,953.9914121897891,955.3354239987675,"[84, 0, 170]",170,l,0.819965546252206,colour,0.06
032,66,1,1,13,11,611,955.8519864014816,956.9034348879941,"[82, 0, 172]",172,l,0.5281895219814032,colour,0.06
032,66,1,1,13,12,612,957.4145039275754,958.3754671013448,"[73, 0, 181]",181,a,0.43764749518595636,colour,0.06
032,66,1,1,13,13,613,958.8832873059437,960.1754583579022,"[79, 0, 175]",175,a,0.7689888870809227,colour,0.06
032,66,1,1,13,14,614,960.6862324068788,961.3034149592277,"[66, 0, 188]",188,a,0.09812907432205975,colour,0.06
032,66,1,1,13,15,615,961.826389567228,962.9434582982212,"[83, 0, 171]",171,a,0.6000947593711317,colour,0.06
032,66,1,1,13,16,616,963.4663624076638,964.1113953804597,"[96, 0, 158]",158,l,0.11468320619314909,colour,0.06
032,66,1,1,13,17,617,964.6222462293226,965.647411802318,"[88, 0, 166]",166,l,0.5083042413461953,colour,0.06
032,66,1,1,13,18,618,966.1685506943613,967.1114335835446,"[74, 0, 180]",180,a,0.40993295167572796,colour,0.06
032,66,1,1,13,19,619,967.622996899765,968.3276065511163,"[78, 0, 176]",176,a,0.18743206141516566,colour,0.06
032,66,1,1,13,20,620,968.8434907509945,969.5674591111019,"[7, 0, 247]",247,a,0.207233059220016,colour,0.06
032,66,1,1,13,21,621,970.079532851465,970.8154162322171,"[56, 0, 198]",198,a,0.2125944837462157,colour,0.06
032,66,1,1,13,22,622,971.332563495962,972.0634899318684,"[77, 0, 177]",177,a,0.20541939861141145,colour,0.06
032,66,1,1,13,23,623,972.5782792400569,973.1274008848704,"[50, 0, 204]",204,a,0.031332412268966436,colour,0.06
032,66,1,1,13,24,624,973.6439321734942,975.9834419297986,"[67, 0, 187]",187,a,1.8221679327543825,colour,0.06
032,66,1,1,13,25,625,976.5070376328658,977.055449961219,"[71, 0, 183]",183,a,0.03132256609387696,colour,0.06
032,66,1,1,13,26,626,977.5723179881461,978.1514463599306,"[69, 0, 185]",185,a,0.046933436999097466,colour,0.06
032,66,1,1,13,27,627,978.6604894560296,979.3514243832324,"[75, 0, 179]",179,a,0.17325912229716778,colour,0.06
032,66,1,1,13,28,628,979.8665906020906,980.49542508577,"[63, 0, 191]",191,a,0.10792362852953374,colour,0.06
032,66,1,1,13,29,629,981.0074318726547,983.0793965808116,"[85, 0, 169]",169,l,1.5548198076430708,colour,0.06
032,66,1,1,13,30,630,983.5887831107248,984.2073902038392,"[92, 0, 162]",162,l,0.09537648526020348,colour,0.06
032,66,1,1,13,31,631,984.7137571168132,985.3594340276904,"[94, 0, 160]",160,l,0.1224049492739141,colour,0.06
032,66,1,1,13,32,632,985.874046892859,986.6154035504442,"[51, 0, 203]",203,a,0.21813825890421867,colour,0.06
032,66,1,1,13,33,633,987.1240441361442,988.223395708017,"[90, 0, 164]",164,l,0.576025259681046,colour,0.06
032,66,1,1,13,34,634,988.7334383851849,990.0794052453712,"[80, 0, 174]",174,l,0.8227319200523198,colour,0.06
032,66,1,1,13,35,635,990.5927668621298,992.6794102080166,"[59, 0, 195]",195,a,1.5735912919044495,colour,0.06
032,66,1,1,13,36,636,993.1950163524598,994.135435735574,"[89, 0, 165]",165,l,0.4170430521480739,colour,0.06
032,66,1,1,13,37,637,994.6481750756502,995.2874823163729,"[87, 0, 167]",167,l,0.11597935296595097,colour,0.06
032,66,1,1,13,38,638,995.8063321760856,996.4875205983408,"[65, 0, 189]",189,a,0.15587161271832883,colour,0.06
032,66,1,1,13,39,639,996.9833261391614,998.4793939813972,"[57, 0, 197]",197,a,0.972911671269685,colour,0.06
032,66,1,1,13,40,640,998.9991957666352,999.9514372225385,"[76, 0, 178]",178,a,0.42906322958879173,colour,0.06
032,66,1,1,13,41,641,1000.4678542960901,1001.5593805434182,"[86, 0, 168]",168,l,0.5665946190711111,colour,0.06
032,66,1,1,13,42,642,1002.0811251706909,1003.0953812114894,"[55, 0, 199]",199,a,0.4970619094092399,colour,0.06
032,66,1,1,13,43,643,1003.6112914050464,1004.9994100187905,"[99, 0, 155]",155,l,0.8705400887411088,colour,0.06
032,66,1,1,13,44,644,1005.5146337391343,1006.5113821472041,"[61, 0, 193]",193,a,0.47854918194934726,colour,0.06
032,66,1,1,13,45,645,1007.0310980740469,1007.9434464827646,"[60, 0, 194]",194,a,0.39385576732456684,colour,0.06
032,66,1,1,13,46,646,1008.456681674812,1009.4554071894381,"[54, 0, 200]",200,a,0.48204771522432566,colour,0.06
032,66,1,1,13,47,647,1009.9731381328311,1011.2636388842948,"[97, 0, 157]",157,l,0.7612257902510464,colour,0.06
032,66,1,1,13,48,648,1011.7860046064015,1012.7354383347556,"[53, 0, 201]",201,a,0.4249904688913375,colour,0.06
032,66,1,1,13,49,649,1013.2483143394347,1014.2314187432639,"[64, 0, 190]",190,a,0.4564288256224245,colour,0.06
032,66,1,1,13,50,650,1014.7431703179609,1015.8393837257754,"[93, 0, 161]",161,l,0.5642299682367593,colour,0.06
032,66,1,1,14,1,651,1020.6607706621289,1023.3913709935732,"[63, 0, 191]",191,a,2.202442317502573,colour,0.06
032,66,1,1,14,2,652,1023.9024317623116,1024.8873730634805,"[57, 0, 197]",197,a,0.46168548706918955,colour,0.06
032,66,1,1,14,3,653,1025.402439639205,1026.5833933292888,"[85, 0, 169]",169,l,0.6577061468269676,colour,0.06
032,66,1,1,14,4,654,1027.0947526332457,1027.727420813404,"[79, 0, 175]",175,a,0.10973256290890276,colour,0.06
032,66,1,1,14,5,655,1028.235422974918,1029.2713763813954,"[86, 0, 168]",168,l,0.5127176786772907,colour,0.06
032,66,1,1,14,6,656,1029.782236682484,1030.7833697772585,"[61, 0, 193]",193,a,0.477679569972679,colour,0.06
032,66,1,1,14,7,657,1031.288218414411,1031.887368337484,"[68, 0, 186]",186,a,0.08130909665487707,colour,0.06
032,66,1,1,14,8,658,1032.4112302802969,1033.2073445175774,"[97, 0, 157]",157,l,0.2792706289328635,colour,0.06
032,66,1,1,14,9,659,1033.727033269126,1034.3994046626613,"[58, 0, 196]",196,a,0.14082591072656214,colour,0.06
032,66,1,1,14,10,660,1034.9148544503842,1035.5833555201534,"[65, 0, 189]",189,a,0.15015690820291638,colour,0.06
032,66,1,1,14,11,661,1036.1049418211915,1036.6554545296822,"[15, 0, 239]",239,a,0.019089711597189307,colour,0.06
032,66,1,1,14,12,662,1037.169718447607,1038.1113548143767,"[95, 0, 159]",159,l,0.4232417931780219,colour,0.06
032,66,1,1,14,13,663,1038.6244178959168,1039.711364109069,"[75, 0, 179]",179,a,0.5578244582284242,colour,0.06
032,66,1,1,14,14,664,1040.2302135748323,1041.271355113713,"[81, 0, 173]",173,a,0.5098465420305729,colour,0.06
032,66,1,1,14,15,665,1041.7792611767072,1043.0713589733932,"[77, 0, 177]",177,l,0.774375518085435,colour,0.06
032,66,1,1,14,16,666,1043.5824784252327,1044.559353368124,"[55, 0, 199]",199,a,0.45350294443778694,colour,0.06
032,66,1,1,14,17,667,1045.0669262374286,1045.6873848000541,"[60, 0, 194]",194,a,0.09786244062706828,colour,0.06
032,66,1,1,14,18,668,1046.2076127266046,1047.1913508286234,"[88, 0, 166]",166,l,0.45684197009541094,colour,0.06
032,66,1,1,14,19,669,1047.6851611461025,1048.343362751184,"[96, 0, 158]",158,l,0.13495642505586147,colour,0.06
032,66,1,1,14,20,670,1048.8494453073945,1049.4073627132457,"[66, 0, 188]",188,a,0.03463165950961411,colour,0.06
032,66,1,1,14,21,671,1049.927564252168,1050.9433362057898,"[94, 0, 160]",160,l,0.49261657032184303,colour,0.06
032,66,1,1,14,22,672,1051.4513950811233,1052.479391618399,"[93, 0, 161]",161,l,0.5079545059707016,colour,0.06
032,66,1,1,14,23,673,1052.9859983837232,1054.0233735740185,"[52, 0, 202]",202,a,0.5142584040295333,colour,0.06
032,66,1,1,14,24,674,1054.5372471904848,1056.0153647172265,"[80, 0, 174]",174,l,0.9550507590174675,colour,0.06
032,66,1,1,14,25,675,1056.520909674,1057.5673582863528,"[84, 0, 170]",170,l,0.5233432475943118,colour,0.06
032,66,1,1,14,26,676,1058.0710435027722,1059.1193494927138,"[71, 0, 183]",183,a,0.5252258311957121,colour,0.06
032,66,1,1,14,27,677,1059.6335141612217,1060.783355205087,"[99, 0, 155]",155,l,0.6265092175453901,colour,0.06
032,66,1,1,14,28,678,1061.2897122721188,1062.679344435688,"[76, 0, 178]",178,a,0.8682089147623628,colour,0.06
032,66,1,1,14,29,679,1063.1931723658927,1064.1993927685544,"[70, 0, 184]",184,a,0.48290511779487133,colour,0.06
032,66,1,1,14,30,680,1064.712809917517,1065.8153595183976,"[49, 0, 205]",205,a,0.5792268333025277,colour,0.06
032,66,1,1,14,31,681,1066.3221899881028,1067.43933827593,"[98, 0, 156]",156,l,0.6035720249637961,colour,0.06
032,66,1,1,14,32,682,1067.9531303662807,1069.071345188655,"[51, 0, 203]",203,a,0.595098823774606,colour,0.06
032,66,1,1,14,33,683,1069.588285289472,1070.607356884284,"[59, 0, 195]",195,a,0.49575670389458537,colour,0.06
032,66,1,1,14,34,684,1071.1195924954955,1072.1676531194244,"[62, 0, 192]",192,a,0.5279989002738148,colour,0.06
032,66,1,1,14,35,685,1072.6895993957296,1073.8073502676561,"[87, 0, 167]",167,l,0.594306405633688,colour,0.06
032,66,1,1,14,36,686,1074.3146600481123,1075.383364893496,"[53, 0, 201]",201,a,0.5454332777298987,colour,0.06
032,66,1,1,14,37,687,1075.8927297620103,1076.951354908757,"[83, 0, 171]",171,l,0.5352259729988873,colour,0.06
032,66,1,1,14,38,688,1077.4628441820387,1078.5593762111384,"[82, 0, 172]",172,l,0.5731883875560015,colour,0.06
032,66,1,1,14,39,689,1079.0722474898212,1080.127374890959,"[10, 0, 244]",244,a,0.5318806457798928,colour,0.06
032,66,1,1,14,40,690,1080.6346413481515,1082.4713228971232,"[56, 0, 198]",198,a,1.3132937964983284,colour,0.06
032,66,1,1,14,41,691,1082.988412265433,1083.9833737944718,"[73, 0, 181]",181,a,0.47197353024967015,colour,0.06
032,66,1,1,14,42,692,1084.4947673631832,1085.2793556996621,"[91, 0, 163]",163,l,0.2613778149243444,colour,0.06
032,66,1,1,14,43,693,1085.7916318769567,1086.943394888891,"[78, 0, 176]",176,l,0.6284166134428233,colour,0.06
032,66,1,1,14,44,694,1087.460967506282,1088.5593517927919,"[89, 0, 165]",165,l,0.575144226429984,colour,0.06
032,66,1,1,14,45,695,1089.0703251278028,1090.0713164380286,"[72, 0, 182]",182,a,0.47796668391674757,colour,0.06
032,66,1,1,14,46,696,1090.5859478139319,1091.5433478637133,"[69, 0, 185]",185,a,0.43419661722145975,colour,0.06
032,66,1,1,14,47,697,1092.0425676549785,1092.9833568590693,"[74, 0, 180]",180,a,0.42180740600451827,colour,0.06
032,66,1,1,14,48,698,1093.4945385386236,1094.4953411966562,"[54, 0, 200]",200,a,0.4785487879998982,colour,0.06
032,66,1,1,14,49,699,1095.009116745554,1096.0473146797158,"[67, 0, 187]",187,a,0.5150449140928686,colour,0.06
032,66,1,1,14,50,700,1096.5558552285656,1098.0633481473196,"[90, 0, 164]",164,l,0.9894012124277651,colour,0.06
032,66,1,1,15,1,701,1110.1196649633348,1111.2153069006745,"[96, 0, 158]",158,l,0.5717331268824637,colour,0.06
032,66,1,1,15,2,702,1111.7249072887935,1112.4713291984517,"[84, 0, 170]",170,l,0.22798361908644438,colour,0.06
032,66,1,1,15,3,703,1112.9892810895108,1113.5755132602062,"[55, 0, 199]",199,a,0.06662691454403102,colour,0.06
032,66,1,1,15,4,704,1114.0877984960098,1114.6473716299515,"[54, 0, 200]",200,a,0.02767752204090357,colour,0.06
032,66,1,1,15,5,705,1115.1672167382203,1115.8873911804985,"[69, 0, 185]",185,a,0.20278417551890016,colour,0.06
032,66,1,1,15,6,706,1116.402003258001,1117.0153355726507,"[76, 0, 178]",178,a,0.08120590914040804,colour,0.06
032,66,1,1,15,7,707,1117.529644782655,1118.2393200802617,"[6, 0, 248]",248,a,0.19185928348451853,colour,0.06
032,66,1,1,15,8,708,1118.750848738011,1119.7113199983723,"[80, 0, 174]",174,l,0.4426280709449202,colour,0.06
032,66,1,1,15,9,709,1120.221916816663,1120.8553392116446,"[53, 0, 201]",201,a,0.11635705130174756,colour,0.06
032,66,1,1,15,10,710,1121.373094573617,1122.4073241164442,"[90, 0, 164]",164,l,0.5108902335632592,colour,0.06
032,66,1,1,15,11,711,1122.927748965798,1123.8873490388505,"[58, 0, 196]",196,a,0.43226952920667827,colour,0.06
032,66,1,1,15,12,712,1124.4060894094873,1125.511825223919,"[98, 0, 156]",156,l,0.5880517386831343,colour,0.06
032,66,1,1,15,13,713,1126.030178837711,1127.1433941801079,"[50, 0, 204]",204,a,0.5965202138759196,colour,0.06
032,66,1,1,15,14,714,1127.666895753704,1128.6473913223017,"[71, 0, 183]",183,a,0.4636007600929588,colour,0.06
032,66,1,1,15,15,715,1129.1592551430222,1129.8953661664855,"[65, 0, 189]",189,a,0.2039393256418407,colour,0.06
032,66,1,1,15,16,716,1130.4103535790928,1131.42333946703,"[95, 0, 159]",159,l,0.49296000436879694,colour,0.06
032,66,1,1,15,17,717,1131.941344527062,1133.000759335002,"[60, 0, 194]",194,a,0.5321516117546707,colour,0.06
032,66,1,1,15,18,718,1133.510636990657,1134.5833082585596,"[97, 0, 157]",157,l,0.5399072256404907,colour,0.06
032,66,1,1,15,19,719,1135.1017985369544,1136.111310703447,"[51, 0, 203]",203,a,0.49005539040081203,colour,0.06
032,66,1,1,15,20,720,1136.6330289430916,1137.559314377373,"[62, 0, 192]",192,a,0.40912123513408005,colour,0.06
032,66,1,1,15,21,721,1138.0695212881546,1139.4633920216002,"[86, 0, 168]",168,l,0.8766328850761056,colour,0.06
032,66,1,1,15,22,722,1139.982409659773,1140.9832851791289,"[64, 0, 190]",190,a,0.4833162927534431,colour,0.06
032,66,1,1,15,23,723,1141.500325316796,1142.4633097078186,"[63, 0, 191]",191,a,0.4413106560241431,colour,0.06
032,66,1,1,15,24,724,1142.9834454744123,1143.9353052936494,"[74, 0, 180]",180,a,0.43514421046711504,colour,0.06
032,66,1,1,15,25,725,1144.445919441292,1145.471295721596,"[83, 0, 171]",171,l,0.5018010572530329,colour,0.06
032,66,1,1,15,26,726,1145.9774857980665,1146.9913330266718,"[66, 0, 188]",188,a,0.4908285099081695,colour,0.06
032,66,1,1,15,27,727,1147.5129949462134,1148.5672964525875,"[85, 0, 169]",169,l,0.5310330893844366,colour,0.06
032,66,1,1,15,28,728,1149.0713636993896,1150.1433264384978,"[81, 0, 173]",173,l,0.5487845127936453,colour,0.06
032,66,1,1,15,29,729,1150.6494251426775,1151.6314551348332,"[52, 0, 202]",202,a,0.4586501168087125,colour,0.06
032,66,1,1,15,30,730,1152.149487764109,1153.103319176007,"[73, 0, 181]",181,a,0.4388861407060176,colour,0.06
032,66,1,1,15,31,731,1153.6123918106314,1154.5672602187842,"[82, 0, 172]",172,a,0.44106765324249864,colour,0.06
032,66,1,1,15,32,732,1155.0874326131307,1156.127286275616,"[92, 0, 162]",162,l,0.5167935900390148,colour,0.06
032,66,1,1,15,33,733,1156.6220083464868,1157.7272865120322,"[89, 0, 165]",165,l,0.5821038777939975,colour,0.06
032,66,1,1,15,34,734,1158.242516927654,1159.255351578351,"[61, 0, 193]",193,a,0.48962019057944417,colour,0.06
032,66,1,1,15,35,735,1159.7759784709197,1160.8792964653112,"[93, 0, 161]",161,l,0.5922154779545963,colour,0.06
032,66,1,1,15,36,736,1161.3887779118959,1162.4556368016638,"[70, 0, 184]",184,a,0.543546361848712,colour,0.06
032,66,1,1,15,37,737,1162.9762455772143,1164.1033305975143,"[78, 0, 176]",176,a,0.5967057151719928,colour,0.06
032,66,1,1,15,38,738,1164.624243028229,1165.623328911839,"[94, 0, 160]",160,l,0.47574618039652705,colour,0.06
032,66,1,1,15,39,739,1166.1398527175188,1167.1913169578183,"[68, 0, 186]",186,a,0.5282328447792679,colour,0.06
032,66,1,1,15,40,740,1167.6907785704825,1168.751334743807,"[91, 0, 163]",163,l,0.5372495532501489,colour,0.06
032,66,1,1,15,41,741,1169.268886881182,1170.3112954222597,"[31, 0, 223]",223,a,0.5192192869726568,colour,0.06
032,66,1,1,15,42,742,1170.8313965303823,1171.871268703835,"[72, 0, 182]",182,a,0.5165434980299324,colour,0.06
032,66,1,1,15,43,743,1172.3782775858417,1173.3555770947132,"[1, 0, 253]",253,a,0.45304332626983523,colour,0.06
032,66,1,1,15,44,744,1173.8687973206397,1174.943310212111,"[79, 0, 175]",175,l,0.5512176929041743,colour,0.06
032,66,1,1,15,45,745,1175.462527530035,1176.5512740127742,"[67, 0, 187]",187,a,0.5653859057929367,colour,0.06
032,66,1,1,15,46,746,1177.0719556498807,1178.1754930163734,"[77, 0, 177]",177,a,0.5916290411259979,colour,0.06
032,66,1,1,15,47,747,1178.6859740440268,1179.7272581551224,"[87, 0, 167]",167,l,0.5214732673484832,colour,0.06
032,66,1,1,15,48,748,1180.2450162738096,1181.5432986330707,"[75, 0, 179]",179,a,0.7750241821631789,colour,0.06
032,66,1,1,15,49,749,1182.0574932338204,1182.7352709502447,"[59, 0, 195]",195,a,0.15698737790808082,colour,0.06
032,66,1,1,15,50,750,1183.2484462780412,1183.7832961280365,"[56, 0, 198]",198,a,0.006858826614916325,colour,0.06
032,66,1,1,16,1,751,1188.504892748082,1190.0312989354134,"[64, 0, 190]",190,a,1.0083014843985438,colour,0.06
032,66,1,1,16,2,752,1190.5496458539274,1191.799305177061,"[91, 0, 163]",163,l,0.73273497633636,colour,0.06
032,66,1,1,16,3,753,1192.3140684915707,1193.0632548057474,"[52, 0, 202]",202,a,0.2264988198876381,colour,0.06
032,66,1,1,16,4,754,1193.5725279080216,1195.255301166093,"[70, 0, 184]",184,a,1.165678375866264,colour,0.06
032,66,1,1,16,5,755,1195.7694536254276,1196.3272804466542,"[71, 0, 183]",183,a,0.03460999787785113,colour,0.06
032,66,1,1,16,6,756,1196.847553665517,1197.3832841552794,"[67, 0, 187]",187,a,0.012402602005749941,colour,0.06
032,66,1,1,16,7,757,1197.8835535456892,1200.943315332057,"[66, 0, 188]",188,a,2.536859252024442,colour,0.06
032,66,1,1,16,8,758,1201.4616071120836,1202.1512766121887,"[77, 0, 177]",177,a,0.16635185247287154,colour,0.06
032,66,1,1,16,9,759,1202.6647819827776,1203.511322676437,"[78, 0, 176]",176,a,0.3239512669388205,colour,0.06
032,66,1,1,16,10,760,1204.0239265337586,1205.0713042286225,"[94, 0, 160]",160,l,0.5299614344257861,colour,0.06
032,66,1,1,16,11,761,1205.5837773289531,1206.7032662429847,"[30, 0, 224]",224,a,0.6023696132469922,colour,0.06
032,66,1,1,16,12,762,1207.2229230930097,1207.775297511369,"[51, 0, 203]",203,a,0.03362932172603905,colour,0.06
032,66,1,1,16,13,763,1208.285205099266,1209.287218045909,"[82, 0, 172]",172,l,0.4695226273033768,colour,0.06
032,66,1,1,16,14,764,1209.7977510611527,1210.5593257988803,"[97, 0, 157]",157,l,0.24232551828026772,colour,0.06
032,66,1,1,16,15,765,1211.081633625785,1212.1592976783868,"[76, 0, 178]",178,a,0.5583364579360932,colour,0.06
032,66,1,1,16,16,766,1212.6656311145052,1213.639280459378,"[55, 0, 199]",199,a,0.4559195830952376,colour,0.06
032,66,1,1,16,17,767,1214.1570299135055,1215.0793048148043,"[62, 0, 192]",192,a,0.40485667157918215,colour,0.06
032,66,1,1,16,18,768,1215.593350541778,1216.3353086020797,"[2, 0, 252]",252,a,0.20931650418788195,colour,0.06
032,66,1,1,16,19,769,1216.8443832057528,1217.8472697027028,"[86, 0, 168]",168,l,0.4708207433577627,colour,0.06
032,66,1,1,16,20,770,1218.3595167354215,1219.3512837802991,"[58, 0, 196]",196,a,0.47309165890328586,colour,0.06
032,66,1,1,16,21,771,1219.8614958112594,1220.8952858219855,"[88, 0, 166]",166,l,0.5167983162682503,colour,0.06
032,66,1,1,16,22,772,1221.406608892139,1222.39928965969,"[99, 0, 155]",155,l,0.4751089378260076,colour,0.06
032,66,1,1,16,23,773,1222.9115823784377,1224.1752295335755,"[69, 0, 185]",185,a,0.7461387347429991,colour,0.06
032,66,1,1,16,24,774,1224.6856132810935,1225.767287866911,"[92, 0, 162]",162,l,0.5582958918530494,colour,0.06
032,66,1,1,16,25,775,1226.279475034913,1227.3432847696822,"[57, 0, 197]",197,a,0.5407193361315876,colour,0.06
032,66,1,1,16,26,776,1227.8574963058345,1228.8232246213593,"[95, 0, 159]",159,l,0.4467315513174981,colour,0.06
032,66,1,1,16,27,777,1229.3376511975657,1230.4792671632022,"[93, 0, 161]",161,l,0.618835523724556,colour,0.06
032,66,1,1,16,28,778,1230.9816648971755,1232.0632492918521,"[59, 0, 195]",195,a,0.5586794975679368,colour,0.06
032,66,1,1,16,29,779,1232.5752950694878,1233.6792262818199,"[79, 0, 175]",175,l,0.577580557204783,colour,0.06
032,66,1,1,16,30,780,1234.202423018869,1235.2952855855692,"[98, 0, 156]",156,l,0.5599102659616619,colour,0.06
032,66,1,1,16,31,781,1235.8102769367397,1236.7993965493515,"[65, 0, 189]",189,a,0.4715269091539085,colour,0.06
032,66,1,1,16,32,782,1237.3099839154165,1238.351265663281,"[83, 0, 171]",171,l,0.5241793824825436,colour,0.06
032,66,1,1,16,33,783,1238.8718385989778,1239.8552683193702,"[74, 0, 180]",180,a,0.4516542316414416,colour,0.06
032,66,1,1,16,34,784,1240.3707921502646,1241.3752548184711,"[50, 0, 204]",204,a,0.48658088175579906,colour,0.06
032,66,1,1,16,35,785,1241.886386479484,1242.903277743375,"[72, 0, 182]",182,a,0.4989956929348409,colour,0.06
032,66,1,1,16,36,786,1243.41605449887,1244.3912429935299,"[68, 0, 186]",186,a,0.45638825953938067,colour,0.06
032,66,1,1,16,37,787,1244.905694775749,1245.9833544960711,"[81, 0, 173]",173,a,0.5544275371357799,colour,0.06
032,66,1,1,16,38,788,1246.4994407389313,1247.455227595754,"[75, 0, 179]",179,a,0.4326279289089143,colour,0.06
032,66,1,1,16,39,789,1247.9681382589042,1249.0555405458435,"[89, 0, 165]",165,l,0.5764313149265945,colour,0.06
032,66,1,1,16,40,790,1249.568339356687,1250.8312582904473,"[90, 0, 164]",164,l,0.739677298348397,colour,0.06
032,66,1,1,16,41,791,1251.3495701565407,1252.3672487186268,"[17, 0, 237]",237,a,0.49445740645751357,colour,0.06
032,66,1,1,16,42,792,1252.8836023826152,1253.975279473234,"[54, 0, 200]",200,a,0.5690313440281898,colour,0.06
032,66,1,1,16,43,793,1254.4984131949022,1255.6472349653486,"[85, 0, 169]",169,l,0.6319765865337104,colour,0.06
032,66,1,1,16,44,794,1256.1698094259482,1257.2472438663244,"[96, 0, 158]",158,l,0.5464568834286183,colour,0.06
032,66,1,1,16,45,795,1257.7612722641788,1258.7192500859965,"[56, 0, 198]",198,a,0.44087033648975194,colour,0.06
032,66,1,1,16,46,796,1259.2295920860488,1260.6152499504387,"[73, 0, 181]",181,a,0.8683310069609433,colour,0.06
032,66,1,1,16,47,797,1261.1331573368516,1262.1992190824822,"[87, 0, 167]",167,l,0.5472831721417606,colour,0.06
032,66,1,1,16,48,798,1262.7221172843128,1263.847263007192,"[53, 0, 201]",201,a,0.6018190167378634,colour,0.06
032,66,1,1,16,49,799,1264.3658099994063,1265.3512569987215,"[63, 0, 191]",191,a,0.4604759863577783,colour,0.06
032,66,1,1,16,50,800,1265.8744226219133,1267.0232585710473,"[80, 0, 174]",174,l,0.616925371112302,colour,0.06
