id,age,condition,counterbalance,block,trialinblock,trial,tstart,tend,trialstim,trialintensity,response,RT,trialtype,colourfreq
68,63,0,2,Practice,1,NA,5.513778887689114e-06,5.470682758139446,"[86, 0, 168]",168,l,4.946324814343825,colour,0.5
68,63,0,2,Practice,2,NA,5.985167791834101,10.422588752000593,"[48, 0, 206]",206,l,3.9140409339452162,colour,0.5
68,63,0,2,Practice,3,NA,10.93829667486716,15.134604849270545,"[32, 0, 222]",222,l,3.6731451568193734,colour,0.5
68,63,0,2,Practice,4,NA,15.641354764229618,23.270589731866494,"[53, 0, 201]",201,l,7.105942768743262,colour,0.5
68,63,0,2,Practice,5,NA,23.781986625748686,25.470604776754044,"[96, 0, 158]",158,a,1.165316105936654,colour,0.5
68,63,0,2,Practice,6,NA,25.98543284961488,27.35058558860328,"[41, 0, 213]",213,l,0.8422268161084503,colour,0.5
68,63,0,2,Practice,7,NA,27.860034130630083,29.038550350582227,"[88, 0, 166]",166,a,0.6551484029041603,colour,0.5
68,63,0,2,Practice,8,NA,29.549533313140273,31.33458287268877,"[17, 0, 237]",237,l,1.261790837510489,colour,0.5
68,63,0,2,Practice,9,NA,31.84636809793301,33.00662723230198,"[56, 0, 198]",198,l,0.6368865912081674,colour,0.5
68,63,0,2,Practice,10,NA,33.518184027285315,35.17455374391284,"[7, 0, 247]",247,l,1.1333020095480606,colour,0.5
68,63,0,2,1,1,1,4.661336891585961,6.359982733847573,"[62, 0, 192]",192,l,1.1745261747855693,colour,0.5
68,63,0,2,1,2,2,6.881555798579939,8.263964468846098,"[6, 0, 248]",248,l,0.8590711792930961,colour,0.5
68,63,0,2,1,3,3,8.772144829388708,9.752029188675806,"[58, 0, 196]",196,l,0.45655474509112537,colour,0.5
68,63,0,2,1,4,4,10.272171807824634,11.479979078867473,"[84, 0, 170]",170,a,0.684542641392909,colour,0.5
68,63,0,2,1,5,5,11.990821045008488,13.3920228240313,"[40, 0, 214]",214,l,0.8778048173990101,colour,0.5
68,63,0,2,1,6,6,13.912673503509723,15.24802358658053,"[60, 0, 194]",194,l,0.8090398488566279,colour,0.5
68,63,0,2,1,7,7,15.75924128096085,16.89599849388469,"[15, 0, 239]",239,l,0.6134531988063827,colour,0.5
68,63,0,2,1,8,8,17.415561766945757,18.559904437395744,"[93, 0, 161]",161,a,0.6194045927841216,colour,0.5
68,63,0,2,1,9,9,19.073409978183918,20.68796358036343,"[78, 0, 176]",176,a,1.0911877542966977,colour,0.5
68,63,0,2,1,10,10,21.198446753434837,22.39198934729211,"[25, 0, 229]",229,l,0.670181472087279,colour,0.5
68,63,0,2,1,11,11,22.90167065174319,23.90414360538125,"[36, 0, 218]",218,l,0.4792240777751431,colour,0.5
68,63,0,2,1,12,12,24.41715880902484,25.751922062714584,"[48, 0, 206]",206,l,0.8113379352726042,colour,0.5
68,63,0,2,1,13,13,26.260913744335994,27.375899197650142,"[57, 0, 197]",197,l,0.5917716296389699,colour,0.5
68,63,0,2,1,14,14,27.885871947510168,29.351906939060427,"[43, 0, 211]",211,l,0.9430176966125146,colour,0.5
68,63,0,2,1,15,15,29.870278042857535,31.392007464077324,"[61, 0, 193]",193,l,0.9986530495807528,colour,0.5
68,63,0,2,1,16,16,31.901575735071674,32.983935844153166,"[95, 0, 159]",159,a,0.5591269871219993,colour,0.5
68,63,0,2,1,17,17,33.495300048962235,34.66396344488021,"[34, 0, 220]",220,l,0.6453904955415055,colour,0.5
68,63,0,2,1,18,18,35.18276620283723,36.94391172507312,"[77, 0, 177]",177,a,1.2378100004279986,colour,0.5
68,63,0,2,1,19,19,37.46396612294484,38.48791308933869,"[49, 0, 205]",205,l,0.5006394075462595,colour,0.5
68,63,0,2,1,20,20,38.99523092911113,40.551900322549045,"[69, 0, 185]",185,l,1.0333815269405022,colour,0.5
68,63,0,2,1,21,21,41.073332390747964,42.25593790481798,"[33, 0, 221]",221,l,0.6592632969841361,colour,0.5
68,63,0,2,1,22,22,42.77637118170969,43.91992064809892,"[52, 0, 202]",202,l,0.6199957544449717,colour,0.5
68,63,0,2,1,23,23,44.43270387686789,45.655869927140884,"[82, 0, 172]",172,a,0.6997832671040669,colour,0.5
68,63,0,2,1,24,24,46.167026575421914,47.35987875866704,"[54, 0, 200]",200,l,0.6694654615130275,colour,0.5
68,63,0,2,1,25,25,47.87279589485843,49.68785842368379,"[79, 0, 175]",175,a,1.2917140101781115,colour,0.5
68,63,0,2,1,26,26,50.200900408788584,51.19987956213299,"[19, 0, 235]",235,l,0.4756944376276806,colour,0.5
68,63,0,2,1,27,27,51.71647127345204,52.695862932363525,"[11, 0, 243]",243,l,0.45601084490772337,colour,0.5
68,63,0,2,1,28,28,53.21650849189609,54.18386503076181,"[9, 0, 245]",245,l,0.44403755862731487,colour,0.5
68,63,0,2,1,29,29,54.70082971348893,55.99188797152601,"[31, 0, 223]",223,l,0.7676971362670884,colour,0.5
68,63,0,2,1,30,30,56.499617379391566,57.74388092639856,"[10, 0, 244]",244,l,0.720862646936439,colour,0.5
68,63,0,2,1,31,31,58.265293302363716,59.59991910413373,"[8, 0, 246]",246,l,0.8113198183709756,colour,0.5
68,63,0,2,1,32,32,60.10900845937431,61.239841453614645,"[38, 0, 216]",216,l,0.607551429187879,colour,0.5
68,63,0,2,1,33,33,61.74960349639878,62.75185904756654,"[75, 0, 179]",179,a,0.478959807776846,colour,0.5
68,63,0,2,1,34,34,63.265162151888944,64.24787313770503,"[4, 0, 250]",250,l,0.45927070116158575,colour,0.5
68,63,0,2,1,35,35,64.76518794882577,65.91985369438771,"[94, 0, 160]",160,a,0.6313751221168786,colour,0.5
68,63,0,2,1,36,36,66.43706649949308,67.91984739282634,"[70, 0, 184]",184,l,0.9596521401545033,colour,0.5
68,63,0,2,1,37,37,68.43708619184326,70.05584133393131,"[17, 0, 237]",237,l,1.095627176691778,colour,0.5
68,63,0,2,1,38,38,70.56203789659776,71.75180863530841,"[68, 0, 186]",186,a,0.6664545154199004,colour,0.5
68,63,0,2,1,39,39,72.2651538811624,73.59179959259927,"[81, 0, 173]",173,a,0.8036138442112133,colour,0.5
68,63,0,2,1,40,40,74.10896395484451,75.57585162122268,"[74, 0, 180]",180,a,0.9436033443780616,colour,0.5
68,63,0,2,1,41,41,76.09323259827215,77.39978787500877,"[46, 0, 208]",208,l,0.7831988811958581,colour,0.5
68,63,0,2,1,42,42,77.92149602866266,79.42377619515173,"[56, 0, 198]",198,l,0.9790828843833879,colour,0.5
68,63,0,2,1,43,43,79.9370119520463,81.02384889894165,"[5, 0, 249]",249,l,0.5637282798998058,colour,0.5
68,63,0,2,1,44,44,81.53068270301446,82.25579257588834,"[45, 0, 209]",209,l,0.20170503435656428,colour,0.5
68,63,0,2,1,45,45,82.76508594292682,83.7997458911268,"[98, 0, 156]",156,a,0.5113527833018452,colour,0.5
68,63,0,2,1,46,46,84.29954168235417,85.63981482968666,"[99, 0, 155]",155,a,0.8168994225561619,colour,0.5
68,63,0,2,1,47,47,86.15893699612934,87.53583971131593,"[35, 0, 219]",219,l,0.8536120917415246,colour,0.5
68,63,0,2,1,48,48,88.04950279020704,89.2637695154408,"[0, 0, 254]",254,l,0.6912557318573818,colour,0.5
68,63,0,2,1,49,49,89.78384715027642,91.04786754515953,"[85, 0, 169]",169,a,0.7403205663431436,colour,0.5
68,63,0,2,1,50,50,91.56547695235349,92.87977916316595,"[2, 0, 252]",252,l,0.7909647198393941,colour,0.5
68,63,0,2,2,1,51,98.79899600998033,100.59975723386742,"[78, 0, 176]",176,a,1.2765785412630066,colour,0.5
68,63,0,2,2,2,52,101.11231045704335,102.3837166299345,"[43, 0, 211]",211,l,0.7480052728205919,colour,0.5
68,63,0,2,2,3,53,102.89353066019248,103.54375009110663,"[50, 0, 204]",204,l,0.12675078946631402,colour,0.5
68,63,0,2,2,4,54,104.06534402957186,105.21572789084166,"[97, 0, 157]",157,a,0.6269620873499662,colour,0.5
68,63,0,2,2,5,55,105.7372170665767,106.93571226298809,"[40, 0, 214]",214,l,0.6753172127064317,colour,0.5
68,63,0,2,2,6,56,107.45598760806024,108.51171630225144,"[53, 0, 201]",201,l,0.5323124341666698,colour,0.5
68,63,0,2,2,7,57,109.01844534347765,110.11169645248447,"[2, 0, 252]",252,l,0.5698923503514379,colour,0.5
68,63,0,2,2,8,58,110.6277919189306,111.3757593826158,"[41, 0, 213]",213,l,0.22460752341430634,colour,0.5
68,63,0,2,2,9,59,111.8934440142475,112.97569581598509,"[95, 0, 159]",159,a,0.5607476597651839,colour,0.5
68,63,0,2,2,10,60,113.48521918861661,114.65568521374371,"[33, 0, 221]",221,l,0.6471375925466418,colour,0.5
68,63,0,2,2,11,61,115.17275426536798,116.36770485562738,"[21, 0, 233]",233,l,0.671629246789962,colour,0.5
68,63,0,2,2,12,62,116.87590175762307,118.45564732584171,"[62, 0, 192]",192,a,1.0564939354080707,colour,0.5
68,63,0,2,2,13,63,118.95720321102999,120.08767268632073,"[11, 0, 243]",243,l,0.6072005132446066,colour,0.5
68,63,0,2,2,14,64,120.59766315913294,121.87168761459179,"[98, 0, 156]",156,a,0.750645216787234,colour,0.5
68,63,0,2,2,15,65,122.3789148699725,123.71170614112634,"[68, 0, 186]",186,l,0.8091839961707592,colour,0.5
68,63,0,2,2,16,66,124.2227749619633,125.40764469176065,"[94, 0, 160]",160,a,0.6615361771546304,colour,0.5
68,63,0,2,2,17,67,125.92655536334496,127.13575093855616,"[65, 0, 189]",189,l,0.6857044845819473,colour,0.5
68,63,0,2,2,18,68,127.63295207812916,128.72771437081974,"[32, 0, 222]",222,l,0.5714299216633663,colour,0.5
68,63,0,2,2,19,69,129.24427181773353,130.3996933521703,"[42, 0, 212]",212,l,0.6322081045946106,colour,0.5
68,63,0,2,2,20,70,130.9161330392817,132.09568389039487,"[30, 0, 224]",224,l,0.6558518102392554,colour,0.5
68,63,0,2,2,21,71,132.60400209680665,133.9917284642579,"[18, 0, 236]",236,l,0.8768780998652801,colour,0.5
68,63,0,2,2,22,72,134.49971662834287,135.56766751909163,"[27, 0, 227]",227,l,0.5445913443109021,colour,0.5
68,63,0,2,2,23,73,136.0778604283696,137.2717098274734,"[82, 0, 172]",172,a,0.6705804371740669,colour,0.5
68,63,0,2,2,24,74,137.78096105298027,139.14363650605083,"[14, 0, 240]",240,l,0.8393316605361179,colour,0.5
68,63,0,2,2,25,75,139.65592624701094,141.03160528524313,"[49, 0, 205]",205,l,0.852358088712208,colour,0.5
68,63,0,2,2,26,76,141.54656923457514,142.8636614443967,"[99, 0, 155]",155,a,0.7937594449613243,colour,0.5
68,63,0,2,2,27,77,143.3746770961443,144.8236310237553,"[76, 0, 178]",178,a,0.92555302742403,colour,0.5
68,63,0,2,2,28,78,145.3434109116206,146.67167453898583,"[9, 0, 245]",245,l,0.8049068379914388,colour,0.5
68,63,0,2,2,29,79,147.18714418553282,148.45561778743286,"[90, 0, 164]",164,a,0.7453239749884233,colour,0.5
68,63,0,2,2,30,80,148.96850184060168,151.18361218227074,"[72, 0, 182]",182,a,1.6922045049723238,colour,0.5
68,63,0,2,2,31,81,151.6904097525403,152.9756012931466,"[91, 0, 163]",163,a,0.7618654711404815,colour,0.5
68,63,0,2,2,32,82,153.48729081405327,154.91961856884882,"[19, 0, 235]",235,l,0.9090863619931042,colour,0.5
68,63,0,2,2,33,83,155.44038779567927,157.02367088093888,"[22, 0, 232]",232,l,1.0598487083334476,colour,0.5
68,63,0,2,2,34,84,157.53408473730087,158.89565269788727,"[51, 0, 203]",203,l,0.838454567361623,colour,0.5
68,63,0,2,2,35,85,159.4091322448803,161.10359545168467,"[45, 0, 209]",209,l,1.1711694325786084,colour,0.5
68,63,0,2,2,36,86,161.60290051193442,162.9915701384889,"[20, 0, 234]",234,l,0.8655180304776877,colour,0.5
68,63,0,2,2,37,87,163.51107118395157,164.83159260335378,"[44, 0, 210]",210,l,0.797499398351647,colour,0.5
68,63,0,2,2,38,88,165.33924442378338,166.66358141507953,"[37, 0, 217]",217,l,0.8010369155090302,colour,0.5
68,63,0,2,2,39,89,167.18292492243927,168.5595507643884,"[54, 0, 200]",200,l,0.853279686300084,colour,0.5
68,63,0,2,2,40,90,169.07358760235365,170.3196573231835,"[8, 0, 246]",246,l,0.7228019403992221,colour,0.5
68,63,0,2,2,41,91,170.8391686086543,172.207557179383,"[88, 0, 166]",166,a,0.8450113013386726,colour,0.5
68,63,0,2,2,42,92,172.71490967751015,174.05554437474348,"[85, 0, 169]",169,a,0.8172936616465449,colour,0.5
68,63,0,2,2,43,93,174.57473585789558,176.0635453388095,"[35, 0, 219]",219,l,0.9654845929471776,colour,0.5
68,63,0,2,2,44,94,176.57471892249305,177.91156916168984,"[39, 0, 215]",215,l,0.813483209698461,colour,0.5
68,63,0,2,2,45,95,178.4071114254184,179.68756619060878,"[63, 0, 191]",191,l,0.7571117603220046,colour,0.5
68,63,0,2,2,46,96,180.2042524247663,181.89552784897387,"[70, 0, 184]",184,a,1.168221501633525,colour,0.5
68,63,0,2,2,47,97,182.40712284692563,183.74349377665203,"[83, 0, 171]",171,a,0.8130661278264597,colour,0.5
68,63,0,2,2,48,98,184.25142050092109,185.6955372224329,"[79, 0, 175]",175,a,0.9217480894876644,colour,0.5
68,63,0,2,2,49,99,186.2039668870857,187.8555001852801,"[67, 0, 187]",187,a,1.128308446961455,colour,0.5
68,63,0,2,2,50,100,188.3757562318351,189.91960517806,"[34, 0, 220]",220,l,1.0205295720370486,colour,0.5
68,63,0,2,3,1,101,200.20722477405798,201.65549971268047,"[36, 0, 218]",218,l,0.9222222791286185,colour,0.5
68,63,0,2,3,2,102,202.1505323407473,203.47943124035373,"[72, 0, 182]",182,a,0.8056067007128149,colour,0.5
68,63,0,2,3,3,103,203.9942664023256,205.18344440415967,"[4, 0, 250]",250,l,0.6657841909909621,colour,0.5
68,63,0,2,3,4,104,205.69740680535324,206.92752067779656,"[75, 0, 179]",179,a,0.7191608420107514,colour,0.5
68,63,0,2,3,5,105,207.43492792034522,208.69545648421627,"[9, 0, 245]",245,l,0.7371296329656616,colour,0.5
68,63,0,2,3,6,106,209.2162568247877,210.54345391946845,"[67, 0, 187]",187,a,0.8038808712735772,colour,0.5
68,63,0,2,3,7,107,211.05060516274534,212.34347038227133,"[40, 0, 214]",214,l,0.7684033006662503,colour,0.5
68,63,0,2,3,8,108,212.8650099701481,216.07144114631228,"[59, 0, 195]",195,l,2.683130706544034,colour,0.5
68,63,0,2,3,9,109,216.5837734224042,217.9754248505924,"[91, 0, 163]",163,a,0.8682753402972594,colour,0.5
68,63,0,2,3,10,110,218.48996659799013,219.8475015842123,"[62, 0, 192]",192,l,0.8317970091011375,colour,0.5
68,63,0,2,3,11,111,220.36733464116696,221.46351556410082,"[31, 0, 223]",223,l,0.5727969582658261,colour,0.5
68,63,0,2,3,12,112,221.97668515506666,223.2394397315802,"[5, 0, 249]",249,l,0.73930168885272,colour,0.5
68,63,0,2,3,13,113,223.75800500100013,225.06341261300258,"[86, 0, 168]",168,a,0.7820929639274254,colour,0.5
68,63,0,2,3,14,114,225.57034842297435,227.15944387484342,"[92, 0, 162]",162,a,1.0658910805359483,colour,0.5
68,63,0,2,3,15,115,227.67976057366468,228.8634550694842,"[8, 0, 246]",246,l,0.6602880819700658,colour,0.5
68,63,0,2,3,16,116,229.38287931517698,230.70343263610266,"[88, 0, 166]",166,a,0.7977660315809771,colour,0.5
68,63,0,2,3,17,117,231.2108064017957,232.6553977067815,"[84, 0, 170]",170,a,0.9204094099113718,colour,0.5
68,63,0,2,3,18,118,233.1654992440017,234.63157440780196,"[97, 0, 157]",157,a,0.9435371784493327,colour,0.5
68,63,0,2,3,19,119,235.14966666908003,237.28743094415404,"[71, 0, 183]",183,l,1.6143318673130125,colour,0.5
68,63,0,2,3,20,120,237.79438329557888,238.79954936238937,"[17, 0, 237]",237,l,0.48223975009750575,colour,0.5
68,63,0,2,3,21,121,239.30997660954017,240.575373886968,"[0, 0, 254]",254,l,0.7426635510055348,colour,0.5
68,63,0,2,3,22,122,241.09164422075264,242.27949969063047,"[30, 0, 224]",224,l,0.6647078122477978,colour,0.5
68,63,0,2,3,23,123,242.794859454385,244.1354059302248,"[14, 0, 240]",240,l,0.8177032604580745,colour,0.5
68,63,0,2,3,24,124,244.65445169073064,246.0394786435645,"[43, 0, 211]",211,l,0.862361361621879,colour,0.5
68,63,0,2,3,25,125,246.5449903093977,247.50339789898135,"[77, 0, 177]",177,a,0.435717579908669,colour,0.5
68,63,0,2,3,26,126,248.0137211709516,249.26334731350653,"[48, 0, 206]",206,l,0.7261701041134074,colour,0.5
68,63,0,2,3,27,127,249.77923994977027,251.49538590712473,"[20, 0, 234]",234,l,1.1926985835889354,colour,0.5
68,63,0,2,3,28,128,252.0135037684813,253.36736457340885,"[19, 0, 235]",235,l,0.8303311174968258,colour,0.5
68,63,0,2,3,29,129,253.87296800513286,255.1354405885795,"[18, 0, 236]",236,l,0.7398302290821448,colour,0.5
68,63,0,2,3,30,130,255.65433708182536,256.8474267536076,"[50, 0, 204]",204,l,0.6699920324608684,colour,0.5
68,63,0,2,3,31,131,257.35764408134855,258.39153760683257,"[6, 0, 248]",248,l,0.5111129315337166,colour,0.5
68,63,0,2,3,32,132,258.9041432115482,259.94341981248,"[90, 0, 164]",164,a,0.5161588755436242,colour,0.5
68,63,0,2,3,33,133,260.4512134172255,262.06342206534464,"[58, 0, 196]",196,l,1.0894579864107072,colour,0.5
68,63,0,2,3,34,134,262.5760749314213,263.85535367485136,"[23, 0, 231]",231,l,0.7562141871312633,colour,0.5
68,63,0,2,3,35,135,264.37298159278,265.62334816425573,"[80, 0, 174]",174,a,0.7273622733773664,colour,0.5
68,63,0,2,3,36,136,266.1386602726998,267.48735737393145,"[82, 0, 172]",172,a,0.8254167177947238,colour,0.5
68,63,0,2,3,37,137,268.0511065275641,269.33533078455366,"[49, 0, 205]",205,l,0.7673840293427929,colour,0.5
68,63,0,2,3,38,138,269.8416474700207,271.10338553227484,"[65, 0, 189]",189,l,0.7383603990310803,colour,0.5
68,63,0,2,3,39,139,271.6228495562682,272.3593510062201,"[61, 0, 193]",193,l,0.21350424119737,colour,0.5
68,63,0,2,3,40,140,272.8727825040696,273.95934691024013,"[93, 0, 161]",161,a,0.5635742865270004,colour,0.5
68,63,0,2,3,41,141,274.466693894472,275.63128256856,"[55, 0, 199]",199,l,0.6412106170319021,colour,0.5
68,63,0,2,3,42,142,276.13868193421513,277.56730321224313,"[38, 0, 216]",216,l,0.9053814606741071,colour,0.5
68,63,0,2,3,43,143,278.076096789795,280.4873337431345,"[3, 0, 251]",251,l,1.8879183669341728,colour,0.5
68,63,0,2,3,44,144,280.9979701221455,282.52730193617754,"[32, 0, 222]",222,l,1.0058552956907079,colour,0.5
68,63,0,2,3,45,145,283.04483808821533,284.4392669124063,"[56, 0, 198]",198,l,0.8711224468424916,colour,0.5
68,63,0,2,3,46,146,284.95107813132927,286.3673496072879,"[64, 0, 190]",190,l,0.8929418617626652,colour,0.5
68,63,0,2,3,47,147,286.88850007613655,288.08726938883774,"[94, 0, 160]",160,a,0.6754471815656871,colour,0.5
68,63,0,2,3,48,148,288.60731354681775,290.119310660637,"[44, 0, 210]",210,l,0.9886438690591604,colour,0.5
68,63,0,2,3,49,149,290.63851947302464,292.5672591016628,"[27, 0, 227]",227,l,1.4053682668600231,colour,0.5
68,63,0,2,3,50,150,293.0759778484935,294.2152647288749,"[12, 0, 242]",242,l,0.615899370983243,colour,0.5
68,63,0,2,4,1,151,301.0026104055578,302.51929467055015,"[52, 0, 202]",202,l,0.9927118956111372,colour,0.5
68,63,0,2,4,2,152,303.03468948660884,303.7434988965979,"[45, 0, 209]",209,l,0.1859563485486433,colour,0.5
68,63,0,2,4,3,153,304.2534606187837,305.5833500388544,"[59, 0, 195]",195,l,0.8070209985598922,colour,0.5
68,63,0,2,4,4,154,306.0859267708147,307.0952297869371,"[2, 0, 252]",252,l,0.4860159372910857,colour,0.5
68,63,0,2,4,5,155,307.6017591486452,308.63121994712856,"[60, 0, 194]",194,l,0.5154964280081913,colour,0.5
68,63,0,2,4,6,156,309.13919275137596,310.16719829197973,"[17, 0, 237]",237,l,0.5046038528671488,colour,0.5
68,63,0,2,4,7,157,310.6860573698068,311.90318380470853,"[91, 0, 163]",163,a,0.6938992205541581,colour,0.5
68,63,0,2,4,8,158,312.42042811750434,313.69514416507445,"[3, 0, 251]",251,l,0.7514833193272352,colour,0.5
68,63,0,2,4,9,159,314.20161444996484,315.71119808079675,"[87, 0, 167]",167,a,0.9862792227650061,colour,0.5
68,63,0,2,4,10,160,316.2329960311763,317.8231430496089,"[62, 0, 192]",192,l,1.0669048379641026,colour,0.5
68,63,0,2,4,11,161,318.34229239134584,319.7992240462918,"[30, 0, 224]",224,l,0.9429645275231451,colour,0.5
68,63,0,2,4,12,162,320.31732497224584,321.5671933294507,"[40, 0, 214]",214,l,0.7265155062777922,colour,0.5
68,63,0,2,4,13,163,322.0829422122333,323.56718545255717,"[90, 0, 164]",164,a,0.960937256924808,colour,0.5
68,63,0,2,4,14,164,324.086302499054,325.7271562922979,"[15, 0, 239]",239,l,1.1176458772970363,colour,0.5
68,63,0,2,4,15,165,326.24247076385655,327.75113476626575,"[74, 0, 180]",180,a,0.9851843332871795,colour,0.5
68,63,0,2,4,16,166,328.2582076343242,329.97513025440276,"[13, 0, 241]",241,l,1.193584735156037,colour,0.5
68,63,0,2,4,17,167,330.4925021730596,331.81516965467017,"[85, 0, 169]",169,a,0.7992717016022652,colour,0.5
68,63,0,2,4,18,168,332.3363039760152,333.79918899410404,"[86, 0, 168]",168,a,0.9398326709633693,colour,0.5
68,63,0,2,4,19,169,334.32064666214865,335.6871688008541,"[80, 0, 174]",174,a,0.8415466456208378,colour,0.5
68,63,0,2,4,20,170,336.19726088573225,338.19912141026,"[72, 0, 182]",182,l,1.4785088550997898,colour,0.5
68,63,0,2,4,21,171,338.71290658111684,339.4631741003832,"[29, 0, 225]",225,l,0.2270064342301339,colour,0.5
68,63,0,2,4,22,172,339.9784799073823,341.07111543638166,"[6, 0, 248]",248,l,0.5692555026616901,colour,0.5
68,63,0,2,4,23,173,341.5878741381457,342.70307896321174,"[96, 0, 158]",158,a,0.5924789756536484,colour,0.5
68,63,0,2,4,24,174,343.2128713319544,344.9511628081091,"[68, 0, 186]",186,l,1.215011486550793,colour,0.5
68,63,0,2,4,25,175,345.4506076833932,346.07115009473637,"[14, 0, 240]",240,l,0.10645122290588915,colour,0.5
68,63,0,2,4,26,176,346.5818353104405,347.8550909801852,"[94, 0, 160]",160,a,0.7498984864214435,colour,0.5
68,63,0,2,4,27,177,348.3629791076528,349.8871082274709,"[53, 0, 201]",201,l,1.000639604520984,colour,0.5
68,63,0,2,4,28,178,350.3942606522469,351.7911163500976,"[92, 0, 162]",162,a,0.873446527053602,colour,0.5
68,63,0,2,4,29,179,352.3024600748904,353.6151329482673,"[24, 0, 230]",230,l,0.7894893757766113,colour,0.5
68,63,0,2,4,30,180,354.13063134555705,355.4311036840081,"[20, 0, 234]",234,l,0.7771411489229649,colour,0.5
68,63,0,2,4,31,181,355.9430330565665,357.5190567880636,"[16, 0, 238]",238,l,1.052585809957236,colour,0.5
68,63,0,2,4,32,182,358.03678631805815,359.14310284599196,"[5, 0, 249]",249,l,0.5833019898273051,colour,0.5
68,63,0,2,4,33,183,359.6617685458623,360.73505170596763,"[26, 0, 228]",228,l,0.5499054968822747,colour,0.5
68,63,0,2,4,34,184,361.25546371517703,362.5030517090345,"[73, 0, 181]",181,a,0.7240646078716964,colour,0.5
68,63,0,2,4,35,185,363.02111679513473,364.6070165875135,"[19, 0, 235]",235,l,1.062440603156574,colour,0.5
68,63,0,2,4,36,186,365.1269280196866,366.5030654936563,"[0, 0, 254]",254,l,0.8533556985203177,colour,0.5
68,63,0,2,4,37,187,367.0169278582325,368.3830994745949,"[89, 0, 165]",165,a,0.8427671716781333,colour,0.5
68,63,0,2,4,38,188,368.89202774711885,370.44704417244066,"[84, 0, 170]",170,a,1.0317569156177342,colour,0.5
68,63,0,2,4,39,189,370.95778767729644,372.59108476375695,"[79, 0, 175]",175,a,1.108446836238727,colour,0.5
68,63,0,2,4,40,190,373.0998732212465,374.7350324075669,"[48, 0, 206]",206,l,1.1118067292263731,colour,0.5
68,63,0,2,4,41,191,375.2561474303948,376.5430384129286,"[69, 0, 185]",185,l,0.7636090236483142,colour,0.5
68,63,0,2,4,42,192,377.05295484291855,378.12698552105576,"[39, 0, 215]",215,l,0.5509235865902156,colour,0.5
68,63,0,2,4,43,193,378.64670869521797,379.6229732235661,"[42, 0, 212]",212,l,0.45290340669453144,colour,0.5
68,63,0,2,4,44,194,380.13109962746967,381.19102356012445,"[33, 0, 221]",221,l,0.5366805706871673,colour,0.5
68,63,0,2,4,45,195,381.7091678091092,382.75098746817093,"[12, 0, 242]",242,l,0.5184187589911744,colour,0.5
68,63,0,2,4,46,196,383.27171061513945,384.44708513235673,"[34, 0, 220]",220,l,0.6520291492342949,colour,0.5
68,63,0,2,4,47,197,384.9498532729922,386.2630440527573,"[81, 0, 173]",173,a,0.7898213872686028,colour,0.5
68,63,0,2,4,48,198,386.77801036520395,388.59900853422005,"[70, 0, 184]",184,l,1.297664616489783,colour,0.5
68,63,0,2,4,49,199,389.10618222656194,390.26300112355966,"[76, 0, 178]",178,l,0.6335010981420055,colour,0.5
68,63,0,2,4,50,200,390.77799382363446,391.80697019258514,"[23, 0, 231]",231,l,0.5056097332853824,colour,0.5
68,63,0,2,5,1,201,399.9959181888262,402.17498185357545,"[29, 0, 225]",225,l,1.6549022495746613,colour,0.5
68,63,0,2,5,2,202,402.6841590362601,403.9509560393635,"[77, 0, 177]",177,a,0.7432952787494287,colour,0.5
68,63,0,2,5,3,203,404.45676230138633,405.8869676247705,"[38, 0, 216]",216,l,0.9067823679652065,colour,0.5
68,63,0,2,5,4,204,406.3943189412821,407.77499075443484,"[74, 0, 180]",180,a,0.8574725617654622,colour,0.5
68,63,0,2,5,5,205,408.286679487559,409.5429785484448,"[54, 0, 200]",200,l,0.7330450649606064,colour,0.5
68,63,0,2,5,6,206,410.05235186591744,411.49491447454784,"[7, 0, 247]",247,l,0.9194129817187786,colour,0.5
68,63,0,2,5,7,207,412.00548350589816,413.4229219449917,"[81, 0, 173]",173,a,0.8940875573316589,colour,0.5
68,63,0,2,5,8,208,413.94291884149425,415.16698207100853,"[41, 0, 213]",213,l,0.700629640254192,colour,0.5
68,63,0,2,5,9,209,415.6773073122604,417.0389627063414,"[75, 0, 179]",179,a,0.8387200189754367,colour,0.5
68,63,0,2,5,10,210,417.552381207468,418.92698780528735,"[69, 0, 185]",185,l,0.8515731552615762,colour,0.5
68,63,0,2,5,11,211,419.44285878015216,420.5829073569039,"[22, 0, 232]",232,a,0.616873349994421,colour,0.5
68,63,0,2,5,12,212,421.09917572152335,422.2389025267912,"[12, 0, 242]",242,l,0.6163956158561632,colour,0.5
68,63,0,2,5,13,213,422.75540916761383,424.02292257512454,"[98, 0, 156]",156,a,0.7442034855484962,colour,0.5
68,63,0,2,5,14,214,424.53665339539293,425.69492479332257,"[10, 0, 244]",244,l,0.635093808057718,colour,0.5
68,63,0,2,5,15,215,426.20850831537973,427.22291832161136,"[47, 0, 207]",207,l,0.4910610936349258,colour,0.5
68,63,0,2,5,16,216,427.7397475215839,429.1508844383061,"[97, 0, 157]",157,a,0.8877222320297733,colour,0.5
68,63,0,2,5,17,217,429.661660632235,430.98286458535586,"[16, 0, 238]",238,l,0.7979464125819504,colour,0.5
68,63,0,2,5,18,218,431.48975274001714,432.93487140361685,"[89, 0, 165]",165,a,0.9217882617376745,colour,0.5
68,63,0,2,5,19,219,433.4427890694933,434.87088810896967,"[93, 0, 161]",161,a,0.9045839242171496,colour,0.5
68,63,0,2,5,20,220,435.38040005997755,436.7989231485408,"[70, 0, 184]",184,l,0.8952395543456078,colour,0.5
68,63,0,2,5,21,221,437.3178653278155,438.09487532638013,"[64, 0, 190]",190,l,0.25372646434698254,colour,0.5
68,63,0,2,5,22,222,438.6147320138989,439.5188661670545,"[17, 0, 237]",237,l,0.3808451050426811,colour,0.5
68,63,0,2,5,23,223,440.03290733729955,441.4068640907062,"[52, 0, 202]",202,l,0.8505605794489384,colour,0.5
68,63,0,2,5,24,224,441.9235483556986,443.03088769933674,"[27, 0, 227]",227,l,0.5839427758473903,colour,0.5
68,63,0,2,5,25,225,443.5486069894396,444.80687763902824,"[83, 0, 171]",171,a,0.7350095645524561,colour,0.5
68,63,0,2,5,26,226,445.30479793972336,446.7988542256644,"[73, 0, 181]",181,l,0.9707440010970458,colour,0.5
68,63,0,2,5,27,227,447.32042453356553,447.950861122692,"[11, 0, 243]",243,l,0.10550048074219376,colour,0.5
68,63,0,2,5,28,228,448.4625459173694,449.7109133307822,"[86, 0, 168]",168,a,0.7249838424613699,colour,0.5
68,63,0,2,5,29,229,450.2282777663786,451.4788637094898,"[50, 0, 204]",204,l,0.7278415828477591,colour,0.5
68,63,0,2,5,30,230,451.99375440366566,453.0788426781073,"[4, 0, 250]",250,l,0.5617452695732936,colour,0.5
68,63,0,2,5,31,231,453.58750352985226,454.6708281657193,"[62, 0, 192]",192,l,0.5599591819336638,colour,0.5
68,63,0,2,5,32,232,455.181238871417,455.8229000471765,"[6, 0, 248]",248,l,0.11822601116728038,colour,0.5
68,63,0,2,5,33,233,456.33748393598944,457.2708280081861,"[9, 0, 245]",245,l,0.4100081565557048,colour,0.5
68,63,0,2,5,34,234,457.79059214226436,458.83082184847444,"[92, 0, 162]",162,a,0.5167685478227213,colour,0.5
68,63,0,2,5,35,235,459.33749732677825,460.7828763219295,"[28, 0, 226]",226,l,0.9220962485997006,colour,0.5
68,63,0,2,5,36,236,461.29063132975716,463.1108260547044,"[71, 0, 183]",183,l,1.2968308462295681,colour,0.5
68,63,0,2,5,37,237,463.6187007914996,464.6708647933556,"[40, 0, 214]",214,l,0.5288702276302502,colour,0.5
68,63,0,2,5,38,238,465.1812936158385,466.2867921272991,"[58, 0, 196]",196,l,0.5822130079613999,colour,0.5
68,63,0,2,5,39,239,466.8062439421192,467.6148178721778,"[23, 0, 231]",231,l,0.2852892142254859,colour,0.5
68,63,0,2,5,40,240,468.13436302833725,468.81481283099856,"[35, 0, 219]",219,l,0.15717650845181197,colour,0.5
68,63,0,2,5,41,241,469.3218687636545,470.30281296011526,"[24, 0, 230]",230,l,0.4575795300770551,colour,0.5
68,63,0,2,5,42,242,470.8218043700326,472.0707940587308,"[94, 0, 160]",160,a,0.725716000655666,colour,0.5
68,63,0,2,5,43,243,472.58743106224574,473.8708148538135,"[25, 0, 229]",229,l,0.7599907682742923,colour,0.5
68,63,0,2,5,44,244,474.38428888691124,475.80683431599755,"[0, 0, 254]",254,l,0.899158313521184,colour,0.5
68,63,0,2,5,45,245,476.3218128376175,478.1988063340541,"[55, 0, 199]",199,l,1.3536772730294615,colour,0.5
68,63,0,2,5,46,246,478.71239970240276,480.46284720895346,"[5, 0, 249]",249,l,1.2271115909097716,colour,0.5
68,63,0,2,5,47,247,480.97811953909695,482.46280112909153,"[1, 0, 253]",253,l,0.9613098344998434,colour,0.5
68,63,0,2,5,48,248,482.9781187514309,484.44678344693966,"[8, 0, 246]",246,l,0.9452870322857052,colour,0.5
68,63,0,2,5,49,249,484.9625398127828,486.27077405143064,"[80, 0, 174]",174,a,0.7848565754247829,colour,0.5
68,63,0,2,5,50,250,486.7906661850866,488.29477221763227,"[96, 0, 158]",158,a,0.9807775999652222,colour,0.5
68,63,0,2,6,1,251,494.7273591225967,496.60674956056755,"[17, 0, 237]",237,l,1.3552073615137488,colour,0.5
68,63,0,2,6,2,252,497.1187198929256,498.54276272130664,"[12, 0, 242]",242,l,0.9008364877663553,colour,0.5
68,63,0,2,6,3,253,499.0562123360578,500.37478304049,"[36, 0, 218]",218,l,0.7952241549501196,colour,0.5
68,63,0,2,6,4,254,500.88440290512517,502.0386937101139,"[35, 0, 219]",219,l,0.6309765508631244,colour,0.5
68,63,0,2,6,5,255,502.5562558559468,503.92676488903817,"[77, 0, 177]",177,a,0.8471806005109102,colour,0.5
68,63,0,2,6,6,256,504.44689136056695,506.1587570089614,"[24, 0, 230]",230,l,1.1885167359141633,colour,0.5
68,63,0,2,6,7,257,506.6655313423835,508.2067052923376,"[72, 0, 182]",182,a,1.0185166294686496,colour,0.5
68,63,0,2,6,8,258,508.7280495330924,510.27071064233314,"[16, 0, 238]",238,l,1.0192527261096984,colour,0.5
68,63,0,2,6,9,259,510.7904814716894,511.990766300587,"[42, 0, 212]",212,l,0.6768571472493932,colour,0.5
68,63,0,2,6,10,260,512.5092894284753,513.590697613894,"[18, 0, 236]",236,l,0.5582526507787406,colour,0.5
68,63,0,2,6,11,261,514.1031059022062,515.3347408046247,"[3, 0, 251]",251,l,0.7085187523625791,colour,0.5
68,63,0,2,6,12,262,515.8550606541103,517.2946942363633,"[57, 0, 197]",197,a,0.9163299619685858,colour,0.5
68,63,0,2,6,13,263,517.8081867801957,519.2146877457853,"[79, 0, 175]",175,a,0.8832221574848518,colour,0.5
68,63,0,2,6,14,264,519.7300163957989,521.2467006606748,"[2, 0, 252]",252,l,0.993368829251267,colour,0.5
68,63,0,2,6,15,265,521.761280611041,523.2226749253459,"[81, 0, 173]",173,a,0.9381084169726819,colour,0.5
68,63,0,2,6,16,266,523.729971103603,525.2467183837434,"[97, 0, 157]",157,a,0.9933731615310535,colour,0.5
68,63,0,2,6,17,267,525.7612156266114,527.2066517294152,"[55, 0, 199]",199,l,0.9221509931376204,colour,0.5
68,63,0,2,6,18,268,527.7143035498448,529.3746715823654,"[53, 0, 201]",201,l,1.1370108493138105,colour,0.5
68,63,0,2,6,19,269,529.8862114420626,531.4946856504539,"[92, 0, 162]",162,a,1.0857345743570477,colour,0.5
68,63,0,2,6,20,270,532.0111710237106,533.5666553369956,"[22, 0, 232]",232,l,1.0321330376900733,colour,0.5
68,63,0,2,6,21,271,534.0737266297219,535.2705893380335,"[0, 0, 254]",254,l,0.6735842940397561,colour,0.5
68,63,0,2,6,22,272,535.7768682142487,537.3346072910354,"[19, 0, 235]",235,l,1.0344992593163624,colour,0.5
68,63,0,2,6,23,273,537.854977946612,539.3906825690065,"[29, 0, 225]",225,l,1.0124518080847338,colour,0.5
68,63,0,2,6,24,274,539.9017679314129,541.3586153034121,"[68, 0, 186]",186,a,0.9383998622652143,colour,0.5
68,63,0,2,6,25,275,541.8655877410201,543.334578934242,"[8, 0, 246]",246,l,0.9456666990881786,colour,0.5
68,63,0,2,6,26,276,543.850032827002,545.2866078078514,"[87, 0, 167]",167,a,0.91334422188811,colour,0.5
68,63,0,2,6,27,277,545.8030510395765,547.3105882509844,"[95, 0, 159]",159,a,0.9831835998920724,colour,0.5
68,63,0,2,6,28,278,547.8075790771982,549.1586770584108,"[44, 0, 210]",210,l,0.8277396163903177,colour,0.5
68,63,0,2,6,29,279,549.6669318557251,551.0625615136232,"[86, 0, 168]",168,a,0.8730873402673751,colour,0.5
68,63,0,2,6,30,280,551.5731431480963,553.0065401924076,"[34, 0, 220]",220,l,0.9100544332759455,colour,0.5
68,63,0,2,6,31,281,553.5262153174262,555.3346013834234,"[90, 0, 164]",164,a,1.2848488953895867,colour,0.5
68,63,0,2,6,32,282,555.8543903296813,557.3505320256809,"[33, 0, 221]",221,l,0.9728546171681955,colour,0.5
68,63,0,2,6,33,283,557.8703977717087,559.4706185613759,"[11, 0, 243]",243,l,1.0769230769947171,colour,0.5
68,63,0,2,6,34,284,559.9797043718863,561.3666170552606,"[56, 0, 198]",198,l,0.8636196968145669,colour,0.5
68,63,0,2,6,35,285,561.8859861625824,563.4546095439,"[96, 0, 158]",158,a,1.045484782080166,colour,0.5
68,63,0,2,6,36,286,563.9641758454964,565.5585626069224,"[50, 0, 204]",204,l,1.0710799902444705,colour,0.5
68,63,0,2,6,37,287,566.0734702365007,567.4465254783863,"[37, 0, 217]",217,l,0.8471116775181144,colour,0.5
68,63,0,2,6,38,288,567.9680461618118,569.422580481274,"[13, 0, 241]",241,l,0.9312468467978761,colour,0.5
68,63,0,2,6,39,289,569.9368492939975,571.5185325802304,"[43, 0, 211]",211,l,1.0584741887869313,colour,0.5
68,63,0,2,6,40,290,572.0305316633312,573.1185572348768,"[66, 0, 188]",188,l,0.5649929166538641,colour,0.5
68,63,0,2,6,41,291,573.6399251064286,574.9824920078972,"[89, 0, 165]",165,a,0.8191656075650826,colour,0.5
68,63,0,2,6,42,292,575.4992967894068,576.8545659845695,"[54, 0, 200]",200,l,0.8319124056724831,colour,0.5
68,63,0,2,6,43,293,577.3743549308274,578.8545230554882,"[60, 0, 194]",194,l,0.956821181345731,colour,0.5
68,63,0,2,6,44,294,579.3743537493283,580.9345244260039,"[15, 0, 239]",239,l,1.036849333322607,colour,0.5
68,63,0,2,6,45,295,581.4523921957007,582.67856525362,"[70, 0, 184]",184,l,0.7030127971665934,colour,0.5
68,63,0,2,6,46,296,583.1867460081121,584.3344899251824,"[31, 0, 223]",223,l,0.6244044569320977,colour,0.5
68,63,0,2,6,47,297,584.8430078111123,585.9024717326974,"[58, 0, 196]",196,l,0.5360917721409351,colour,0.5
68,63,0,2,6,48,298,586.4230542769656,588.0304765250767,"[83, 0, 171]",171,a,1.0839953542454168,colour,0.5
68,63,0,2,6,49,299,588.548068209202,590.5592124514515,"[64, 0, 190]",190,l,1.4985102807404473,colour,0.5
68,63,0,2,6,50,300,591.0686436642427,592.1664700722322,"[48, 0, 206]",206,l,0.5745499629992992,colour,0.5
68,63,0,2,7,1,301,600.1772181063425,603.0624374524923,"[70, 0, 184]",184,l,2.361081561888568,colour,0.5
68,63,0,2,7,2,302,603.5686619780026,604.7824245815864,"[91, 0, 163]",163,a,0.6905909213237464,colour,0.5
68,63,0,2,7,3,303,605.3031107070856,606.518439238891,"[44, 0, 210]",210,l,0.6923608613433316,colour,0.5
68,63,0,2,7,4,304,607.0379958165577,608.3504363213433,"[2, 0, 252]",252,l,0.7890049463603646,colour,0.5
68,63,0,2,7,5,305,608.8661470010411,609.9744587484747,"[36, 0, 218]",218,l,0.5849443241022527,colour,0.5
68,63,0,2,7,6,306,610.4912076040637,611.8303921633633,"[99, 0, 155]",155,a,0.8158214683644474,colour,0.5
68,63,0,2,7,7,307,612.3512275562389,613.8384494474158,"[76, 0, 178]",178,l,0.9646027737762779,colour,0.5
68,63,0,2,7,8,308,614.3505083950004,615.6784289831994,"[51, 0, 203]",203,l,0.8032542637083679,colour,0.5
68,63,0,2,7,9,309,616.1958209879231,617.286443180521,"[77, 0, 177]",177,l,0.5673079384723678,colour,0.5
68,63,0,2,7,10,310,617.8052254585782,618.9264277576003,"[24, 0, 230]",230,l,0.597789189661853,colour,0.5
68,63,0,2,7,11,311,619.4457744157407,620.4944473741343,"[37, 0, 217]",217,l,0.5253331043059006,colour,0.5
68,63,0,2,7,12,312,620.9959240965545,622.0144285168499,"[53, 0, 201]",201,l,0.49524412292521447,colour,0.5
68,63,0,2,7,13,313,622.5270644476404,623.5183994605904,"[61, 0, 193]",193,l,0.46798216202296317,colour,0.5
68,63,0,2,7,14,314,624.0270579492208,625.0384424369549,"[0, 0, 254]",254,l,0.48797649843618274,colour,0.5
68,63,0,2,7,15,315,625.5583006999223,626.878388495883,"[81, 0, 173]",173,a,0.7966876835562289,colour,0.5
68,63,0,2,7,16,316,627.3864396753488,628.8304382432252,"[31, 0, 223]",223,l,0.9208067995496094,colour,0.5
68,63,0,2,7,17,317,629.3395161769586,630.702395641827,"[62, 0, 192]",192,l,0.839500620146282,colour,0.5
68,63,0,2,7,18,318,631.2151761137648,632.8783873143839,"[93, 0, 161]",161,a,1.1404613265767694,colour,0.5
68,63,0,2,7,19,319,633.3864026538795,634.8783274499001,"[40, 0, 214]",214,l,0.9687310585286468,colour,0.5
68,63,0,2,7,20,320,635.3863991092658,636.950370785431,"[26, 0, 228]",228,l,1.040845680050552,colour,0.5
68,63,0,2,7,21,321,637.4644966324558,638.8783498990815,"[69, 0, 185]",185,a,0.8904952957527712,colour,0.5
68,63,0,2,7,22,322,639.3864357369021,640.9983923240798,"[72, 0, 182]",182,a,1.0888443756848574,colour,0.5
68,63,0,2,7,23,323,641.5113370293984,642.9263828592375,"[98, 0, 156]",156,a,0.8923940232489258,colour,0.5
68,63,0,2,7,24,324,643.4332773153437,644.8384242412867,"[12, 0, 242]",242,l,0.8912766844732687,colour,0.5
68,63,0,2,7,25,325,645.3457353856647,646.6623841257533,"[29, 0, 225]",225,l,0.7933778088772669,colour,0.5
68,63,0,2,7,26,326,647.173772748909,648.6623222921044,"[63, 0, 191]",191,l,0.9651817260310054,colour,0.5
68,63,0,2,7,27,327,649.1737778689712,651.1423801401397,"[57, 0, 197]",197,l,1.4450410761637613,colour,0.5
68,63,0,2,7,28,328,651.6580707337707,653.6063147555105,"[64, 0, 190]",190,l,1.424778924905695,colour,0.5
68,63,0,2,7,29,329,654.126855158247,655.886320931022,"[56, 0, 198]",198,l,1.236094410996884,colour,0.5
68,63,0,2,7,30,330,656.3923961892724,658.4623623855878,"[50, 0, 204]",204,l,1.5465129148215055,colour,0.5
68,63,0,2,7,31,331,658.9705781922676,661.0383140434278,"[83, 0, 171]",171,a,1.5444149016402662,colour,0.5
68,63,0,2,7,32,332,661.5487420782447,663.9662931570783,"[46, 0, 208]",208,l,1.8942289476981387,colour,0.5
68,63,0,2,7,33,333,664.4861671738327,666.8783093329985,"[3, 0, 251]",251,l,1.8695238293148577,colour,0.5
68,63,0,2,7,34,334,667.391908608959,669.1822719272459,"[49, 0, 205]",205,l,1.2671191685367376,colour,0.5
68,63,0,2,7,35,335,669.6887520583114,671.4783139016945,"[23, 0, 231]",231,l,1.2662168693495914,colour,0.5
68,63,0,2,7,36,336,671.9855293416185,674.6062934878282,"[1, 0, 253]",253,l,2.0974999103927985,colour,0.5
68,63,0,2,7,37,337,675.1261375724571,677.0062727716286,"[92, 0, 162]",162,a,1.3566157517489046,colour,0.5
68,63,0,2,7,38,338,677.518898856244,680.6463534468785,"[45, 0, 209]",209,l,2.6046149198664352,colour,0.5
68,63,0,2,7,39,339,681.1594982255483,682.8702985227574,"[14, 0, 240]",240,l,1.1875120368786156,colour,0.5
68,63,0,2,7,40,340,683.3782528162701,685.0782905071974,"[79, 0, 175]",175,a,1.1766667230986059,colour,0.5
68,63,0,2,7,41,341,685.5969672348583,687.2302056383342,"[38, 0, 216]",216,l,1.1098319896264002,colour,0.5
68,63,0,2,7,42,342,687.7375033919234,689.3902792716399,"[48, 0, 206]",206,l,1.1293344135629013,colour,0.5
68,63,0,2,7,43,343,689.9098831106676,691.5422869563336,"[28, 0, 226]",226,l,1.109232557239011,colour,0.5
68,63,0,2,7,44,344,692.0503507388057,693.8142043402186,"[16, 0, 238]",238,l,1.2404294644948095,colour,0.5
68,63,0,2,7,45,345,694.3316865355009,696.1182039558189,"[13, 0, 241]",241,l,1.2631964707979932,colour,0.5
68,63,0,2,7,46,346,696.6285024156095,698.2462717633462,"[43, 0, 211]",211,l,1.0944019245216623,colour,0.5
68,63,0,2,7,47,347,698.7535210740753,700.0621940561105,"[8, 0, 246]",246,l,0.7853650294709951,colour,0.5
68,63,0,2,7,48,348,700.5815800988348,701.9421858956339,"[80, 0, 174]",174,a,0.837187567492947,colour,0.5
68,63,0,2,7,49,349,702.4566051572328,704.3741788821062,"[65, 0, 189]",189,l,1.3942346584517509,colour,0.5
68,63,0,2,7,50,350,704.8940773173235,706.6381413816707,"[55, 0, 199]",199,l,1.2206781303975731,colour,0.5
68,63,0,2,8,1,351,715.5807183656143,717.6461238351185,"[82, 0, 172]",172,a,1.541289346641861,colour,0.5
68,63,0,2,8,2,352,718.1619778745808,719.838128857431,"[28, 0, 226]",226,l,1.1527453566668555,colour,0.5
68,63,0,2,8,3,353,720.3494847913971,721.9581657686504,"[87, 0, 167]",167,a,1.0838090655161068,colour,0.5
68,63,0,2,8,4,354,722.4760532304645,724.1902039684355,"[91, 0, 163]",163,a,1.1907569270115346,colour,0.5
68,63,0,2,8,5,355,724.7104253566358,728.0862008869881,"[72, 0, 182]",182,l,2.852499479195103,colour,0.5
68,63,0,2,8,6,356,728.6010084798327,729.8301574316574,"[85, 0, 169]",169,a,0.7057531717000529,colour,0.5
68,63,0,2,8,7,357,730.3509558030637,731.6620781081729,"[77, 0, 177]",177,a,0.7878068693680689,colour,0.5
68,63,0,2,8,8,358,732.1791046245489,733.8941489971476,"[63, 0, 191]",191,l,1.1916312633547932,colour,0.5
68,63,0,2,8,9,359,734.4134617845993,735.6701153060421,"[48, 0, 206]",206,l,0.7333298149751499,colour,0.5
68,63,0,2,8,10,360,736.1790833568666,737.4701687901979,"[7, 0, 247]",247,l,0.7677219484467059,colour,0.5
68,63,0,2,8,11,361,737.9916768705007,739.6061044421513,"[25, 0, 229]",229,l,1.0911609727190807,colour,0.5
68,63,0,2,8,12,362,740.1165565015981,741.5901466245996,"[67, 0, 187]",187,l,0.9502238812856376,colour,0.5
68,63,0,2,8,13,363,742.0917978204088,743.4060578896897,"[86, 0, 168]",168,a,0.7909773227293044,colour,0.5
68,63,0,2,8,14,364,743.9075255536009,745.4700593012385,"[79, 0, 175]",175,a,1.039178139762953,colour,0.5
68,63,0,2,8,15,365,745.9855789660942,747.3180567364907,"[12, 0, 242]",242,l,0.8093738295137882,colour,0.5
68,63,0,2,8,16,366,747.8292882154929,749.3260640021181,"[49, 0, 205]",205,l,0.973390246508643,colour,0.5
68,63,0,2,8,17,367,749.8448781816987,751.7020675687818,"[8, 0, 246]",246,l,1.3337668254971504,colour,0.5
68,63,0,2,8,18,368,752.2197990680579,753.782039007172,"[80, 0, 174]",174,a,1.0389902755850926,colour,0.5
68,63,0,2,8,19,369,754.2979347942164,756.0620696010301,"[22, 0, 232]",232,l,1.2407402083044872,colour,0.5
68,63,0,2,8,20,370,756.5792560186237,758.302067805198,"[95, 0, 159]",159,a,1.1995333723025396,colour,0.5
68,63,0,2,8,21,371,758.813618692453,760.9900790407555,"[18, 0, 236]",236,l,1.6531256141606718,colour,0.5
68,63,0,2,8,22,372,761.5010757879354,762.7740801845212,"[9, 0, 245]",245,l,0.7497523699421436,colour,0.5
68,63,0,2,8,23,373,763.2823310433887,764.5500397980213,"[66, 0, 188]",188,l,0.7444000142859295,colour,0.5
68,63,0,2,8,24,374,765.0635492772562,766.2460390009219,"[20, 0, 234]",234,l,0.6591352972900495,colour,0.5
68,63,0,2,8,25,375,766.766731034033,768.0380399272544,"[56, 0, 198]",198,l,0.7479670698521659,colour,0.5
68,63,0,2,8,26,376,768.5479303634493,769.8540236598346,"[34, 0, 220]",220,l,0.7827235100558028,colour,0.5
68,63,0,2,8,27,377,770.3603943019407,771.6860191668384,"[78, 0, 176]",176,a,0.8022672877414152,colour,0.5
68,63,0,2,8,28,378,772.2041870465036,773.5180335784098,"[10, 0, 244]",244,l,0.7906390097923577,colour,0.5
68,63,0,2,8,29,379,774.0323027849663,775.4140096232295,"[17, 0, 237]",237,l,0.8584209409309551,colour,0.5
68,63,0,2,8,30,380,775.9229359264718,777.1740543482592,"[59, 0, 195]",195,l,0.7277754169190302,colour,0.5
68,63,0,2,8,31,381,777.6884944835911,778.8220170463901,"[21, 0, 233]",233,l,0.610195311717689,colour,0.5
68,63,0,2,8,32,382,779.3310595339863,780.622009878396,"[89, 0, 165]",165,a,0.7676691731903702,colour,0.5
68,63,0,2,8,33,383,781.1435108694714,782.5019442165503,"[1, 0, 253]",253,l,0.8351691112620756,colour,0.5
68,63,0,2,8,34,384,783.0185363217024,784.3579820004525,"[24, 0, 230]",230,l,0.8168604319216684,colour,0.5
68,63,0,2,8,35,385,784.8778091496788,786.4379991248716,"[81, 0, 173]",173,a,1.0367552044335753,colour,0.5
68,63,0,2,8,36,386,786.9559606296243,788.6699731278932,"[52, 0, 202]",202,l,1.1906789456261322,colour,0.5
68,63,0,2,8,37,387,789.1903485095827,790.5180158553412,"[47, 0, 207]",207,l,0.8042636887403205,colour,0.5
68,63,0,2,8,38,388,791.0341046265094,792.7499362955568,"[45, 0, 209]",209,l,1.1925347440410405,colour,0.5
68,63,0,2,8,39,389,793.2684712387854,794.7739549417747,"[36, 0, 218]",218,l,0.9823041438357905,colour,0.5
68,63,0,2,8,40,390,795.2840848357882,796.7019998275209,"[88, 0, 166]",166,a,0.8945711991982535,colour,0.5
68,63,0,2,8,41,391,797.2215627066325,798.9579653014662,"[50, 0, 204]",204,l,1.2130375346168876,colour,0.5
68,63,0,2,8,42,392,799.4715488235233,801.6139963112073,"[6, 0, 248]",248,l,1.6191619841847569,colour,0.5
68,63,0,2,8,43,393,802.1278149589198,803.4779070595978,"[23, 0, 231]",231,l,0.8267597296508029,colour,0.5
68,63,0,2,8,44,394,803.9871685251128,805.2939801950706,"[31, 0, 223]",223,l,0.7835348310181871,colour,0.5
68,63,0,2,8,45,395,805.815245666774,807.2779124947265,"[35, 0, 219]",219,l,0.9392773493891582,colour,0.5
68,63,0,2,8,46,396,807.7996234052116,808.8939327761764,"[61, 0, 193]",193,l,0.57095179380849,colour,0.5
68,63,0,2,8,47,397,809.4089266577503,810.6219311093446,"[99, 0, 155]",155,a,0.6895629854407161,colour,0.5
68,63,0,2,8,48,398,811.1433844452258,812.3098864189815,"[0, 0, 254]",254,l,0.6432857870822772,colour,0.5
68,63,0,2,8,49,399,812.8308328761486,814.1259753082413,"[55, 0, 199]",199,l,0.7718104548985139,colour,0.5
68,63,0,2,8,50,400,814.6431853565155,815.9658993119374,"[92, 0, 162]",162,a,0.799279184662737,colour,0.5
68,63,0,2,9,1,401,827.3778837833088,829.4299115147442,"[0, 0, 254]",254,l,1.5279060946777463,colour,0.5
68,63,0,2,9,2,402,829.9431200963445,831.3339334219927,"[2, 0, 252]",252,l,0.8674624438863248,colour,0.5
68,63,0,2,9,3,403,831.8494475730695,833.3179283429636,"[61, 0, 193]",193,l,0.9452523739309981,colour,0.5
68,63,0,2,9,4,404,833.8336961303139,835.1579315095441,"[21, 0, 233]",233,l,0.8008691375143826,colour,0.5
68,63,0,2,9,5,405,835.677459730301,836.9978763869731,"[85, 0, 169]",169,a,0.7970630179625005,colour,0.5
68,63,0,2,9,6,406,837.5055376596283,839.4298512564274,"[55, 0, 199]",199,l,1.400950899696909,colour,0.5
68,63,0,2,9,7,407,839.943040539627,841.2538379224716,"[39, 0, 215]",215,l,0.7874555594753474,colour,0.5
68,63,0,2,9,8,408,841.7718372363597,843.1578212329186,"[79, 0, 175]",175,a,0.8625953056616709,colour,0.5
68,63,0,2,9,9,409,843.6781087870477,845.1258744838415,"[58, 0, 196]",196,l,0.9244624702259898,colour,0.5
68,63,0,2,9,10,410,845.6330958316103,846.9018431558507,"[82, 0, 172]",172,a,0.7454141655471176,colour,0.5
68,63,0,2,9,11,411,847.4142990993569,848.7498016004683,"[31, 0, 223]",223,l,0.8120771825779229,colour,0.5
68,63,0,2,9,12,412,849.258094206918,851.4938247050159,"[73, 0, 181]",181,a,1.7124292408116162,colour,0.5
68,63,0,2,9,13,413,852.0080498008756,853.2778116703266,"[33, 0, 221]",221,l,0.7463830246124417,colour,0.5
68,63,0,2,9,14,414,853.7893050563289,855.0778537329752,"[91, 0, 163]",163,a,0.7652690808754414,colour,0.5
68,63,0,2,9,15,415,855.5861668194411,856.9738096916117,"[99, 0, 155]",155,a,0.8645499590784311,colour,0.5
68,63,0,2,9,16,416,857.4923068258213,858.8857880585128,"[3, 0, 251]",251,l,0.8700007759034634,colour,0.5
68,63,0,2,9,17,417,859.3987264622701,860.8137943474576,"[52, 0, 202]",202,l,0.8917796247405931,colour,0.5
68,63,0,2,9,18,418,861.3235918361461,862.7977802099194,"[65, 0, 189]",189,l,0.9508741195313632,colour,0.5
68,63,0,2,9,19,419,863.3079514577985,864.5497633187333,"[64, 0, 190]",190,l,0.7184420746052638,colour,0.5
68,63,0,2,9,20,420,865.0579661284573,866.7258376987884,"[44, 0, 210]",210,l,1.1445683437632397,colour,0.5
68,63,0,2,9,21,421,867.2455143991392,868.8537822327344,"[42, 0, 212]",212,l,1.0849122257204726,colour,0.5
68,63,0,2,9,22,422,869.3704802823486,870.6457437745994,"[16, 0, 238]",238,l,0.7518885859753937,colour,0.5
68,63,0,2,9,23,423,871.1673192024464,872.4218936152756,"[7, 0, 247]",247,l,0.7312341649085283,colour,0.5
68,63,0,2,9,24,424,872.9329955192516,874.3420281213475,"[50, 0, 204]",204,l,0.8856486374279484,colour,0.5
68,63,0,2,9,25,425,874.854844039306,876.1337994359201,"[94, 0, 160]",160,a,0.7556805269559845,colour,0.5
68,63,0,2,9,26,426,876.6547860652208,878.3577260010643,"[40, 0, 214]",214,l,1.1795985063072294,colour,0.5
68,63,0,2,9,27,427,878.8735390806105,880.677797649405,"[92, 0, 162]",162,a,1.2808982346905395,colour,0.5
68,63,0,2,9,28,428,881.1880145833129,882.9417853550985,"[53, 0, 201]",201,l,1.2304655760526657,colour,0.5
68,63,0,2,9,29,429,883.4536387155531,885.4298418042017,"[11, 0, 243]",243,a,1.45291679748334,colour,0.5
68,63,0,2,9,30,430,885.9380068047903,887.0937497168779,"[9, 0, 245]",245,l,0.6324373225215822,colour,0.5
68,63,0,2,9,31,431,887.6130243013613,889.1097421929007,"[20, 0, 234]",234,l,0.9734284495934844,colour,0.5
68,63,0,2,9,32,432,889.628667830606,891.1497151120566,"[81, 0, 173]",173,a,0.9976999443024397,colour,0.5
68,63,0,2,9,33,433,891.6617945396574,893.1257555426564,"[38, 0, 216]",216,l,0.9406093335710466,colour,0.5
68,63,0,2,9,34,434,893.6462002410553,895.2217489953618,"[26, 0, 228]",228,l,1.052220321726054,colour,0.5
68,63,0,2,9,35,435,895.739921994973,897.2856586410198,"[10, 0, 244]",244,l,1.0223723734961823,colour,0.5
68,63,0,2,9,36,436,897.7931800986407,899.3497833260335,"[98, 0, 156]",156,a,1.0336887260200456,colour,0.5
68,63,0,2,9,37,437,899.8712772279978,901.4857268549968,"[90, 0, 164]",164,a,1.0910881113959476,colour,0.5
68,63,0,2,9,38,438,901.9963006125763,903.7416773628211,"[12, 0, 242]",242,l,1.2233456436078995,colour,0.5
68,63,0,2,9,39,439,904.2619393171044,905.781706601847,"[1, 0, 253]",253,l,0.9965510980691761,colour,0.5
68,63,0,2,9,40,440,906.2930944373365,907.9176658845972,"[22, 0, 232]",232,l,1.1012599499663338,colour,0.5
68,63,0,2,9,41,441,908.4337448095903,911.4697229574667,"[15, 0, 239]",239,l,2.512637506122701,colour,0.5
68,63,0,2,9,42,442,911.9806043080753,915.5256962295389,"[66, 0, 188]",188,l,3.0217772733885795,colour,0.5
68,63,0,2,9,43,443,916.0430496374611,917.6616586630698,"[95, 0, 159]",159,a,1.0952695653541014,colour,0.5
68,63,0,2,9,44,444,918.168015126721,919.7976419703336,"[35, 0, 219]",219,l,1.1063917522551492,colour,0.5
68,63,0,2,9,45,445,920.308614693,921.9896213926841,"[13, 0, 241]",241,l,1.1576034364989027,colour,0.5
68,63,0,2,9,46,446,922.4962035296485,924.6216290300945,"[54, 0, 200]",200,l,1.6020868278574198,colour,0.5
68,63,0,2,9,47,447,925.136798960506,926.6056542771403,"[77, 0, 177]",177,a,0.9455867485376075,colour,0.5
68,63,0,2,9,48,448,927.1211298314156,928.5176168902544,"[51, 0, 203]",203,l,0.8731692600995302,colour,0.5
68,63,0,2,9,49,449,929.0273430930683,930.5176692716777,"[37, 0, 217]",217,l,0.9669642691733316,colour,0.5
68,63,0,2,9,50,450,931.0273675114149,932.6936467657797,"[57, 0, 197]",197,l,1.1428815049584955,colour,0.5
68,63,0,2,10,1,451,941.7452802582411,943.4055592817022,"[89, 0, 165]",165,a,1.136212918907404,colour,0.5
68,63,0,2,10,2,452,943.9196303841891,945.549638863653,"[54, 0, 200]",200,l,1.1067540898220614,colour,0.5
68,63,0,2,10,3,453,946.060205138172,947.6136154629057,"[50, 0, 204]",204,l,1.0307593058096245,colour,0.5
68,63,0,2,10,4,454,948.122692608973,949.5816194833023,"[58, 0, 196]",196,l,0.9354893466224894,colour,0.5
68,63,0,2,10,5,455,950.0915114949457,951.3655363442376,"[81, 0, 173]",173,a,0.7507759734289721,colour,0.5
68,63,0,2,10,6,456,951.8727214580867,953.2455707190093,"[55, 0, 199]",199,l,0.8495239791227505,colour,0.5
68,63,0,2,10,7,457,953.7633175782394,955.2216383249033,"[94, 0, 160]",160,a,0.9348682529525831,colour,0.5
68,63,0,2,10,8,458,955.7320277629187,956.9255581474863,"[74, 0, 180]",180,l,0.6700349616585299,colour,0.5
68,63,0,2,10,9,459,957.4351606828859,958.90959796682,"[80, 0, 174]",174,a,0.9513231031596661,colour,0.5
68,63,0,2,10,10,460,959.419545510551,960.7095927679911,"[49, 0, 205]",205,l,0.7669807318598032,colour,0.5
68,63,0,2,10,11,461,961.2163793107029,962.6375340725062,"[66, 0, 188]",188,l,0.8976995111443102,colour,0.5
68,63,0,2,10,12,462,963.1539729719516,964.6375439186813,"[90, 0, 164]",164,a,0.9603059232467785,colour,0.5
68,63,0,2,10,13,463,965.153852849151,966.7817211741349,"[92, 0, 162]",162,a,1.1044178003212437,colour,0.5
68,63,0,2,10,14,464,967.2945359105943,968.8455488999607,"[91, 0, 163]",163,a,1.0276888890657574,colour,0.5
68,63,0,2,10,15,465,969.3569895107066,971.1575620827498,"[52, 0, 202]",202,l,1.2771567058516666,colour,0.5
68,63,0,2,10,16,466,971.669520206051,973.069524695864,"[63, 0, 191]",191,l,0.876886764424853,colour,0.5
68,63,0,2,10,17,467,973.5757051107939,975.0054791736184,"[9, 0, 245]",245,l,0.906430664123036,colour,0.5
68,63,0,2,10,18,468,975.5132629321888,977.0214968556538,"[3, 0, 251]",251,l,0.9852796437917277,colour,0.5
68,63,0,2,10,19,469,977.5295842688065,979.0774811555166,"[59, 0, 195]",195,l,1.0253155783284456,colour,0.5
68,63,0,2,10,20,470,979.5912868062733,981.29350521788,"[25, 0, 229]",229,l,1.1788529575569555,colour,0.5
68,63,0,2,10,21,471,981.81005557545,983.5735531408573,"[32, 0, 222]",222,l,1.2402128495741636,colour,0.5
68,63,0,2,10,22,472,984.0912582525052,985.4934749705717,"[75, 0, 179]",179,a,0.8788567779120058,colour,0.5
68,63,0,2,10,23,473,986.0131764832186,987.4534512453247,"[34, 0, 220]",220,l,0.9169672033749521,colour,0.5
68,63,0,2,10,24,474,987.9662167510251,989.6134606818669,"[69, 0, 185]",185,l,1.1239332212135196,colour,0.5
68,63,0,2,10,25,475,990.1224247942446,991.5334565542871,"[37, 0, 217]",217,l,0.8878533823881298,colour,0.5
68,63,0,2,10,26,476,992.0442614989588,993.4934690628434,"[78, 0, 176]",176,a,0.9257708238437772,colour,0.5
68,63,0,2,10,27,477,994.0130949572194,996.3494658868294,"[7, 0, 247]",247,l,1.81299523555208,colour,0.5
68,63,0,2,10,28,478,996.8568431972526,998.6133996357676,"[56, 0, 198]",198,l,1.233055107994005,colour,0.5
68,63,0,2,10,29,479,999.1224421234801,1000.7575276606949,"[5, 0, 249]",249,l,1.1117720707552508,colour,0.5
68,63,0,2,10,30,480,1001.2786446528044,1003.1574246308301,"[44, 0, 210]",210,l,1.3553263026988134,colour,0.5
68,63,0,2,10,31,481,1003.6692728712223,1005.3894069045782,"[23, 0, 231]",231,l,1.1969773172168061,colour,0.5
68,63,0,2,10,32,482,1005.9036390897818,1008.9253679203102,"[12, 0, 242]",242,l,2.499331841710955,colour,0.5
68,63,0,2,10,33,483,1009.4349740003236,1010.7893972160527,"[28, 0, 226]",226,l,0.831302733393386,colour,0.5
68,63,0,2,10,34,484,1011.3099214711692,1013.0134029440815,"[40, 0, 214]",214,l,1.1801731263985857,colour,0.5
68,63,0,2,10,35,485,1013.5286358897574,1015.4374552246882,"[41, 0, 213]",213,l,1.3854735732311383,colour,0.5
68,63,0,2,10,36,486,1015.9505464404356,1018.453407528461,"[46, 0, 208]",208,l,1.9795763723086566,colour,0.5
68,63,0,2,10,37,487,1018.9679933865555,1020.6213683047099,"[24, 0, 230]",230,l,1.1301701529882848,colour,0.5
68,63,0,2,10,38,488,1021.1398252666695,1022.5093705606414,"[72, 0, 182]",182,a,0.8461979568237439,colour,0.5
68,63,0,2,10,39,489,1023.0304749496281,1024.5973843168467,"[71, 0, 183]",183,a,1.0435825099702924,colour,0.5
68,63,0,2,10,40,490,1025.1084921284346,1026.8373695239425,"[6, 0, 248]",248,l,1.2054808277171105,colour,0.5
68,63,0,2,10,41,491,1027.3585243251873,1028.9013918093406,"[20, 0, 234]",234,l,1.0194543747929856,colour,0.5
68,63,0,2,10,42,492,1029.421087020426,1031.253354280605,"[19, 0, 235]",235,l,1.3089880582410842,colour,0.5
68,63,0,2,10,43,493,1031.7647980421316,1033.1734856358962,"[61, 0, 193]",193,l,0.8853063859278336,colour,0.5
68,63,0,2,10,44,494,1033.6866890974343,1035.2213543625548,"[57, 0, 197]",197,l,1.0113403771538287,colour,0.5
68,63,0,2,10,45,495,1035.7335625773994,1037.4853381298017,"[42, 0, 212]",212,l,1.2284616919932887,colour,0.5
68,63,0,2,10,46,496,1037.9991776513634,1039.8293102708412,"[14, 0, 240]",240,l,1.3068045808468014,colour,0.5
68,63,0,2,10,47,497,1040.3428642544895,1042.1573860340286,"[1, 0, 253]",253,l,1.291242971434258,colour,0.5
68,63,0,2,10,48,498,1042.6710278452374,1044.3573869004613,"[26, 0, 228]",228,l,1.1630767025053501,colour,0.5
68,63,0,2,10,49,499,1044.8741444206098,1046.2773366930196,"[73, 0, 181]",181,a,0.8801513467915356,colour,0.5
68,63,0,2,10,50,500,1046.795934651629,1048.5813717547571,"[48, 0, 206]",206,l,1.2620866151992232,colour,0.5
68,63,0,2,11,1,501,1059.1889247593936,1061.7893160838867,"[64, 0, 190]",190,l,2.0762767769629136,colour,0.5
68,63,0,2,11,2,502,1062.299063948216,1063.9252619759645,"[44, 0, 210]",210,l,1.1028660505544394,colour,0.5
68,63,0,2,11,3,503,1064.439768277225,1066.149266128661,"[78, 0, 176]",176,a,1.186197381815873,colour,0.5
68,63,0,2,11,4,504,1066.6584043205949,1068.341238461784,"[36, 0, 218]",218,l,1.159781794063747,colour,0.5
68,63,0,2,11,5,505,1068.861580366618,1070.5733865443617,"[91, 0, 163]",163,a,1.1884458436397836,colour,0.5
68,63,0,2,11,6,506,1071.0803042374318,1072.90131185879,"[52, 0, 202]",202,l,1.2984357652021572,colour,0.5
68,63,0,2,11,7,507,1073.4083914221264,1075.1172154045198,"[8, 0, 246]",246,l,1.1854475006693974,colour,0.5
68,63,0,2,11,8,508,1075.6271330160089,1077.1732686271425,"[68, 0, 186]",186,l,1.0227236833889037,colour,0.5
68,63,0,2,11,9,509,1077.6903368912172,1079.5332486040425,"[23, 0, 231]",231,l,1.3195108127547428,colour,0.5
68,63,0,2,11,10,510,1080.049683565041,1081.493267020327,"[60, 0, 194]",194,l,0.9202050042804331,colour,0.5
68,63,0,2,11,11,511,1082.0035257017007,1083.597181486548,"[96, 0, 158]",158,a,1.0703698875149712,colour,0.5
68,63,0,2,11,12,512,1084.1128374218242,1085.6612742701545,"[86, 0, 168]",168,a,1.025086360401474,colour,0.5
68,63,0,2,11,13,513,1086.175313471118,1088.2452623381978,"[53, 0, 201]",201,l,1.5465704160742462,colour,0.5
68,63,0,2,11,14,514,1088.7534879910527,1090.341196714202,"[20, 0, 234]",234,l,1.0643259399803355,colour,0.5
68,63,0,2,11,15,515,1090.862829249585,1092.2692392368335,"[93, 0, 161]",161,a,0.8830547732068226,colour,0.5
68,63,0,2,11,16,516,1092.787188532413,1094.3651562836021,"[45, 0, 209]",209,l,1.054560549557209,colour,0.5
68,63,0,2,11,17,517,1094.8841488750186,1096.3892040743958,"[77, 0, 177]",177,a,0.9817893882282078,colour,0.5
68,63,0,2,11,18,518,1096.8997837395873,1098.349145690794,"[0, 0, 254]",254,l,0.9260496662463993,colour,0.5
68,63,0,2,11,19,519,1098.8704544854118,1100.3251731244382,"[83, 0, 171]",171,a,0.9314496769802645,colour,0.5
68,63,0,2,11,20,520,1100.8391678209882,1102.341149452841,"[80, 0, 174]",174,a,0.9785917594563216,colour,0.5
68,63,0,2,11,21,521,1102.8548385254107,1104.421132312622,"[46, 0, 208]",208,l,1.042981896083802,colour,0.5
68,63,0,2,11,22,522,1104.932881697896,1106.1651140634203,"[48, 0, 206]",206,l,0.7088468252914026,colour,0.5
68,63,0,2,11,23,523,1106.6842385929776,1108.1572588220006,"[29, 0, 225]",225,l,0.9497099133441225,colour,0.5
68,63,0,2,11,24,524,1108.6686691066716,1109.7494530475233,"[28, 0, 226]",226,l,0.5576339201070368,colour,0.5
68,63,0,2,11,25,525,1110.262407205184,1111.4291328829713,"[88, 0, 166]",166,a,0.6435012203874066,colour,0.5
68,63,0,2,11,26,526,1111.9498713898938,1113.0851497142576,"[2, 0, 252]",252,l,0.6119042057543993,colour,0.5
68,63,0,2,11,27,527,1113.6061548544094,1114.9891338123707,"[21, 0, 233]",233,l,0.8596591900568455,colour,0.5
68,63,0,2,11,28,528,1115.4966950484086,1116.805157717201,"[97, 0, 157]",157,a,0.7851476268842816,colour,0.5
68,63,0,2,11,29,529,1117.3264125551796,1118.7091733230045,"[79, 0, 175]",175,a,0.8594150061253458,colour,0.5
68,63,0,2,11,30,530,1119.2170256105019,1120.3731525216717,"[12, 0, 242]",242,l,0.6327110449783504,colour,0.5
68,63,0,2,11,31,531,1120.8902629270451,1122.1411395278992,"[94, 0, 160]",160,a,0.725853452575393,colour,0.5
68,63,0,2,11,32,532,1122.6589816976339,1124.2611008207314,"[49, 0, 205]",205,l,1.0786193679086864,colour,0.5
68,63,0,2,11,33,533,1124.7683713991428,1126.0851339604706,"[37, 0, 217]",217,l,0.7935893037356436,colour,0.5
68,63,0,2,11,34,534,1126.596463900758,1127.9330892543076,"[95, 0, 159]",159,a,0.8136667415965348,colour,0.5
68,63,0,2,11,35,535,1128.4402924851747,1129.8211450732779,"[32, 0, 222]",222,l,0.858682454098016,colour,0.5
68,63,0,2,11,36,536,1130.3309657988138,1132.0451224445133,"[56, 0, 198]",198,l,1.1908522376324981,colour,0.5
68,63,0,2,11,37,537,1132.5652044115122,1134.7570593787823,"[75, 0, 179]",179,l,1.668532442417927,colour,0.5
68,63,0,2,11,38,538,1135.26834048226,1137.9410973077174,"[73, 0, 181]",181,a,2.1480519040487707,colour,0.5
68,63,0,2,11,39,539,1138.457231370965,1139.621068982291,"[67, 0, 187]",187,l,0.6408975099911913,colour,0.5
68,63,0,2,11,40,540,1140.128963805153,1141.261128783808,"[47, 0, 207]",207,l,0.6090519792633131,colour,0.5
68,63,0,2,11,41,541,1141.7696147682145,1143.0610853820108,"[35, 0, 219]",219,l,0.7681248519802466,colour,0.5
68,63,0,2,11,42,542,1143.582191346446,1144.9090780911501,"[4, 0, 250]",250,l,0.803574459743686,colour,0.5
68,63,0,2,11,43,543,1145.4258222206263,1146.533060346148,"[40, 0, 214]",214,l,0.583724191877991,colour,0.5
68,63,0,2,11,44,544,1147.0508828235324,1148.3170713359723,"[1, 0, 253]",253,l,0.7429589349776506,colour,0.5
68,63,0,2,11,45,545,1148.832126263529,1150.1810450996272,"[90, 0, 164]",164,a,0.8255403850926086,colour,0.5
68,63,0,2,11,46,546,1150.6914392637555,1152.3170642467448,"[3, 0, 251]",251,l,1.1022032090695575,colour,0.5
68,63,0,2,11,47,547,1152.8321431989316,1154.6450458809268,"[14, 0, 240]",240,l,1.2896159969968721,colour,0.5
68,63,0,2,11,48,548,1155.1602280205116,1156.925087108626,"[82, 0, 172]",172,a,1.2414223480736837,colour,0.5
68,63,0,2,11,49,549,1157.441472445149,1159.157019364182,"[57, 0, 197]",197,l,1.1921113604912534,colour,0.5
68,63,0,2,11,50,550,1159.6758890758501,1161.6049922235543,"[25, 0, 229]",229,l,1.4058511210605502,colour,0.5
68,63,0,2,12,1,551,1171.2531455426943,1173.973421754199,"[15, 0, 239]",239,l,2.196203805389814,colour,0.5
68,63,0,2,12,2,552,1174.4883419867838,1176.0930770293344,"[19, 0, 235]",235,l,1.0814944375306368,colour,0.5
68,63,0,2,12,3,553,1176.613298023818,1178.1649636145448,"[51, 0, 203]",203,l,1.0284167148638517,colour,0.5
68,63,0,2,12,4,554,1178.6757216916885,1180.188962962362,"[42, 0, 212]",212,l,0.9898041367996484,colour,0.5
68,63,0,2,12,5,555,1180.7070347438566,1182.0290488363244,"[77, 0, 177]",177,a,0.7986403676914051,colour,0.5
68,63,0,2,12,6,556,1182.5350764393806,1183.9490569180343,"[74, 0, 180]",180,a,0.8908387286355719,colour,0.5
68,63,0,2,12,7,557,1184.457123063621,1185.8530126593541,"[3, 0, 251]",251,l,0.8726017292356119,colour,0.5
68,63,0,2,12,8,558,1186.3634044603677,1187.6929799859645,"[80, 0, 174]",174,a,0.8062896282644942,colour,0.5
68,63,0,2,12,9,559,1188.2070089469198,1190.420999980648,"[54, 0, 200]",200,l,1.6907547608716413,colour,0.5
68,63,0,2,12,10,560,1190.9413757561706,1192.9250615087803,"[37, 0, 217]",217,l,1.460399855277501,colour,0.5
68,63,0,2,12,11,561,1193.4413113625487,1195.1809304906055,"[59, 0, 195]",195,l,1.2161560005042702,colour,0.5
68,63,0,2,12,12,562,1195.6913262301823,1197.6849085235735,"[31, 0, 223]",223,l,1.4701995102223009,colour,0.5
68,63,0,2,12,13,563,1198.191332728602,1200.7809271822916,"[49, 0, 205]",205,l,2.066151018254459,colour,0.5
68,63,0,2,12,14,564,1201.3006527195685,1203.0369371607667,"[47, 0, 207]",207,l,1.2129501010058448,colour,0.5
68,63,0,2,12,15,565,1203.5506593164755,1205.2370699653402,"[32, 0, 222]",222,l,1.1630633117165416,colour,0.5
68,63,0,2,12,16,566,1205.7558813879732,1207.1088599797804,"[62, 0, 192]",192,l,0.829690725193359,colour,0.5
68,63,0,2,12,17,567,1207.6153322339524,1208.7249038919108,"[35, 0, 219]",219,l,0.598976238979958,colour,0.5
68,63,0,2,12,18,568,1209.2452753351536,1210.4289040588774,"[92, 0, 162]",162,a,0.6602955650305375,colour,0.5
68,63,0,2,12,19,569,1210.949075822602,1212.468890762655,"[2, 0, 252]",252,l,0.9964754797983915,colour,0.5
68,63,0,2,12,20,570,1212.9803203457268,1214.5568741927855,"[53, 0, 201]",201,l,1.0532364421524107,colour,0.5
68,63,0,2,12,21,571,1215.074035010417,1216.6288608147297,"[94, 0, 160]",160,a,1.0315198209136724,colour,0.5
68,63,0,2,12,22,572,1217.1365961303236,1218.66889674915,"[55, 0, 199]",199,l,1.0090143276611343,colour,0.5
68,63,0,2,12,23,573,1219.1833857212914,1220.6848620497622,"[87, 0, 167]",167,a,0.9781270221574232,colour,0.5
68,63,0,2,12,24,574,1221.198964659823,1222.540826184675,"[14, 0, 240]",240,l,0.8185405753320083,colour,0.5
68,63,0,2,12,25,575,1223.0582993214484,1226.028836947633,"[69, 0, 185]",185,l,2.4471922582015395,colour,0.5
68,63,0,2,12,26,576,1226.54277493048,1227.6048488639062,"[20, 0, 234]",234,l,0.5364647436654195,colour,0.5
68,63,0,2,12,27,577,1228.1231475000968,1229.2768113036873,"[98, 0, 156]",156,a,0.630336158676073,colour,0.5
68,63,0,2,12,28,578,1229.7950146293733,1231.3008886327734,"[90, 0, 164]",164,a,0.982538087759167,colour,0.5
68,63,0,2,12,29,579,1231.8058552170405,1233.6048882483738,"[50, 0, 204]",204,l,1.2756746666273102,colour,0.5
68,63,0,2,12,30,580,1234.1110607864102,1236.2048467370914,"[73, 0, 181]",181,l,1.5799109830986708,colour,0.5
68,63,0,2,12,31,581,1236.7112532191677,1237.6688022263115,"[9, 0, 245]",245,l,0.43435960193164647,colour,0.5
68,63,0,2,12,32,582,1238.1799001917243,1239.7088452499593,"[82, 0, 172]",172,a,1.0062810423551127,colour,0.5
68,63,0,2,12,33,583,1240.2267685517436,1241.6608441913268,"[8, 0, 246]",246,l,0.9106144811958075,colour,0.5
68,63,0,2,12,34,584,1242.1797934597125,1243.4527691055555,"[85, 0, 169]",169,a,0.7502750024432316,colour,0.5
68,63,0,2,12,35,585,1243.9612365792273,1245.356854027952,"[16, 0, 238]",238,l,0.8722972868708894,colour,0.5
68,63,0,2,12,36,586,1245.8673403519206,1247.23689273512,"[24, 0, 230]",230,l,0.8462530951946974,colour,0.5
68,63,0,2,12,37,587,1247.7579868840985,1249.0688185314648,"[83, 0, 171]",171,a,0.787429959513247,colour,0.5
68,63,0,2,12,38,588,1249.5861057733418,1250.9887695056386,"[13, 0, 241]",241,l,0.879618868115358,colour,0.5
68,63,0,2,12,39,589,1251.5079594134586,1252.8687747359509,"[86, 0, 168]",168,a,0.8377716399263591,colour,0.5
68,63,0,2,12,40,590,1253.3829525703331,1254.8287458906416,"[39, 0, 215]",215,l,0.9224282600916922,colour,0.5
68,63,0,2,12,41,591,1255.3361149303382,1256.8448269817745,"[10, 0, 244]",244,l,0.9854501787340268,colour,0.5
68,63,0,2,12,42,592,1257.3516651181271,1259.0767647511093,"[4, 0, 250]",250,l,1.2019744244171306,colour,0.5
68,63,0,2,12,43,593,1259.5861396440305,1261.1487450714922,"[60, 0, 194]",194,l,1.0392320965183899,colour,0.5
68,63,0,2,12,44,594,1261.6642013273668,1263.53275984223,"[48, 0, 206]",206,l,1.345243473071605,colour,0.5
68,63,0,2,12,45,595,1264.0392190995626,1265.8607737717684,"[52, 0, 202]",202,l,1.2982632610946894,colour,0.5
68,63,0,2,12,46,596,1266.367303921259,1268.8847601226298,"[23, 0, 231]",231,l,1.9942203224636614,colour,0.5
68,63,0,2,12,47,597,1269.398567742668,1270.8688109696377,"[88, 0, 166]",166,a,0.9469195205019787,colour,0.5
68,63,0,2,12,48,598,1271.3829285458196,1272.8687404714292,"[68, 0, 186]",186,l,0.9625409943982959,colour,0.5
68,63,0,2,12,49,599,1273.3828718321165,1274.748745701625,"[6, 0, 248]",248,l,0.8424824216635898,colour,0.5
68,63,0,2,12,50,600,1275.2486068712315,1276.88472349511,"[21, 0, 233]",233,l,1.1127763759577647,colour,0.5
68,63,0,2,13,1,601,1286.0549646345899,1288.204675808316,"[58, 0, 196]",196,l,1.625517463311553,colour,0.5
68,63,0,2,13,2,602,1288.7120460293954,1290.23667927098,"[24, 0, 230]",230,l,1.0013292273506522,colour,0.5
68,63,0,2,13,3,603,1290.7432405342115,1292.212761449162,"[18, 0, 236]",236,l,0.946171608637087,colour,0.5
68,63,0,2,13,4,604,1292.7295583538944,1295.0527748556342,"[39, 0, 215]",215,l,1.799798272550106,colour,0.5
68,63,0,2,13,5,605,1295.573350704508,1297.068721251795,"[92, 0, 162]",162,a,0.9720192716922611,colour,0.5
68,63,0,2,13,6,606,1297.588967846008,1299.1246559269493,"[45, 0, 209]",209,l,1.0123576790792868,colour,0.5
68,63,0,2,13,7,607,1299.63579248928,1301.284667332773,"[73, 0, 181]",181,l,1.1256885890616104,colour,0.5
68,63,0,2,13,8,608,1301.7920572462026,1302.8206634005764,"[9, 0, 245]",245,l,0.5053029279224575,colour,0.5
68,63,0,2,13,9,609,1303.338802135666,1304.3806714193197,"[46, 0, 208]",208,l,0.5183258116012439,colour,0.5
68,63,0,2,13,10,610,1304.9013768432196,1306.6446740911342,"[56, 0, 198]",198,l,1.2200015045236796,colour,0.5
68,63,0,2,13,11,611,1307.1514811137458,1308.3487132488517,"[84, 0, 170]",170,a,0.6740238253260031,colour,0.5
68,63,0,2,13,12,612,1308.870126806316,1310.2286558577325,"[13, 0, 241]",241,l,0.8352703294949606,colour,0.5
68,63,0,2,13,13,613,1310.7451132679125,1312.1086559679825,"[77, 0, 177]",177,a,0.8401969383703545,colour,0.5
68,63,0,2,13,14,614,1312.6231508477358,1313.9966881561559,"[57, 0, 197]",197,l,0.8501584635814652,colour,0.5
68,63,0,2,13,15,615,1314.5137950169155,1315.7806089554215,"[16, 0, 238]",238,l,0.7438017635140568,colour,0.5
68,63,0,2,13,16,616,1316.2949998601107,1317.6525915601524,"[61, 0, 193]",193,l,0.8341596861137077,colour,0.5
68,63,0,2,13,17,617,1318.1700064078905,1319.56457819778,"[30, 0, 224]",224,l,0.871198852895759,colour,0.5
68,63,0,2,13,18,618,1320.0762358171633,1321.492587637389,"[74, 0, 180]",180,a,0.8931439042789862,colour,0.5
68,63,0,2,13,19,619,1322.0142367143417,1324.1886837261263,"[94, 0, 160]",160,a,1.6512071944307536,colour,0.5
68,63,0,2,13,20,620,1324.7015953485388,1326.2526335440343,"[6, 0, 248]",248,l,1.027841701055877,colour,0.5
68,63,0,2,13,21,621,1326.7548148552887,1328.1406153199496,"[98, 0, 156]",156,a,0.8624385552247986,colour,0.5
68,63,0,2,13,22,622,1328.6610320553882,1329.9485973007977,"[51, 0, 203]",203,l,0.7643092803191394,colour,0.5
68,63,0,2,13,23,623,1330.457870975486,1332.1725998781621,"[34, 0, 220]",220,l,1.1912764088483527,colour,0.5
68,63,0,2,13,24,624,1332.6922966645798,1334.2046068854397,"[53, 0, 201]",201,l,0.9889857267262414,colour,0.5
68,63,0,2,13,25,625,1334.7235207078047,1336.2365689943545,"[20, 0, 234]",234,l,0.9897033125162125,colour,0.5
68,63,0,2,13,26,626,1336.7547841353808,1338.1485394843621,"[75, 0, 179]",179,a,0.8704607870895416,colour,0.5
68,63,0,2,13,27,627,1338.6629351151641,1340.012580989278,"[86, 0, 168]",168,a,0.8266242468962446,colour,0.5
68,63,0,2,13,28,628,1340.522286318359,1341.9405644352082,"[72, 0, 182]",182,a,0.8948405892588198,colour,0.5
68,63,0,2,13,29,629,1342.4597405584063,1344.076588308555,"[67, 0, 187]",187,l,1.0934980498859659,colour,0.5
68,63,0,2,13,30,630,1344.5847521276446,1346.2285688179545,"[87, 0, 167]",167,a,1.120665094233118,colour,0.5
68,63,0,2,13,31,631,1346.74096529081,1348.444568855688,"[80, 0, 174]",174,a,1.1802908860845491,colour,0.5
68,63,0,2,13,32,632,1348.9596352048684,1350.1485895026708,"[47, 0, 207]",207,l,0.665651859017089,colour,0.5
68,63,0,2,13,33,633,1350.654662397923,1352.676559400279,"[38, 0, 216]",216,l,1.4979289652546868,colour,0.5
68,63,0,2,13,34,634,1353.1865408146987,1354.6285512524191,"[63, 0, 191]",191,l,0.9168431421276182,colour,0.5
68,63,0,2,13,35,635,1355.1419043751666,1356.9085030772258,"[44, 0, 210]",210,l,1.2432458511320874,colour,0.5
68,63,0,2,13,36,636,1357.4231684920378,1359.204533236334,"[8, 0, 246]",246,l,1.2579217028105631,colour,0.5
68,63,0,2,13,37,637,1359.720001701382,1361.2765194644453,"[62, 0, 192]",192,l,1.0331826350884512,colour,0.5
68,63,0,2,13,38,638,1361.7981114337454,1363.3885550175328,"[42, 0, 212]",212,l,1.0670655267313123,colour,0.5
68,63,0,2,13,39,639,1363.9075582427904,1365.3085189886624,"[89, 0, 165]",165,a,0.8777473160298541,colour,0.5
68,63,0,2,13,40,640,1365.8293279937934,1367.4444963881979,"[2, 0, 252]",252,l,1.0917737957788631,colour,0.5
68,63,0,2,13,41,641,1367.9543285353575,1369.436553713167,"[85, 0, 169]",169,a,0.9588731145486236,colour,0.5
68,63,0,2,13,42,642,1369.9543608305976,1371.6924711379688,"[28, 0, 226]",226,l,1.2148271668702364,colour,0.5
68,63,0,2,13,43,643,1372.2043347384315,1373.9324646159075,"[3, 0, 251]",251,l,1.2048798201140016,colour,0.5
68,63,0,2,13,44,644,1374.438661572407,1376.0124537773663,"[15, 0, 239]",239,l,1.0505248183617368,colour,0.5
68,63,0,2,13,45,645,1376.532451855368,1378.6124374720966,"[14, 0, 240]",240,l,1.5567103532375768,colour,0.5
68,63,0,2,13,46,646,1379.1260395050049,1382.004423668608,"[59, 0, 195]",195,l,2.3549647527979687,colour,0.5
68,63,0,2,13,47,647,1382.516779575497,1386.55655832903,"[35, 0, 219]",219,l,3.5170816547470167,colour,0.5
68,63,0,2,13,48,648,1387.063640255481,1394.3804059677059,"[36, 0, 218]",218,l,6.7934715441660956,colour,0.5
68,63,0,2,13,49,649,1394.8917087325826,1396.3644528761506,"[97, 0, 157]",157,a,0.9495358337881044,colour,0.5
68,63,0,2,13,50,650,1396.8760864710202,1399.692466018023,"[25, 0, 229]",229,l,2.293157452601008,colour,0.5
68,63,0,2,14,1,651,1405.2098749580327,1408.5323624524754,"[9, 0, 245]",245,l,2.798313476261683,colour,0.5
68,63,0,2,14,2,652,1409.0388118636329,1410.3723494713195,"[74, 0, 180]",180,a,0.8102780979825184,colour,0.5
68,63,0,2,14,3,653,1410.882529383758,1413.2684200389776,"[1, 0, 253]",253,l,1.8626260255696252,colour,0.5
68,63,0,2,14,4,654,1413.774969880702,1414.8443606691435,"[39, 0, 215]",215,l,0.5459623192436993,colour,0.5
68,63,0,2,14,5,655,1415.340849736589,1416.8604267941555,"[20, 0, 234]",234,l,0.9961478005861863,colour,0.5
68,63,0,2,14,6,656,1417.3721560933627,1418.7883870032383,"[98, 0, 156]",156,a,0.8929481633240357,colour,0.5
68,63,0,2,14,7,657,1419.3096410534345,1420.7884023631923,"[8, 0, 246]",246,l,0.9553647419670597,colour,0.5
68,63,0,2,14,8,658,1421.3096556257224,1423.0924000096275,"[57, 0, 197]",197,l,1.2594131943769753,colour,0.5
68,63,0,2,14,9,659,1423.6064663858851,1425.4523390266113,"[21, 0, 233]",233,l,1.3223874578252435,colour,0.5
68,63,0,2,14,10,660,1425.9565683327382,1427.6923041476402,"[28, 0, 226]",226,l,1.2123254626058042,colour,0.5
68,63,0,2,14,11,661,1428.2065725665307,1429.6203061043052,"[68, 0, 186]",186,l,0.89043464360293,colour,0.5
68,63,0,2,14,12,662,1430.1283915481763,1431.5803064035717,"[77, 0, 177]",177,a,0.9285466443980113,colour,0.5
68,63,0,2,14,13,663,1432.0970883421833,1434.428370004869,"[83, 0, 171]",171,a,1.8078366519184783,colour,0.5
68,63,0,2,14,14,664,1434.9409401634475,1436.6922994215274,"[69, 0, 185]",185,a,1.2281080191023648,colour,0.5
68,63,0,2,14,15,665,1437.2066044679377,1438.6763093086192,"[75, 0, 179]",179,a,0.9463551404187456,colour,0.5
68,63,0,2,14,16,666,1439.1909491234692,1441.236325204256,"[60, 0, 194]",194,l,1.5220712788868695,colour,0.5
68,63,0,2,14,17,667,1441.7534273389028,1443.4602998185437,"[53, 0, 201]",201,l,1.1835889454232529,colour,0.5
68,63,0,2,14,18,668,1443.9740184295224,1445.4363457629224,"[45, 0, 209]",209,l,0.9388866549124941,colour,0.5
68,63,0,2,14,19,669,1445.9427301896503,1447.2123357024975,"[85, 0, 169]",169,a,0.7462286372901872,colour,0.5
68,63,0,2,14,20,670,1447.7270594063448,1449.2603162812302,"[93, 0, 161]",161,a,1.0099272606894374,colour,0.5
68,63,0,2,14,21,671,1449.773905711132,1451.7643021910917,"[26, 0, 228]",228,l,1.467036145972088,colour,0.5
68,63,0,2,14,22,672,1452.273924024892,1454.2442745746812,"[29, 0, 225]",225,l,1.4470083325868472,colour,0.5
68,63,0,2,14,23,673,1454.7581333945272,1456.1242510542506,"[61, 0, 193]",193,l,0.8412292065331712,colour,0.5
68,63,0,2,14,24,674,1456.6346424614312,1458.1882733395323,"[31, 0, 223]",223,l,1.0303827899042517,colour,0.5
68,63,0,2,14,25,675,1458.6971397784073,1460.1563372244127,"[27, 0, 227]",227,l,0.935830416623503,colour,0.5
68,63,0,2,14,26,676,1460.6659200675786,1461.996239172644,"[10, 0, 244]",244,l,0.8069820079253986,colour,0.5
68,63,0,2,14,27,677,1462.5096273475792,1464.1162670253543,"[86, 0, 168]",168,a,1.0834624816197902,colour,0.5
68,63,0,2,14,28,678,1464.6346641229466,1466.6922092309687,"[17, 0, 237]",237,l,1.5343746073776856,colour,0.5
68,63,0,2,14,29,679,1467.2135333856568,1468.8522923166165,"[37, 0, 217]",217,l,1.1151993112871423,colour,0.5
68,63,0,2,14,30,680,1469.3699726159684,1470.892283352674,"[99, 0, 155]",155,a,0.9989551288308576,colour,0.5
68,63,0,2,14,31,681,1471.390959442244,1473.0282253061887,"[88, 0, 166]",166,a,1.1140079296892509,colour,0.5
68,63,0,2,14,32,682,1473.5471623654012,1474.9962513819337,"[66, 0, 188]",188,l,0.9257022949168459,colour,0.5
68,63,0,2,14,33,683,1475.515849313233,1477.3962196379434,"[43, 0, 211]",211,l,1.3573420020984486,colour,0.5
68,63,0,2,14,34,684,1477.90646256553,1479.56421979866,"[3, 0, 251]",251,l,1.1342559024924412,colour,0.5
68,63,0,2,14,35,685,1480.078324771719,1481.812261108309,"[6, 0, 248]",248,l,1.2105196826159954,colour,0.5
68,63,0,2,14,36,686,1482.3282766242046,1483.9161637591897,"[11, 0, 243]",243,l,1.0644602411193773,colour,0.5
68,63,0,2,14,37,687,1484.4220460334327,1486.0041802723426,"[36, 0, 218]",218,l,1.058748304960318,colour,0.5
68,63,0,2,14,38,688,1486.5157981134253,1487.8121717054164,"[79, 0, 175]",175,a,0.7733901678584516,colour,0.5
68,63,0,2,14,39,689,1488.3282848949311,1489.668216578546,"[51, 0, 203]",203,l,0.8165449618827552,colour,0.5
68,63,0,2,14,40,690,1490.1876227073371,1491.6042147731641,"[49, 0, 205]",205,l,0.9055267894873396,colour,0.5
68,63,0,2,14,41,691,1492.112937064725,1493.540231084684,"[5, 0, 249]",249,l,0.9039084798423573,colour,0.5
68,63,0,2,14,42,692,1494.0504614092642,1495.4041367131285,"[62, 0, 192]",192,l,0.8304268218344077,colour,0.5
68,63,0,2,14,43,693,1495.9254667754285,1497.2441501196008,"[78, 0, 176]",176,a,0.7953194655710831,colour,0.5
68,63,0,2,14,44,694,1497.7535951168975,1498.9561614906415,"[55, 0, 199]",199,l,0.679284808691591,colour,0.5
68,63,0,2,14,45,695,1499.4723006739514,1500.7881376992445,"[63, 0, 191]",191,l,0.7924069806467742,colour,0.5
68,63,0,2,14,46,696,1501.3004451631568,1502.5321667115204,"[97, 0, 157]",157,a,0.7091650522779673,colour,0.5
68,63,0,2,14,47,697,1503.0504228124628,1504.3321894757682,"[23, 0, 231]",231,l,0.7585189690580592,colour,0.5
68,63,0,2,14,48,698,1504.8473657076247,1506.156150541734,"[76, 0, 178]",178,a,0.7854839706560597,colour,0.5
68,63,0,2,14,49,699,1506.67538140947,1507.8201569158118,"[7, 0, 247]",247,l,0.621356095536612,colour,0.5
68,63,0,2,14,50,700,1508.3316818092717,1509.7481691123685,"[47, 0, 207]",207,l,0.8930919168051332,colour,0.5
68,63,0,2,15,1,701,1517.924527848605,1520.5881147774635,"[59, 0, 195]",195,l,2.1394018831197172,colour,0.5
68,63,0,2,15,2,702,1521.097188378917,1522.4921099032508,"[85, 0, 169]",169,a,0.8715379534987733,colour,0.5
68,63,0,2,15,3,703,1523.0034489019308,1524.4282018330414,"[0, 0, 254]",254,l,0.9013925971230492,colour,0.5
68,63,0,2,15,4,704,1524.9285679120803,1526.5401011158247,"[42, 0, 212]",212,l,1.0882319464581087,colour,0.5
68,63,0,2,15,5,705,1527.053506619879,1528.4441214476246,"[28, 0, 226]",226,l,0.8672485860297456,colour,0.5
68,63,0,2,15,6,706,1528.959740755381,1530.4520731811645,"[84, 0, 170]",170,a,0.9690343192778528,colour,0.5
68,63,0,2,15,7,707,1530.959740755381,1532.9480474930024,"[19, 0, 235]",235,l,1.4649432528531179,colour,0.5
68,63,0,2,15,8,708,1533.4596704540309,1534.8200434884056,"[81, 0, 173]",173,a,0.8369689835235476,colour,0.5
68,63,0,2,15,9,709,1535.3348345396807,1536.7720522758318,"[50, 0, 204]",204,l,0.9143646745942533,colour,0.5
68,63,0,2,15,10,710,1537.2877893432742,1538.5481064121705,"[5, 0, 249]",249,l,0.7369701255811378,colour,0.5
68,63,0,2,15,11,711,1539.0564667599974,1540.2920507476665,"[83, 0, 171]",171,a,0.7121893890434876,colour,0.5
68,63,0,2,15,12,712,1540.8064597692573,1542.1720725194318,"[76, 0, 178]",178,a,0.8421728593530133,colour,0.5
68,63,0,2,15,13,713,1542.681487584603,1546.1160874320194,"[72, 0, 182]",182,a,2.9111635013250634,colour,0.5
68,63,0,2,15,14,714,1546.634553846321,1547.6520551430294,"[24, 0, 230]",230,l,0.4942547839600593,colour,0.5
68,63,0,2,15,15,715,1548.1657631202834,1549.220020408975,"[23, 0, 231]",231,l,0.5289734150283039,colour,0.5
68,63,0,2,15,16,716,1549.7302979950327,1550.7960563497618,"[6, 0, 248]",248,l,0.5424661559518427,colour,0.5
68,63,0,2,15,17,717,1551.3054111566162,1552.5720293540508,"[57, 0, 197]",197,l,0.7431286822538823,colour,0.5
68,63,0,2,15,18,718,1553.0866778334603,1554.6039717707317,"[16, 0, 238]",238,l,0.9939568401314318,colour,0.5
68,63,0,2,15,19,719,1555.1075248447014,1556.187975198729,"[45, 0, 209]",209,l,0.5572006904985756,colour,0.5
68,63,0,2,15,20,720,1556.7012255279114,1558.0920620904071,"[73, 0, 181]",181,a,0.8676050158683211,colour,0.5
68,63,0,2,15,21,721,1558.609433615231,1559.9160137042636,"[69, 0, 185]",185,a,0.7832544133998454,colour,0.5
68,63,0,2,15,22,722,1560.4218668338144,1561.580041739624,"[91, 0, 163]",163,a,0.6348196917679161,colour,0.5
68,63,0,2,15,23,723,1562.093781224452,1563.6840018919902,"[3, 0, 251]",251,l,1.0669328009244055,colour,0.5
68,63,0,2,15,24,724,1564.2031532030087,1565.5880285253515,"[82, 0, 172]",172,a,0.8615937574068084,colour,0.5
68,63,0,2,15,25,725,1566.1093971845694,1567.484038834693,"[27, 0, 227]",227,l,0.8513084914302453,colour,0.5
68,63,0,2,15,26,726,1567.9999570708023,1569.404017377994,"[95, 0, 159]",159,a,0.8807271483819932,colour,0.5
68,63,0,2,15,27,727,1569.9232553349575,1571.4039799626917,"[21, 0, 233]",233,l,0.9573725644731894,colour,0.5
68,63,0,2,15,28,728,1571.9232525780099,1573.27597792726,"[62, 0, 192]",192,l,0.8293539875885472,colour,0.5
68,63,0,2,15,29,729,1573.7825281628175,1575.1800041669048,"[52, 0, 202]",202,l,0.8740191779797897,colour,0.5
68,63,0,2,15,30,730,1575.688776476658,1576.7639378842432,"[35, 0, 219]",219,l,0.551671892288141,colour,0.5
68,63,0,2,15,31,731,1577.2824629815295,1578.6839948027628,"[20, 0, 234]",234,l,0.8781246197177097,colour,0.5
68,63,0,2,15,32,732,1579.2069545963313,1580.3160189817427,"[8, 0, 246]",246,l,0.585668605286628,colour,0.5
68,63,0,2,15,33,733,1580.831817489001,1582.1560304190498,"[67, 0, 187]",187,a,0.8007265655323863,colour,0.5
68,63,0,2,15,34,734,1582.677591668442,1584.1319680559682,"[54, 0, 200]",200,l,0.9310247180983424,colour,0.5
68,63,0,2,15,35,735,1584.6741226803279,1586.0439042814542,"[56, 0, 198]",198,l,0.8428995037684217,colour,0.5
68,63,0,2,15,36,736,1586.5526529605268,1587.9799284698674,"[4, 0, 250]",250,l,0.9039612550986931,colour,0.5
68,63,0,2,15,37,737,1588.4908432972152,1589.7879640135216,"[93, 0, 161]",161,a,0.7744791496079415,colour,0.5
68,63,0,2,15,38,738,1590.3025908315321,1591.7639280381845,"[99, 0, 155]",155,a,0.93802058941219,colour,0.5
68,63,0,2,15,39,739,1592.2741170090158,1593.7239054944366,"[22, 0, 232]",232,l,0.9265081019839272,colour,0.5
68,63,0,2,15,40,740,1594.242866184446,1595.6679440377047,"[61, 0, 193]",193,l,0.9141216721618548,colour,0.5
68,63,0,2,15,41,741,1596.1859315362526,1597.6360181624768,"[18, 0, 236]",236,l,0.9267062060534954,colour,0.5
68,63,0,2,15,42,742,1598.1546870132443,1599.4038964675274,"[29, 0, 225]",225,l,0.7258656617486849,colour,0.5
68,63,0,2,15,43,743,1599.9206405970035,1601.2201677070698,"[98, 0, 156]",156,a,0.7762254589470103,colour,0.5
68,63,0,2,15,44,744,1601.7332124491222,1603.2439106616657,"[32, 0, 222]",222,l,0.9873331523267552,colour,0.5
68,63,0,2,15,45,745,1603.7643908062018,1604.9719712225487,"[48, 0, 206]",206,l,0.6841637624893337,colour,0.5
68,63,0,2,15,46,746,1605.4831727691926,1606.8838834234048,"[53, 0, 201]",201,l,0.8773109356407076,colour,0.5
68,63,0,2,15,47,747,1607.4050299538067,1608.6998959067278,"[9, 0, 245]",245,l,0.771502074203454,colour,0.5
68,63,0,2,15,48,748,1609.2174773509614,1610.731819418841,"[38, 0, 216]",216,l,1.0009070254163817,colour,0.5
68,63,0,2,15,49,749,1611.2387749210466,1612.5238242836203,"[92, 0, 162]",162,a,0.7615972626954317,colour,0.5
68,63,0,2,15,50,750,1613.0356315640965,1614.4118478072342,"[49, 0, 205]",205,l,0.8528901735553518,colour,0.5
68,63,0,2,16,1,751,1620.0504562893184,1622.0918498078827,"[71, 0, 183]",183,l,1.5150242076488212,colour,0.5
68,63,0,2,16,2,752,1622.6003925059922,1623.6358444768703,"[23, 0, 231]",231,l,0.5122078211279586,colour,0.5
68,63,0,2,16,3,753,1624.1502657076344,1625.2678521142807,"[54, 0, 200]",200,l,0.5943647060776129,colour,0.5
68,63,0,2,16,4,754,1625.7752412399277,1627.0278550917283,"[49, 0, 205]",205,l,0.7292669084854424,colour,0.5
68,63,0,2,16,5,755,1627.5408427261282,1628.8038371544098,"[90, 0, 164]",164,a,0.7396774170920253,colour,0.5
68,63,0,2,16,6,756,1629.3253109703073,1630.9078299959656,"[96, 0, 158]",158,a,1.0590941010741517,colour,0.5
68,63,0,2,16,7,757,1631.4218739230419,1632.7397841492202,"[33, 0, 221]",221,l,0.7946475656935945,colour,0.5
68,63,0,2,16,8,758,1633.2375260380795,1634.4678640083876,"[93, 0, 161]",161,a,0.7069776363205165,colour,0.5
68,63,0,2,16,9,759,1634.9874631213024,1636.3638369024266,"[9, 0, 245]",245,l,0.852954370318912,colour,0.5
68,63,0,2,16,10,760,1636.8780899612466,1638.0918084541336,"[79, 0, 175]",175,a,0.6903042020276189,colour,0.5
68,63,0,2,16,11,761,1638.6124737059,1640.2518364014104,"[66, 0, 188]",188,l,1.1160720720654353,colour,0.5
68,63,0,2,16,12,762,1640.7687286166474,1641.9238512226148,"[2, 0, 252]",252,l,0.6320245728129521,colour,0.5
68,63,0,2,16,13,763,1642.4406213457696,1643.539750593598,"[19, 0, 235]",235,l,0.5758358674356714,colour,0.5
68,63,0,2,16,14,764,1644.0498796999454,1645.083773619379,"[29, 0, 225]",225,l,0.5105737575795501,colour,0.5
68,63,0,2,16,15,765,1645.596781339962,1646.6038162019104,"[45, 0, 209]",209,l,0.4836989463074133,colour,0.5
68,63,0,2,16,16,766,1647.112375441473,1648.2837926027132,"[89, 0, 165]",165,a,0.6480899101588875,colour,0.5
68,63,0,2,16,17,767,1648.7999014599482,1650.2358128116466,"[70, 0, 184]",184,l,0.9125907960115001,colour,0.5
68,63,0,2,16,18,768,1650.7530370383756,1652.0997751537943,"[62, 0, 192]",192,l,0.8233655722578987,colour,0.5
68,63,0,2,16,19,769,1652.5999427349307,1653.8277577331755,"[47, 0, 207]",207,l,0.7045586393214762,colour,0.5
68,63,0,2,16,20,770,1654.3342733103782,1655.8757741518784,"[48, 0, 206]",206,l,1.0183673622086644,colour,0.5
68,63,0,2,16,21,771,1656.3971053956775,1657.7317591605242,"[38, 0, 216]",216,l,0.811674672877416,colour,0.5
68,63,0,2,16,22,772,1658.2404846027493,1659.515736673493,"[86, 0, 168]",168,a,0.7519531764555722,colour,0.5
68,63,0,2,16,23,773,1660.0217788488371,1664.6357968215598,"[82, 0, 172]",172,l,4.090631644940004,colour,0.5
68,63,0,2,16,24,774,1665.1467951441882,1666.6757224793546,"[27, 0, 227]",227,l,1.0056942130904645,colour,0.5
68,63,0,2,16,25,775,1667.195094343624,1668.395730876131,"[40, 0, 214]",214,l,0.677284469245933,colour,0.5
68,63,0,2,16,26,776,1668.9137951744488,1670.2276940878946,"[1, 0, 253]",253,l,0.7905531516298652,colour,0.5
68,63,0,2,16,27,777,1670.7419723528437,1672.1557377920253,"[68, 0, 186]",186,a,0.8909549129894003,colour,0.5
68,63,0,2,16,28,778,1672.6639449341455,1673.971784146037,"[3, 0, 251]",251,l,0.784530077711679,colour,0.5
68,63,0,2,16,29,779,1674.4921331400983,1677.9157234403538,"[64, 0, 190]",190,a,2.9005253500072286,colour,0.5
68,63,0,2,16,30,780,1678.42950546043,1679.6039004847407,"[22, 0, 232]",232,l,0.651065016281791,colour,0.5
68,63,0,2,16,31,781,1680.1170149373356,1681.459657063242,"[20, 0, 234]",234,l,0.8193928562104702,colour,0.5
68,63,0,2,16,32,782,1681.9764197034528,1683.5797325712629,"[43, 0, 211]",211,l,1.0800159429199994,colour,0.5
68,63,0,2,16,33,783,1684.1013985835016,1685.6757433532039,"[88, 0, 166]",166,a,1.0513195978710428,colour,0.5
68,63,0,2,16,34,784,1686.1951364850393,1687.5957758532604,"[15, 0, 239]",239,l,0.8773778893519193,colour,0.5
68,63,0,2,16,35,785,1688.1169917004881,1689.715722573921,"[75, 0, 179]",179,a,1.0755753389094025,colour,0.5
68,63,0,2,16,36,786,1690.2263372913003,1691.7876709927805,"[83, 0, 171]",171,a,1.037928075180389,colour,0.5
68,63,0,2,16,37,787,1692.3044824696844,1693.675656707259,"[69, 0, 185]",185,a,0.8478985802503303,colour,0.5
68,63,0,2,16,38,788,1694.1950967066223,1695.4036770957755,"[5, 0, 249]",249,l,0.6851991813164204,colour,0.5
68,63,0,2,16,39,789,1695.9138180174632,1697.1716554374434,"[99, 0, 155]",155,a,0.7345101688988507,colour,0.5
68,63,0,2,16,40,790,1697.6794844882097,1698.947676884709,"[10, 0, 244]",244,l,0.7449234345695004,colour,0.5
68,63,0,2,16,41,791,1699.451385133667,1700.7396908078808,"[95, 0, 159]",159,a,0.7655778555199504,colour,0.5
68,63,0,2,16,42,792,1701.2482228722656,1702.6116529325955,"[61, 0, 193]",193,l,0.8401701567927375,colour,0.5
68,63,0,2,16,43,793,1703.1232562013902,1704.8036299919477,"[51, 0, 203]",203,l,1.1570748963858932,colour,0.5
68,63,0,2,16,44,794,1705.3106882877182,1706.8756107060472,"[67, 0, 187]",187,l,1.0415735058486462,colour,0.5
68,63,0,2,16,45,795,1707.3888330722693,1708.7236530397786,"[78, 0, 176]",176,a,0.8114501811796799,colour,0.5
68,63,0,2,16,46,796,1709.232523810817,1710.5875933264615,"[76, 0, 178]",178,a,0.8318021290469915,colour,0.5
68,63,0,2,16,47,797,1711.1074929432943,1712.6436634844868,"[35, 0, 219]",219,l,1.0128562870668247,colour,0.5
68,63,0,2,16,48,798,1713.1543360971846,1714.87557880464,"[44, 0, 210]",210,l,1.1986933005973697,colour,0.5
68,63,0,2,16,49,799,1715.3887767523993,1716.9476032356033,"[11, 0, 243]",243,l,1.0355634288862348,colour,0.5
68,63,0,2,16,50,800,1717.4669380784035,1718.8116014176048,"[6, 0, 248]",248,l,0.8214739338727668,colour,0.5
