id,age,condition,counterbalance,block,trialinblock,trial,tstart,tend,trialstim,trialintensity,response,RT,trialtype,colourfreq
166,28,0,2,Practice,1,NA,5.11997495777905e-06,3.4607601617171895,"[47, 0, 207]",207,a,2.9362879642867483,colour,0.5
166,28,0,2,Practice,2,NA,3.9713189697649796,6.3327232662413735,"[80, 0, 174]",174,l,1.8381396301556379,colour,0.5
166,28,0,2,Practice,3,NA,6.847194931993727,8.164713388570817,"[71, 0, 183]",183,l,0.7948075374006294,colour,0.5
166,28,0,2,Practice,4,NA,8.674709784885636,11.452737917308696,"[67, 0, 187]",187,l,2.2547614968498237,colour,0.5
166,28,0,2,Practice,5,NA,11.971848692337517,12.92478254789603,"[65, 0, 189]",189,l,0.4284573258191813,colour,0.5
166,28,0,2,Practice,6,NA,13.443087908352027,14.364749228552682,"[26, 0, 228]",228,a,0.39879522580304183,colour,0.5
166,28,0,2,Practice,7,NA,14.880353594722692,15.804729299939936,"[75, 0, 179]",179,l,0.4009389283019118,colour,0.5
166,28,0,2,Practice,8,NA,16.317982406908413,17.204743084555957,"[36, 0, 218]",218,a,0.36338534066453576,colour,0.5
166,28,0,2,Practice,9,NA,17.72439854827826,18.652741461904952,"[44, 0, 210]",210,a,0.40504910273011774,colour,0.5
166,28,0,2,Practice,10,NA,19.166005202685483,20.204775773745496,"[18, 0, 236]",236,a,0.5153172526042908,colour,0.5
166,28,0,2,1,1,1,6.641381374647608,7.5280376831651665,"[40, 0, 214]",214,a,0.36250982151250355,colour,0.5
166,28,0,2,1,2,2,8.048540702991886,9.151978385751136,"[83, 0, 171]",171,l,0.5802045240998268,colour,0.5
166,28,0,2,1,3,3,9.673675152094802,10.704053657565964,"[92, 0, 162]",162,l,0.5070665776729584,colour,0.5
166,28,0,2,1,4,4,11.222436605603434,12.344083353527822,"[39, 0, 215]",215,a,0.5981355341500603,colour,0.5
166,28,0,2,1,5,5,12.86390856478829,13.856015107943676,"[3, 0, 251]",251,a,0.46867331085377373,colour,0.5
166,28,0,2,1,6,6,14.364078903076006,15.43198972850223,"[49, 0, 205]",205,a,0.5446233160619158,colour,0.5
166,28,0,2,1,7,7,15.944178664212814,16.92800302474643,"[74, 0, 180]",180,l,0.46045571894501336,colour,0.5
166,28,0,2,1,8,8,17.44428795640124,18.34406011662213,"[13, 0, 241]",241,a,0.3771494624961633,colour,0.5
166,28,0,2,1,9,9,18.850604848645162,19.91200579740689,"[33, 0, 221]",221,a,0.5504790148988832,colour,0.5
166,28,0,2,1,10,10,20.4202038939693,21.47999480125145,"[67, 0, 187]",187,l,0.5367625484359451,colour,0.5
166,28,0,2,1,11,11,21.992353484471096,22.976008491328685,"[35, 0, 219]",219,a,0.4602796698745806,colour,0.5
166,28,0,2,1,12,12,23.49243875205866,24.520041826443048,"[57, 0, 197]",197,l,0.5042324635433033,colour,0.5
166,28,0,2,1,13,13,25.03937827507616,26.04001394213992,"[41, 0, 213]",213,a,0.4772244901105296,colour,0.5
166,28,0,2,1,14,14,26.555244548682822,27.599985033884877,"[85, 0, 169]",169,l,0.5211745268607046,colour,0.5
166,28,0,2,1,15,15,28.11806196375983,29.119976841873722,"[52, 0, 202]",202,a,0.4785383595735766,colour,0.5
166,28,0,2,1,16,16,29.635800973977894,30.712010129733244,"[58, 0, 196]",196,l,0.5532379045034759,colour,0.5
166,28,0,2,1,17,17,31.22932299884269,32.12804201547988,"[23, 0, 231]",231,a,0.3753625842509791,colour,0.5
166,28,0,2,1,18,18,32.63443708611885,33.672000126040075,"[82, 0, 172]",172,l,0.5142550505697727,colour,0.5
166,28,0,2,1,19,19,34.18141402446781,35.20798522292171,"[76, 0, 178]",178,l,0.5031781384022906,colour,0.5
166,28,0,2,1,20,20,35.728433892014436,36.672026907559484,"[84, 0, 170]",170,l,0.4187261846382171,colour,0.5
166,28,0,2,1,21,21,37.18321586883394,38.05599068949232,"[10, 0, 244]",244,a,0.3500193968939129,colour,0.5
166,28,0,2,1,22,22,38.57269585458562,39.44799050045549,"[37, 0, 217]",217,a,0.3513139679271262,colour,0.5
166,28,0,2,1,23,23,39.96412340764073,40.76801539151347,"[79, 0, 175]",175,l,0.28058241913095117,colour,0.5
166,28,0,2,1,24,24,41.27820280301967,42.095938859391026,"[47, 0, 207]",207,a,0.2943611132504884,colour,0.5
166,28,0,2,1,25,25,42.606338947603945,43.79197421099525,"[55, 0, 199]",199,a,0.662131926510483,colour,0.5
166,28,0,2,1,26,26,44.309664384345524,45.21599053195678,"[5, 0, 249]",249,a,0.38291851527174003,colour,0.5
166,28,0,2,1,27,27,45.731705174956005,47.35998251326964,"[65, 0, 189]",189,l,1.1049484751420096,colour,0.5
166,28,0,2,1,28,28,47.87240578717319,48.896020779327955,"[86, 0, 168]",168,l,0.4990159763547126,colour,0.5
166,28,0,2,1,29,29,49.4050455581164,50.37597383290995,"[66, 0, 188]",188,a,0.44755215011537075,colour,0.5
166,28,0,2,1,30,30,50.88978817005409,51.70396779917064,"[29, 0, 225]",225,a,0.2907940521254204,colour,0.5
166,28,0,2,1,31,31,52.218013323814375,53.16795631463174,"[72, 0, 182]",182,l,0.4265306323359255,colour,0.5
166,28,0,2,1,32,32,53.68689812984667,54.631935377808986,"[9, 0, 245]",245,a,0.421657184837386,colour,0.5
166,28,0,2,1,33,33,55.140183886600425,56.080206690268824,"[27, 0, 227]",227,a,0.41674238350242376,colour,0.5
166,28,0,2,1,34,34,56.593330221949145,57.463957795494935,"[91, 0, 163]",163,l,0.34725893192808144,colour,0.5
166,28,0,2,1,35,35,57.98408744952758,58.87196979991859,"[45, 0, 209]",209,a,0.3644936226482969,colour,0.5
166,28,0,2,1,36,36,59.390423640201334,60.39996376619092,"[90, 0, 164]",164,l,0.48629554579383694,colour,0.5
166,28,0,2,1,37,37,60.90761599250254,61.74395574751543,"[30, 0, 224]",224,a,0.31295851033064537,colour,0.5
166,28,0,2,1,38,38,62.25148588162847,63.2559599695378,"[48, 0, 206]",206,a,0.4807545297371689,colour,0.5
166,28,0,2,1,39,39,63.76587759668473,64.99207621705136,"[68, 0, 186]",186,a,0.7029469509434421,colour,0.5
166,28,0,2,1,40,40,65.50294655709877,66.39200611249544,"[22, 0, 232]",232,a,0.37878155935322866,colour,0.5
166,28,0,2,1,41,41,66.9134681467549,67.84797710968996,"[12, 0, 242]",242,a,0.4111147213552613,colour,0.5
166,28,0,2,1,42,42,68.36681534344098,69.16803193301894,"[2, 0, 252]",252,a,0.29009812665754,colour,0.5
166,28,0,2,1,43,43,69.67643207244691,72.47207574441563,"[54, 0, 200]",200,a,2.2722943288099486,colour,0.5
166,28,0,2,1,44,44,72.9927315764071,73.87990933671244,"[42, 0, 212]",212,a,0.3638583494175691,colour,0.5
166,28,0,2,1,45,45,74.3990004194493,75.19197578637977,"[94, 0, 160]",160,l,0.26953819615300745,colour,0.5
166,28,0,2,1,46,46,75.71349965440459,76.47995620436268,"[19, 0, 235]",235,a,0.24302016687579453,colour,0.5
166,28,0,2,1,47,47,76.99389854140463,77.7999503754545,"[44, 0, 210]",210,a,0.2830498628609348,colour,0.5
166,28,0,2,1,48,48,78.30662901501637,79.07191702458658,"[50, 0, 204]",204,a,0.24188510337262414,colour,0.5
166,28,0,2,1,49,49,79.58810270711547,80.3520075303386,"[87, 0, 167]",167,l,0.23909037382691167,colour,0.5
166,28,0,2,1,50,50,80.87140935737989,81.71193096673233,"[88, 0, 166]",166,l,0.33396191117935814,colour,0.5
166,28,0,2,2,1,51,86.48377099444042,87.06391683552647,"[93, 0, 161]",161,l,0.05601747098262422,colour,0.5
166,28,0,2,2,2,52,87.56596621198696,88.19190804491518,"[55, 0, 199]",199,a,0.10950605833204463,colour,0.5
166,28,0,2,2,3,53,88.70254365287838,89.51189788366901,"[76, 0, 178]",178,l,0.2860336383455433,colour,0.5
166,28,0,2,2,4,54,90.0233251216705,90.72797545554931,"[36, 0, 218]",218,a,0.18134391991770826,colour,0.5
166,28,0,2,2,5,55,91.24212889390765,91.92801641550614,"[12, 0, 242]",242,a,0.16250273230252787,colour,0.5
166,28,0,2,2,6,56,92.4454285337415,93.10392959613819,"[19, 0, 235]",235,a,0.1351875592081342,colour,0.5
166,28,0,2,2,7,57,93.62243818098796,94.19193482640549,"[38, 0, 216]",216,a,0.04607916693203151,colour,0.5
166,28,0,2,2,8,58,94.70072408544365,95.39987948321505,"[77, 0, 177]",177,l,0.1792683527164627,colour,0.5
166,28,0,2,2,9,59,95.91615653794724,100.19996219081804,"[16, 0, 238]",238,a,3.76141296105925,colour,0.5
166,28,0,2,2,10,60,100.71677842040663,101.39201477711322,"[23, 0, 231]",231,a,0.15525675792014226,colour,0.5
166,28,0,2,2,11,61,101.90522810563562,105.15990335025708,"[60, 0, 194]",194,a,2.7313940367894247,colour,0.5
166,28,0,2,2,12,62,105.67113917920506,106.46388138941256,"[91, 0, 163]",163,l,0.2693944424390793,colour,0.5
166,28,0,2,2,13,63,106.98373889602954,109.84793102974072,"[63, 0, 191]",191,a,2.340989301184891,colour,0.5
166,28,0,2,2,14,64,110.36036139290081,111.13598706611083,"[78, 0, 176]",176,l,0.25230705001740716,colour,0.5
166,28,0,2,2,15,65,111.64754348550923,112.42391785953077,"[22, 0, 232]",232,a,0.25300967087969184,colour,0.5
166,28,0,2,2,16,66,112.94446774700191,113.69589238558547,"[82, 0, 172]",172,l,0.2339333573472686,colour,0.5
166,28,0,2,2,17,67,114.20385771928704,114.92788211410516,"[88, 0, 166]",166,l,0.20096255905809812,colour,0.5
166,28,0,2,2,18,68,115.43843343909248,116.47193986765342,"[75, 0, 179]",179,l,0.5102984760305844,colour,0.5
166,28,0,2,2,19,69,116.99221760767978,123.43990839147591,"[61, 0, 193]",193,a,5.924388702143915,colour,0.5
166,28,0,2,2,20,70,123.94726602116134,124.7358653677802,"[6, 0, 248]",248,a,0.26529214496258646,colour,0.5
166,28,0,2,2,21,71,125.24417098422418,125.92792976944475,"[24, 0, 230]",230,a,0.16032870369963348,colour,0.5
166,28,0,2,2,22,72,126.44821184178,128.9198657773668,"[2, 0, 252]",252,a,1.948332161642611,colour,0.5
166,28,0,2,2,23,73,129.4335540838947,131.42392652414856,"[65, 0, 189]",189,l,1.4672263214888517,colour,0.5
166,28,0,2,2,24,74,131.93371496989857,132.76796301000286,"[58, 0, 196]",196,l,0.31113421672489494,colour,0.5
166,28,0,2,2,25,75,133.2775415359647,134.32784233568236,"[99, 0, 155]",155,l,0.5269203427305911,colour,0.5
166,28,0,2,2,26,76,134.84022386194556,135.66387548172497,"[28, 0, 226]",226,a,0.30040467652725056,colour,0.5
166,28,0,2,2,27,77,136.18400631728582,137.03990090842126,"[10, 0, 244]",244,a,0.33249483568943106,colour,0.5
166,28,0,2,2,28,78,137.559131018701,138.40787927841302,"[89, 0, 165]",165,l,0.32538355654105544,colour,0.5
166,28,0,2,2,29,79,138.9186637600942,139.71191757597262,"[42, 0, 212]",212,a,0.2699225896212738,colour,0.5
166,28,0,2,2,30,80,140.23116659084917,140.98383893285063,"[43, 0, 211]",211,a,0.2292269004683476,colour,0.5
166,28,0,2,2,31,81,141.486907975981,142.28787841193844,"[45, 0, 209]",209,a,0.27594212829717435,colour,0.5
166,28,0,2,2,32,82,142.78691920058918,143.51990949426545,"[56, 0, 198]",198,a,0.2179766961489804,colour,0.5
166,28,0,2,2,33,83,144.02909062983235,144.81587119668256,"[94, 0, 160]",160,l,0.2634580052108504,colour,0.5
166,28,0,2,2,34,84,145.32605151899043,146.11985041739536,"[18, 0, 236]",236,a,0.2705141459591687,colour,0.5
166,28,0,2,2,35,85,146.63134342760895,147.37588836837676,"[86, 0, 168]",168,l,0.22114321612752974,colour,0.5
166,28,0,2,2,36,86,147.89708849519957,148.46389241711586,"[15, 0, 239]",239,a,0.05176433059386909,colour,0.5
166,28,0,2,2,37,87,148.9826341586595,149.75187362279394,"[62, 0, 192]",192,a,0.26127058584825136,colour,0.5
166,28,0,2,2,38,88,150.25812257663347,150.95985530107282,"[30, 0, 224]",224,a,0.1783723536063917,colour,0.5
166,28,0,2,2,39,89,151.47688853967702,152.28787723041023,"[74, 0, 180]",180,l,0.2875869660638273,colour,0.5
166,28,0,2,2,40,90,152.80512393341633,154.59186432801653,"[8, 0, 246]",246,a,1.2733636200719047,colour,0.5
166,28,0,2,2,41,91,155.10390832848498,156.77588994376129,"[39, 0, 215]",215,a,1.148650389019167,colour,0.5
166,28,0,2,2,42,92,157.29033049568534,158.31987010966986,"[44, 0, 210]",210,a,0.5061906646587886,colour,0.5
166,28,0,2,2,43,93,158.8270398749155,159.57595020215376,"[27, 0, 227]",227,a,0.22558579634642228,colour,0.5
166,28,0,2,2,44,94,160.09274949636892,160.82387020421447,"[34, 0, 220]",220,a,0.20874810215900652,colour,0.5
166,28,0,2,2,45,95,161.3386707311729,162.07181186776143,"[3, 0, 251]",251,a,0.20983708568383008,colour,0.5
166,28,0,2,2,46,96,162.59331328660483,163.31183565605897,"[85, 0, 169]",169,l,0.1951663309300784,colour,0.5
166,28,0,2,2,47,97,163.8278716771747,164.70397134378436,"[54, 0, 200]",200,a,0.3527826187782921,colour,0.5
166,28,0,2,2,48,98,165.2185895201692,165.99982040634495,"[40, 0, 214]",214,a,0.25790320453234017,colour,0.5
166,28,0,2,2,49,99,166.51660040213028,167.31182344682747,"[83, 0, 171]",171,l,0.2720694428717252,colour,0.5
166,28,0,2,2,50,100,167.82921035893378,168.5999153231678,"[80, 0, 174]",174,l,0.24766518382239155,colour,0.5
166,28,0,2,3,1,101,173.56720525075798,174.303826014715,"[44, 0, 210]",210,a,0.2102329006884247,colour,0.5
166,28,0,2,3,2,102,174.82028384465957,175.60781823232537,"[16, 0, 238]",238,a,0.2641535368456971,colour,0.5
166,28,0,2,3,3,103,176.1189524490328,176.8877897966595,"[36, 0, 218]",218,a,0.24628278519958258,colour,0.5
166,28,0,2,3,4,104,177.40246862528147,178.36785352090374,"[56, 0, 198]",198,a,0.44193748486577533,colour,0.5
166,28,0,2,3,5,105,178.8869835943624,179.73582834628178,"[73, 0, 181]",181,l,0.32670687831705436,colour,0.5
166,28,0,2,3,6,106,180.24520286012557,181.1278230372409,"[53, 0, 201]",201,a,0.35921372633310966,colour,0.5
166,28,0,2,3,7,107,181.63600616762415,182.44778412528103,"[21, 0, 233]",233,a,0.2860868075513281,colour,0.5
166,28,0,2,3,8,108,182.9664750607044,183.69585181947332,"[29, 0, 225]",225,a,0.20654453508905135,colour,0.5
166,28,0,2,3,9,109,184.2164666914905,184.99990193240228,"[77, 0, 177]",177,l,0.2602001130289864,colour,0.5
166,28,0,2,3,10,110,185.51350713748252,186.22392337338533,"[96, 0, 158]",158,l,0.18474950426025316,colour,0.5
166,28,0,2,3,11,111,186.73462042130996,187.27979866604437,"[50, 0, 204]",204,a,0.02189427995472215,colour,0.5
166,28,0,2,3,12,112,187.7972336273524,188.4318058025383,"[90, 0, 164]",164,l,0.11333266377914697,colour,0.5
166,28,0,2,3,13,113,188.95146874932107,191.09589041635627,"[13, 0, 241]",241,a,1.6210605084779672,colour,0.5
166,28,0,2,3,14,114,191.61224072641926,192.48788353195414,"[22, 0, 232]",232,a,0.3523501761665102,colour,0.5
166,28,0,2,3,15,115,193.00294084634515,193.80780326618697,"[4, 0, 250]",250,a,0.2859710169141181,colour,0.5
166,28,0,2,3,16,116,194.3281353569182,195.11177579150535,"[38, 0, 216]",216,a,0.2604289374430664,colour,0.5
166,28,0,2,3,17,117,195.62953291862505,196.35978440885083,"[39, 0, 215]",215,a,0.20688442399841733,colour,0.5
166,28,0,2,3,18,118,196.8796230108419,197.6877949166519,"[35, 0, 219]",219,a,0.28477372575434856,colour,0.5
166,28,0,2,3,19,119,198.20632358762668,199.16787006240338,"[1, 0, 253]",253,a,0.43794703955063596,colour,0.5
166,28,0,2,3,20,120,199.67232347340905,200.43180343945278,"[48, 0, 206]",206,a,0.2461287914775312,colour,0.5
166,28,0,2,3,21,121,200.94366902779439,201.7597977996047,"[87, 0, 167]",167,l,0.29133559006731957,colour,0.5
166,28,0,2,3,22,122,202.27330533092027,203.07981087526423,"[89, 0, 165]",165,l,0.2832125211425591,colour,0.5
166,28,0,2,3,23,123,203.59422858414473,205.46380655872053,"[59, 0, 195]",195,a,1.3551122164935805,colour,0.5
166,28,0,2,3,24,124,205.97657090309076,206.83976857623202,"[88, 0, 166]",166,l,0.3398877145664301,colour,0.5
166,28,0,2,3,25,125,207.35165346300346,209.23184439941542,"[63, 0, 191]",191,a,1.3568392301676795,colour,0.5
166,28,0,2,3,26,126,209.74388564296532,210.47984553370043,"[28, 0, 226]",226,a,0.21260030759731308,colour,0.5
166,28,0,2,3,27,127,210.9940304797492,211.71182659760234,"[52, 0, 202]",202,a,0.1945629591937177,colour,0.5
166,28,0,2,3,28,128,212.2283777690027,213.04780302985455,"[69, 0, 185]",185,a,0.2961409022391308,colour,0.5
166,28,0,2,3,29,129,213.55663679348072,214.40780405385885,"[7, 0, 247]",247,a,0.3277442680555396,colour,0.5
166,28,0,2,3,30,130,214.91619316561264,215.71988546967623,"[6, 0, 248]",248,a,0.2789617438102141,colour,0.5
166,28,0,2,3,31,131,216.22971408767626,217.05576068357914,"[20, 0, 234]",234,a,0.30266613891581073,colour,0.5
166,28,0,2,3,32,132,217.57354144143756,218.38378852058668,"[31, 0, 223]",223,a,0.2866610346827656,colour,0.5
166,28,0,2,3,33,133,218.90297648939304,219.7277773511305,"[97, 0, 157]",157,l,0.3014869646867737,colour,0.5
166,28,0,2,3,34,134,220.24684165234794,221.03177035643603,"[85, 0, 169]",169,l,0.26202598202507943,colour,0.5
166,28,0,2,3,35,135,221.5433543450199,222.74376118768123,"[32, 0, 222]",222,a,0.6773938437981997,colour,0.5
166,28,0,2,3,36,136,223.26222054183017,224.03980599157512,"[9, 0, 245]",245,a,0.25417427279171534,colour,0.5
166,28,0,2,3,37,137,224.55924602167215,225.68779609818012,"[78, 0, 176]",176,l,0.6052239702257793,colour,0.5
166,28,0,2,3,38,138,226.1999751877156,228.23983001618763,"[61, 0, 193]",193,a,1.5167748758103698,colour,0.5
166,28,0,2,3,39,139,228.74841211235616,230.11177776072873,"[71, 0, 183]",183,l,0.8400875912921038,colour,0.5
166,28,0,2,3,40,140,230.62361381060327,231.70380199010833,"[49, 0, 205]",205,a,0.5569168177898973,colour,0.5
166,28,0,2,3,41,141,232.2174075890216,232.99177807581145,"[23, 0, 231]",231,a,0.2510195682407357,colour,0.5
166,28,0,2,3,42,142,233.49870917052613,234.35174798598746,"[75, 0, 179]",179,l,0.32970561998081394,colour,0.5
166,28,0,2,3,43,143,234.85822930882568,235.64780027294182,"[3, 0, 251]",251,a,0.27558648557169363,colour,0.5
166,28,0,2,3,44,144,236.16159334243275,236.92777301883325,"[10, 0, 244]",244,a,0.2521782624826301,colour,0.5
166,28,0,2,3,45,145,237.42729272390716,238.36775821022457,"[93, 0, 161]",161,l,0.417100783175556,colour,0.5
166,28,0,2,3,46,146,238.87437028985005,239.66375496491673,"[86, 0, 168]",168,l,0.27442660977249034,colour,0.5
166,28,0,2,3,47,147,240.18064956984017,241.03977921008482,"[54, 0, 200]",200,a,0.33581968166981824,colour,0.5
166,28,0,2,3,48,148,241.5556478467479,242.28781145816902,"[17, 0, 237]",237,a,0.20876464367029257,colour,0.5
166,28,0,2,3,49,149,242.8056784682558,243.54398292285623,"[80, 0, 174]",174,l,0.22444679439649917,colour,0.5
166,28,0,2,3,50,150,244.06194603131735,245.07180005239206,"[51, 0, 203]",203,a,0.48653185326838866,colour,0.5
166,28,0,2,4,1,151,249.76589768280974,250.6157451660547,"[46, 0, 208]",208,a,0.3377739443385508,colour,0.5
166,28,0,2,4,2,152,251.12978281377582,251.9437592184695,"[89, 0, 165]",165,l,0.2906211538647767,colour,0.5
166,28,0,2,4,3,153,252.45794613371254,253.22382451809244,"[91, 0, 163]",163,l,0.24247114587342367,colour,0.5
166,28,0,2,4,4,154,253.74292426544707,254.67174964013975,"[74, 0, 180]",180,l,0.4053925362240989,colour,0.5
166,28,0,2,4,5,155,255.18057040683925,256.1837613452226,"[99, 0, 155]",155,l,0.4798695582721848,colour,0.5
166,28,0,2,4,6,156,256.68577803246444,257.4237481120217,"[1, 0, 253]",253,a,0.2187021600548178,colour,0.5
166,28,0,2,4,7,157,257.9318182086863,258.6957624164934,"[41, 0, 213]",213,a,0.25048748261178844,colour,0.5
166,28,0,2,4,8,158,259.2039609068888,260.11974801748875,"[98, 0, 156]",156,l,0.39271464102785103,colour,0.5
166,28,0,2,4,9,159,260.6259359252581,261.43972289012163,"[6, 0, 248]",248,a,0.2907148891245015,colour,0.5
166,28,0,2,4,10,160,261.954165017436,262.7197464421042,"[43, 0, 211]",211,a,0.24221987227792852,colour,0.5
166,28,0,2,4,11,161,263.22957821088494,264.71176318841754,"[82, 0, 172]",172,l,0.9588643851166125,colour,0.5
166,28,0,2,4,12,162,265.2215512403345,268.4957553272543,"[67, 0, 187]",187,l,2.750909488328034,colour,0.5
166,28,0,2,4,13,163,269.00342763972003,273.74372337848763,"[54, 0, 200]",200,a,4.216963724815287,colour,0.5
166,28,0,2,4,14,164,274.2620019574242,275.34375685537816,"[96, 0, 158]",158,l,0.5584441516839433,colour,0.5
166,28,0,2,4,15,165,275.8643736966187,276.51178288072697,"[97, 0, 157]",157,l,0.12406417322927155,colour,0.5
166,28,0,2,4,16,166,277.02072022575885,277.87969035847345,"[48, 0, 206]",206,a,0.3350571962655522,colour,0.5
166,28,0,2,4,17,167,278.38733588939067,279.2477128391911,"[27, 0, 227]",227,a,0.33696616668021306,colour,0.5
166,28,0,2,4,18,168,279.75615078781266,280.48771575363935,"[25, 0, 229]",229,a,0.2081577273493167,colour,0.5
166,28,0,2,4,19,169,281.0062542707892,281.7437588246248,"[10, 0, 244]",244,a,0.21406502000172623,colour,0.5
166,28,0,2,4,20,170,282.25632073223824,283.02373038895894,"[12, 0, 242]",242,a,0.24391459062462673,colour,0.5
166,28,0,2,4,21,171,283.5440447566507,284.28777286128025,"[39, 0, 215]",215,a,0.2254566149204038,colour,0.5
166,28,0,2,4,22,172,284.80688245478086,288.32779428648064,"[64, 0, 190]",190,a,3.0008042330446187,colour,0.5
166,28,0,2,4,23,173,288.8415274914296,289.607741826243,"[76, 0, 178]",178,l,0.2428078840021044,colour,0.5
166,28,0,2,4,24,174,290.11758422886487,290.9117045054154,"[3, 0, 251]",251,a,0.2707673887780402,colour,0.5
166,28,0,2,4,25,175,291.43015401338926,292.16772158257663,"[14, 0, 240]",240,a,0.21410597997601144,colour,0.5
166,28,0,2,4,26,176,292.6805997483316,293.50374251941685,"[15, 0, 239]",239,a,0.29978515714174137,colour,0.5
166,28,0,2,4,27,177,294.00953185523394,294.67971950306674,"[20, 0, 234]",234,a,0.14717346741235815,colour,0.5
166,28,0,2,4,28,178,295.19884603191167,296.0557315389742,"[57, 0, 197]",197,a,0.3336728283611592,colour,0.5
166,28,0,2,4,29,179,296.5727466607059,297.15179485362023,"[23, 0, 231]",231,a,0.06599673500750214,colour,0.5
166,28,0,2,4,30,180,297.67226321500493,298.3678361916682,"[34, 0, 220]",220,a,0.17227877190453,colour,0.5
166,28,0,2,4,31,181,298.8894868780626,299.89573484729044,"[73, 0, 181]",181,l,0.48286121073761024,colour,0.5
166,28,0,2,4,32,182,300.4052834409522,301.4157191722188,"[86, 0, 168]",168,l,0.4871517664869316,colour,0.5
166,28,0,2,4,33,183,301.9387140542094,302.6317309718579,"[22, 0, 232]",232,a,0.16965615295339376,colour,0.5
166,28,0,2,4,34,184,303.1419207464205,304.2957356349798,"[83, 0, 171]",171,l,0.632491881842725,colour,0.5
166,28,0,2,4,35,185,304.81192446826026,305.4797096569091,"[35, 0, 219]",219,a,0.1411980394332204,colour,0.5
166,28,0,2,4,36,186,305.98716653572046,306.66374866338447,"[19, 0, 235]",235,a,0.153239873732673,colour,0.5
166,28,0,2,4,37,187,307.1747005295474,308.5356767156627,"[61, 0, 193]",193,l,0.8375650091620628,colour,0.5
166,28,0,2,4,38,188,309.035601294192,309.8157014491735,"[63, 0, 191]",191,l,0.25740853426395915,colour,0.5
166,28,0,2,4,39,189,310.3325503679516,311.05571420976776,"[52, 0, 202]",202,l,0.19985073246061802,colour,0.5
166,28,0,2,4,40,190,311.5694497777731,315.54375291694305,"[50, 0, 204]",204,a,3.4512539064744487,colour,0.5
166,28,0,2,4,41,191,316.0556590713677,316.7997211572074,"[17, 0, 237]",237,a,0.220968348585302,colour,0.5
166,28,0,2,4,42,192,317.3213407297735,317.96769755796413,"[21, 0, 233]",233,a,0.12303584191249683,colour,0.5
166,28,0,2,4,43,193,318.4697433898109,319.071794932388,"[84, 0, 170]",170,l,0.07863170103519224,colour,0.5
166,28,0,2,4,44,194,319.5791509866831,320.3596973689273,"[93, 0, 161]",161,l,0.26460764100193046,colour,0.5
166,28,0,2,4,45,195,320.86877098461264,321.54371747080586,"[26, 0, 228]",228,a,0.1515912353352178,colour,0.5
166,28,0,2,4,46,196,322.05641801215825,322.7837211729493,"[5, 0, 249]",249,a,0.20444533714908175,colour,0.5
166,28,0,2,4,47,197,323.2909571042983,323.9756839624024,"[59, 0, 195]",195,a,0.16145234563737176,colour,0.5
166,28,0,2,4,48,198,324.4941563134489,327.43168095342116,"[68, 0, 186]",186,a,2.414240675192559,colour,0.5
166,28,0,2,4,49,199,327.94816477718996,328.6876944859687,"[16, 0, 238]",238,a,0.21623786707641557,colour,0.5
166,28,0,2,4,50,200,329.19823635867215,330.2077272539318,"[51, 0, 203]",203,a,0.48460358439479023,colour,0.5
166,28,0,2,5,1,201,334.8402396157617,335.52773599731154,"[27, 0, 227]",227,a,0.1622616986860521,colour,0.5
166,28,0,2,5,2,202,336.04562781969435,339.25565473907045,"[88, 0, 166]",166,l,2.6868894652288873,colour,0.5
166,28,0,2,5,3,203,339.7659051658993,340.5756780547381,"[87, 0, 167]",167,l,0.28646529334946536,colour,0.5
166,28,0,2,5,4,204,341.09417206729995,341.8636695003952,"[45, 0, 209]",209,a,0.24703030445380136,colour,0.5
166,28,0,2,5,5,205,342.3755984978925,343.13567238335963,"[93, 0, 161]",161,l,0.23681552067864686,colour,0.5
166,28,0,2,5,6,206,343.6556645852106,344.4797573122487,"[44, 0, 210]",210,a,0.2984602599753998,colour,0.5
166,28,0,2,5,7,207,344.9861417490465,347.5516822137288,"[71, 0, 183]",183,l,2.042191515356535,colour,0.5
166,28,0,2,5,8,208,348.06456274259835,348.8556641913601,"[61, 0, 193]",193,l,0.26775919483043253,colour,0.5
166,28,0,2,5,9,209,349.377203025535,350.13562354646274,"[6, 0, 248]",248,a,0.23493884559138678,colour,0.5
166,28,0,2,5,10,210,350.643034739187,351.43169316265266,"[69, 0, 185]",185,l,0.26531695722951554,colour,0.5
166,28,0,2,5,11,211,351.94002437905874,353.4077489154588,"[59, 0, 195]",195,l,0.9444098516541999,colour,0.5
166,28,0,2,5,12,212,353.92446707744966,354.7196739744977,"[75, 0, 179]",179,l,0.2717988708463963,colour,0.5
166,28,0,2,5,13,213,355.2370955450169,356.2076725093939,"[53, 0, 201]",201,l,0.44719729508506134,colour,0.5
166,28,0,2,5,14,214,356.72168731404236,357.47168229249655,"[35, 0, 219]",219,a,0.22667556756641716,colour,0.5
166,28,0,2,5,15,215,357.98732092327555,358.727620600519,"[29, 0, 225]",225,a,0.21692355256527662,colour,0.5
166,28,0,2,5,16,216,359.2374153478013,360.15167039836524,"[60, 0, 194]",194,a,0.3909202796930913,colour,0.5
166,28,0,2,5,17,217,360.6609322723234,361.5116497608542,"[28, 0, 226]",226,a,0.32740004686638713,colour,0.5
166,28,0,2,5,18,218,362.02038348763017,362.8156380399887,"[86, 0, 168]",168,l,0.27193947377963923,colour,0.5
166,28,0,2,5,19,219,363.33300644136034,364.3036381502752,"[76, 0, 178]",178,l,0.44757105471217074,colour,0.5
166,28,0,2,5,20,220,364.81603897499735,365.56762430266826,"[10, 0, 244]",244,a,0.22589417759445496,colour,0.5
166,28,0,2,5,21,221,366.0841266371717,366.8316982826509,"[12, 0, 242]",242,a,0.2241982777195517,colour,0.5
166,28,0,2,5,22,222,367.34983389556874,368.14363594472525,"[74, 0, 180]",180,l,0.2706204842834268,colour,0.5
166,28,0,2,5,23,223,368.6624466092908,369.4236677674635,"[80, 0, 174]",174,l,0.23784621502272785,colour,0.5
166,28,0,2,5,24,224,369.94380411689053,370.70364445180167,"[99, 0, 155]",155,l,0.23649571789428592,colour,0.5
166,28,0,2,5,25,225,371.22515020295396,371.92769503736054,"[13, 0, 241]",241,a,0.17923054352286272,colour,0.5
166,28,0,2,5,26,226,372.44534661382204,373.5435953786364,"[56, 0, 198]",198,a,0.5749293539265636,colour,0.5
166,28,0,2,5,27,227,374.0549115520844,374.7996297850041,"[33, 0, 221]",221,a,0.22198289528023452,colour,0.5
166,28,0,2,5,28,228,375.32053216442,375.9996321480721,"[34, 0, 220]",220,a,0.15657929200096987,colour,0.5
166,28,0,2,5,29,229,376.50816383198253,377.2717098616995,"[48, 0, 206]",206,a,0.2402742741687689,colour,0.5
166,28,0,2,5,30,230,377.789510311879,378.61560259386897,"[32, 0, 222]",222,a,0.30273506190860644,colour,0.5
166,28,0,2,5,31,231,379.13334711795324,380.31962434991146,"[9, 0, 245]",245,a,0.6630263502302114,colour,0.5
166,28,0,2,5,32,232,380.8378911134787,382.08765195062733,"[91, 0, 163]",163,l,0.7262452910654247,colour,0.5
166,28,0,2,5,33,233,382.60365882716724,383.46362105736625,"[77, 0, 177]",177,l,0.33735213553882204,colour,0.5
166,28,0,2,5,34,234,383.96560702464194,384.49569231193163,"[5, 0, 249]",249,a,0.008553542342269793,colour,0.5
166,28,0,2,5,35,235,385.01080634014215,386.47173664323054,"[64, 0, 190]",190,a,0.937523064611014,colour,0.5
166,28,0,2,5,36,236,386.98377237291425,387.71962553146295,"[39, 0, 215]",215,a,0.21265938447322696,colour,0.5
166,28,0,2,5,37,237,388.233827019023,388.943642246275,"[98, 0, 156]",156,l,0.18654583478928544,colour,0.5
166,28,0,2,5,38,238,389.45263709279243,390.2316427503829,"[18, 0, 236]",236,a,0.25558069604448974,colour,0.5
166,28,0,2,5,39,239,390.7496570587973,391.48769133520545,"[30, 0, 224]",224,a,0.21461325330892578,colour,0.5
166,28,0,2,5,40,240,391.9997050095408,392.7996156065492,"[78, 0, 176]",176,l,0.2767258813837543,colour,0.5
166,28,0,2,5,41,241,393.3146772532491,394.0476336761785,"[49, 0, 205]",205,a,0.20963346742792055,colour,0.5
166,28,0,2,5,42,242,394.56740847518086,395.28762280603405,"[15, 0, 239]",239,a,0.19680669851368293,colour,0.5
166,28,0,2,5,43,243,395.8018817950797,396.51966491603525,"[43, 0, 211]",211,a,0.19442590087419376,colour,0.5
166,28,0,2,5,44,244,397.0377595689788,397.79160635903827,"[0, 0, 254]",254,a,0.23048366227885708,colour,0.5
166,28,0,2,5,45,245,398.30357631648076,399.0556571021443,"[94, 0, 160]",160,l,0.22886810696218163,colour,0.5
166,28,0,2,5,46,246,399.5692627010576,400.42362168751424,"[70, 0, 184]",184,a,0.331249495386146,colour,0.5
166,28,0,2,5,47,247,400.9442487687629,403.5755626579048,"[19, 0, 235]",235,a,2.1079137398919556,colour,0.5
166,28,0,2,5,48,248,404.0878815627075,404.8476159531274,"[82, 0, 172]",172,l,0.23693131131585687,colour,0.5
166,28,0,2,5,49,249,405.36925915643224,406.0716078556725,"[3, 0, 251]",251,a,0.1793518480262719,colour,0.5
166,28,0,2,5,50,250,406.5880940424977,407.58361089613754,"[51, 0, 203]",203,a,0.47044246600125916,colour,0.5
166,28,0,2,6,1,251,412.26187907755957,417.27163266795105,"[51, 0, 203]",203,a,4.494623414531816,colour,0.5
166,28,0,2,6,2,252,417.7866289362428,418.71163558241096,"[75, 0, 179]",179,l,0.41434898279840127,colour,0.5
166,28,0,2,6,3,253,419.2325714387116,419.77565836242866,"[32, 0, 222]",222,a,0.019704891368746758,colour,0.5
166,28,0,2,6,4,254,420.287876048882,421.0236500444298,"[3, 0, 251]",251,a,0.21075750325690024,colour,0.5
166,28,0,2,6,5,255,421.5397345085803,422.9036176702939,"[78, 0, 176]",176,l,0.8403703725489322,colour,0.5
166,28,0,2,6,6,256,423.40289200947154,424.1595796090551,"[48, 0, 206]",206,a,0.2333406194811687,colour,0.5
166,28,0,2,6,7,257,424.6684685110522,425.3675494719646,"[99, 0, 155]",155,l,0.17818251994322054,colour,0.5
166,28,0,2,6,8,258,425.88499349172343,426.52755837287987,"[47, 0, 207]",207,a,0.11926083028083667,colour,0.5
166,28,0,2,6,9,259,427.04204697400564,427.7916020267294,"[7, 0, 247]",247,a,0.22699379496043548,colour,0.5
166,28,0,2,6,10,260,428.3102957191004,429.0636293281277,"[56, 0, 198]",198,a,0.23000395816052333,colour,0.5
166,28,0,2,6,11,261,429.57611994969193,430.30360309800017,"[22, 0, 232]",232,a,0.20416531281080097,colour,0.5
166,28,0,2,6,12,262,430.81246246158844,431.54356899095,"[23, 0, 231]",231,a,0.20771858931402676,colour,0.5
166,28,0,2,6,13,263,432.0625029292423,432.7756118886464,"[52, 0, 202]",202,a,0.1897785208420828,colour,0.5
166,28,0,2,6,14,264,433.28142327984096,433.98359120386885,"[40, 0, 214]",214,a,0.17938335568760522,colour,0.5
166,28,0,2,6,15,265,434.5021285394614,435.1915445252671,"[43, 0, 211]",211,a,0.16604104268481024,colour,0.5
166,28,0,2,6,16,266,435.70533247475396,436.4156069261953,"[82, 0, 172]",172,l,0.19335385272279382,colour,0.5
166,28,0,2,6,17,267,436.93342785633286,437.6475367901148,"[29, 0, 225]",225,a,0.18609921366441995,colour,0.5
166,28,0,2,6,18,268,438.1443035133125,438.8396161579294,"[84, 0, 170]",170,l,0.17536927963374183,colour,0.5
166,28,0,2,6,19,269,439.3598041011137,440.00757010947564,"[57, 0, 197]",197,a,0.12441508981282823,colour,0.5
166,28,0,2,6,20,270,440.5179552315676,443.8236382290488,"[13, 0, 241]",241,a,2.782365161983762,colour,0.5
166,28,0,2,6,21,271,444.3321722760156,445.8715798926132,"[81, 0, 173]",173,l,1.0161650056252256,colour,0.5
166,28,0,2,6,22,272,446.379262838891,447.10359088878613,"[46, 0, 208]",208,a,0.20109528506873176,colour,0.5
166,28,0,2,6,23,273,447.61551988628344,452.57556187023874,"[70, 0, 184]",184,a,4.4367599884280935,colour,0.5
166,28,0,2,6,24,274,453.08791464575916,453.8156470984395,"[68, 0, 186]",186,l,0.20467219231068157,colour,0.5
166,28,0,2,6,25,275,454.3223757564556,455.143599710922,"[66, 0, 188]",188,l,0.29787027899874374,colour,0.5
166,28,0,2,6,26,276,455.66403774620267,456.4076024048263,"[1, 0, 253]",253,a,0.23257774021476507,colour,0.5
166,28,0,2,6,27,277,456.9174503212853,457.66356158666895,"[92, 0, 162]",162,l,0.22289464823552407,colour,0.5
166,28,0,2,6,28,278,458.18307565976284,458.8235669429705,"[24, 0, 230]",230,a,0.11740227209520526,colour,0.5
166,28,0,2,6,29,279,459.3372209848894,460.07952770017437,"[87, 0, 167]",167,l,0.21979271896998398,colour,0.5
166,28,0,2,6,30,280,460.5848924702732,461.3355412327219,"[28, 0, 226]",226,a,0.22734904385288246,colour,0.5
166,28,0,2,6,31,281,461.8506662885775,462.64756239010603,"[60, 0, 194]",194,a,0.2737373796990141,colour,0.5
166,28,0,2,6,32,282,463.1632132300874,463.8395551118301,"[18, 0, 236]",236,a,0.14786466670921072,colour,0.5
166,28,0,2,6,33,283,464.3518373889674,465.1115493301768,"[77, 0, 177]",177,l,0.23670524384942837,colour,0.5
166,28,0,2,6,34,284,465.6331330627727,466.35960245208116,"[45, 0, 209]",209,a,0.20337013821699657,colour,0.5
166,28,0,2,6,35,285,466.8680723022262,467.5755559625395,"[35, 0, 219]",219,a,0.18455730751156807,colour,0.5
166,28,0,2,6,36,286,468.086466081033,468.78355024391203,"[54, 0, 200]",200,a,0.18486962720635347,colour,0.5
166,28,0,2,6,37,287,469.29409487350495,471.3035597749695,"[69, 0, 185]",185,a,1.4866326777846552,colour,0.5
166,28,0,2,6,38,288,471.82355867218575,472.5597123350599,"[30, 0, 224]",224,a,0.21355735280667432,colour,0.5
166,28,0,2,6,39,289,473.06049155892106,473.68757160610403,"[5, 0, 249]",249,a,0.10368383637978695,colour,0.5
166,28,0,2,6,40,290,474.19775350377313,474.95953195370384,"[79, 0, 175]",175,l,0.23839326680172235,colour,0.5
166,28,0,2,6,41,291,475.47907398984535,476.2395818933437,"[74, 0, 180]",180,l,0.2371061788580846,colour,0.5
166,28,0,2,6,42,292,476.7605535896146,477.4235732444795,"[76, 0, 178]",178,l,0.13381185592152178,colour,0.5
166,28,0,2,6,43,293,477.93868097115774,478.6075575064169,"[42, 0, 212]",212,a,0.14792925742221996,colour,0.5
166,28,0,2,6,44,294,479.1239168749307,479.7835490623547,"[14, 0, 240]",240,a,0.13625094277085736,colour,0.5
166,28,0,2,6,45,295,480.2958435487235,480.9756118886289,"[21, 0, 233]",233,a,0.15659031964605674,colour,0.5
166,28,0,2,6,46,296,481.48338778252946,482.0795233678655,"[4, 0, 250]",250,a,0.07296780508477241,colour,0.5
166,28,0,2,6,47,297,482.5946929283091,483.26359821431106,"[98, 0, 156]",156,l,0.14555909359478392,colour,0.5
166,28,0,2,6,48,298,483.7813502214558,484.50350030424306,"[55, 0, 199]",199,a,0.19921467153471895,colour,0.5
166,28,0,2,6,49,299,485.0155340647034,485.70352747960715,"[15, 0, 239]",239,a,0.16457121024723165,colour,0.5
166,28,0,2,6,50,300,486.2212227729615,486.8875007138704,"[62, 0, 192]",192,a,0.14291205620975234,colour,0.5
166,28,0,2,7,1,301,491.4862553735438,493.439580317965,"[7, 0, 247]",247,a,1.429499835561728,colour,0.5
166,28,0,2,7,2,302,493.95593102186103,494.6956005458778,"[48, 0, 206]",206,a,0.21625362092163414,colour,0.5
166,28,0,2,7,3,303,495.20605301560136,495.9516046261124,"[65, 0, 189]",189,a,0.231837704021018,colour,0.5
166,28,0,2,7,4,304,496.46211617271183,497.12754892057274,"[63, 0, 191]",191,a,0.142068438581191,colour,0.5
166,28,0,2,7,5,305,497.6341318556224,498.28755506456946,"[54, 0, 200]",200,a,0.13007386575918645,colour,0.5
166,28,0,2,7,6,306,498.80608255401603,499.39952817279845,"[3, 0, 251]",251,a,0.07010966635425575,colour,0.5
166,28,0,2,7,7,307,499.91559412618517,500.5675057550834,"[45, 0, 209]",209,a,0.12748511755489744,colour,0.5
166,28,0,2,7,8,308,501.08878425721196,501.759480753768,"[26, 0, 228]",228,a,0.147683497692924,colour,0.5
166,28,0,2,7,9,309,502.2764005647914,503.2715609880106,"[70, 0, 184]",184,a,0.4722750303626526,colour,0.5
166,28,0,2,7,10,310,503.7918032819289,504.54356899095,"[57, 0, 197]",197,a,0.2270241210644599,colour,0.5
166,28,0,2,7,11,311,505.0590808033885,505.7514915923821,"[11, 0, 243]",243,a,0.16911934115341865,colour,0.5
166,28,0,2,7,12,312,506.2623064001964,507.15151364775375,"[75, 0, 179]",179,l,0.3659406119841151,colour,0.5
166,28,0,2,7,13,313,507.65895556041505,508.35947642143583,"[78, 0, 176]",176,l,0.17707738871104084,colour,0.5
166,28,0,2,7,14,314,508.8706098504772,509.6555389483983,"[90, 0, 164]",164,l,0.25918477863888256,colour,0.5
166,28,0,2,7,15,315,510.1698932481231,510.8875133169349,"[0, 0, 254]",254,a,0.19454011615016498,colour,0.5
166,28,0,2,7,16,316,511.4043539649574,513.3595425875392,"[73, 0, 181]",181,l,1.4317809902422596,colour,0.5
166,28,0,2,7,17,317,513.8748736247653,514.58350849626,"[38, 0, 216]",216,a,0.1856143895711284,colour,0.5
166,28,0,2,7,18,318,515.0935427017685,515.7594669691462,"[56, 0, 198]",198,a,0.14308495449949987,colour,0.5
166,28,0,2,7,19,319,516.2654847355443,516.9595591290563,"[41, 0, 213]",213,a,0.17082666256465018,colour,0.5
166,28,0,2,7,20,320,517.4686670093215,518.1995734650409,"[81, 0, 173]",173,l,0.2076697524462361,colour,0.5
166,28,0,2,7,21,321,518.7189516613435,519.4635218082403,"[88, 0, 166]",166,l,0.22119244682835415,colour,0.5
166,28,0,2,7,22,322,519.9847585626994,520.6874542400474,"[14, 0, 240]",240,a,0.1794321925553959,colour,0.5
166,28,0,2,7,23,323,521.2057237605331,521.8794914663595,"[83, 0, 171]",171,l,0.1504829533805605,colour,0.5
166,28,0,2,7,24,324,522.3931833175011,523.1035396888328,"[99, 0, 155]",155,l,0.18701766201411374,colour,0.5
166,28,0,2,7,25,325,523.6120130835625,526.0635218082462,"[68, 0, 186]",186,l,1.9284086858970113,colour,0.5
166,28,0,2,7,26,326,526.5811213970592,527.3754657718528,"[24, 0, 230]",230,a,0.271071043855045,colour,0.5
166,28,0,2,7,27,327,527.8936955139216,528.655457816174,"[49, 0, 205]",205,a,0.23837514990009367,colour,0.5
166,28,0,2,7,28,328,529.1749592862034,529.9115016748547,"[18, 0, 236]",236,a,0.21318753165542148,colour,0.5
166,28,0,2,7,29,329,530.4264384724374,535.1195640915248,"[64, 0, 190]",190,l,4.169685297558317,colour,0.5
166,28,0,2,7,30,330,535.6299318843812,536.3355089373654,"[9, 0, 245]",245,a,0.18222534673986956,colour,0.5
166,28,0,2,7,31,331,536.8487927642709,537.4795552693831,"[16, 0, 238]",238,a,0.10750492801889777,colour,0.5
166,28,0,2,7,32,332,537.9894551734615,538.5755291810201,"[5, 0, 249]",249,a,0.0626793721166905,colour,0.5
166,28,0,2,7,33,333,539.0833684840763,539.759485873743,"[25, 0, 229]",229,a,0.15291967711527832,colour,0.5
166,28,0,2,7,34,334,540.2709682501445,540.9434752556554,"[91, 0, 163]",163,l,0.1492250099836383,colour,0.5
166,28,0,2,7,35,335,541.4585164223972,542.0954721521703,"[87, 0, 167]",167,l,0.11352170977625065,colour,0.5
166,28,0,2,7,36,336,542.6148377454083,543.2555424930179,"[35, 0, 219]",219,a,0.11730144757893868,colour,0.5
166,28,0,2,7,37,337,543.7724867224752,544.4634729713725,"[29, 0, 225]",225,a,0.1675711334683001,colour,0.5
166,28,0,2,7,38,338,544.975830866897,545.5434732864378,"[98, 0, 156]",156,l,0.04443801162415184,colour,0.5
166,28,0,2,7,39,339,546.0539403284492,546.7194683869893,"[76, 0, 178]",178,l,0.14220273998216726,colour,0.5
166,28,0,2,7,40,340,547.225896934513,547.823535041447,"[17, 0, 237]",237,a,0.07428206838085316,colour,0.5
166,28,0,2,7,41,341,548.336711348471,549.1834383917158,"[60, 0, 194]",194,a,0.323373761610128,colour,0.5
166,28,0,2,7,42,342,549.696138933039,550.2874806277105,"[37, 0, 217]",217,a,0.06819833282497711,colour,0.5
166,28,0,2,7,43,343,550.8056638959679,551.4955958197243,"[1, 0, 253]",253,a,0.16657746059354395,colour,0.5
166,28,0,2,7,44,344,552.0088048159669,552.7195195869426,"[66, 0, 188]",188,a,0.18757928608101793,colour,0.5
166,28,0,2,7,45,345,553.22768263123,553.8314170767844,"[15, 0, 239]",239,a,0.08033862861339003,colour,0.5
166,28,0,2,7,46,346,554.3528255480051,554.9914322792029,"[28, 0, 226]",226,a,0.11584027978824452,colour,0.5
166,28,0,2,7,47,347,555.5107450971263,556.2314986028359,"[85, 0, 169]",169,l,0.19764440847211517,colour,0.5
166,28,0,2,7,48,348,556.7448911312094,557.7834478440054,"[62, 0, 192]",192,a,0.5165259652712848,colour,0.5
166,28,0,2,7,49,349,558.2908192582836,558.9434843141062,"[89, 0, 165]",165,l,0.1292916880629491,colour,0.5
166,28,0,2,7,50,350,559.4628648734943,560.1754764056823,"[23, 0, 231]",231,a,0.18694952668738551,colour,0.5
166,28,0,2,8,1,351,564.8132521223451,565.9274414006795,"[47, 0, 207]",207,a,0.5899707175558433,colour,0.5
166,28,0,2,8,2,352,566.4392006506387,567.4314300736878,"[27, 0, 227]",227,a,0.4689891751622781,colour,0.5
166,28,0,2,8,3,353,567.9392177829286,568.9274532160489,"[86, 0, 168]",168,l,0.4698410635464825,colour,0.5
166,28,0,2,8,4,354,569.4396504225151,570.3514384232112,"[99, 0, 155]",155,l,0.38833468226948753,colour,0.5
166,28,0,2,8,5,355,570.8616352870304,571.6794599586865,"[36, 0, 218]",218,a,0.29447257157880813,colour,0.5
166,28,0,2,8,6,356,572.1774235791527,573.0074645588174,"[3, 0, 251]",251,a,0.30666012881556526,colour,0.5
166,28,0,2,8,7,357,573.5138879863371,574.3834226378822,"[64, 0, 190]",190,a,0.34632866823812947,colour,0.5
166,28,0,2,8,8,358,574.9050745057757,575.6474095779413,"[38, 0, 216]",216,a,0.2381581408844795,colour,0.5
166,28,0,2,8,9,359,576.1635606020573,576.9754712856957,"[61, 0, 193]",193,a,0.2886688603903167,colour,0.5
166,28,0,2,8,10,360,577.4869989543513,578.2954563983367,"[63, 0, 191]",191,a,0.28492693178122863,colour,0.5
166,28,0,2,8,11,361,578.8109055892855,579.5755260302685,"[29, 0, 225]",225,a,0.25354727034573443,colour,0.5
166,28,0,2,8,12,362,580.0833149210666,580.8314966336184,"[37, 0, 217]",217,a,0.2250285045884084,colour,0.5
166,28,0,2,8,13,363,581.3490568378766,582.1034498919907,"[82, 0, 172]",172,l,0.23124851076863706,colour,0.5
166,28,0,2,8,14,364,582.6147885146784,583.3594386122713,"[10, 0, 244]",244,a,0.22128224367043003,colour,0.5
166,28,0,2,8,15,365,583.8742021177313,584.5754299318942,"[7, 0, 247]",247,a,0.18703892969642766,colour,0.5
166,28,0,2,8,16,366,585.0839088404609,585.8874262770114,"[98, 0, 156]",156,l,0.2804004623903893,colour,0.5
166,28,0,2,8,17,367,586.3964931973023,587.0954520660162,"[42, 0, 212]",212,a,0.17555635634926148,colour,0.5
166,28,0,2,8,18,368,587.6153485633549,588.6874613292748,"[65, 0, 189]",189,a,0.5488571580499411,colour,0.5
166,28,0,2,8,19,369,589.2028648341075,590.3034069628047,"[77, 0, 177]",177,l,0.5771742747747339,colour,0.5
166,28,0,2,8,20,370,590.8197513651685,591.5593826861586,"[49, 0, 205]",205,a,0.21630994087900035,colour,0.5
166,28,0,2,8,21,371,592.0698115251143,592.8874373046856,"[50, 0, 204]",204,a,0.29426698409952223,colour,0.5
166,28,0,2,8,22,372,593.3856293557037,594.1435122771654,"[41, 0, 213]",213,a,0.22933048187405802,colour,0.5
166,28,0,2,8,23,373,594.664233881369,595.4715306618891,"[92, 0, 162]",162,l,0.28399233575328253,colour,0.5
166,28,0,2,8,24,374,595.9924767581979,596.839410176588,"[89, 0, 165]",165,l,0.3236730843782425,colour,0.5
166,28,0,2,8,25,375,597.3519618442224,598.0794091525895,"[28, 0, 226]",226,a,0.20409638981800526,colour,0.5
166,28,0,2,8,26,376,598.5864379210689,599.3674041428894,"[88, 0, 166]",166,l,0.2576137279102113,colour,0.5
166,28,0,2,8,27,377,599.883384631743,602.3834454809257,"[71, 0, 183]",183,l,1.9769486011646222,colour,0.5
166,28,0,2,8,28,378,602.9006941531843,603.5194455439341,"[43, 0, 211]",211,a,0.09669307401054539,colour,0.5
166,28,0,2,8,29,379,604.0403006618726,604.9354132328299,"[78, 0, 176]",176,l,0.371677369432291,colour,0.5
166,28,0,2,8,30,380,605.4465632033825,606.1913684761967,"[26, 0, 228]",228,a,0.22130351132364012,colour,0.5
166,28,0,2,8,31,381,606.7124709292839,608.1273748407548,"[97, 0, 157]",157,l,0.891628611338092,colour,0.5
166,28,0,2,8,32,382,608.6344496891834,609.3754255996027,"[9, 0, 245]",245,a,0.21693339871126227,colour,0.5
166,28,0,2,8,33,383,609.888110780943,610.6074062696425,"[34, 0, 220]",220,a,0.19581381336320192,colour,0.5
166,28,0,2,8,34,384,611.1200623064069,611.8234944753349,"[15, 0, 239]",239,a,0.18001902275136672,colour,0.5
166,28,0,2,8,35,385,612.342183835397,613.0234086169512,"[21, 0, 233]",233,a,0.15779194308561273,colour,0.5
166,28,0,2,8,36,386,613.5298493737064,614.8074220234703,"[17, 0, 237]",237,a,0.7542209435196128,colour,0.5
166,28,0,2,8,37,387,615.3271034810168,616.0553755024157,"[75, 0, 179]",179,l,0.2051822225912474,colour,0.5
166,28,0,2,8,38,388,616.5768974012171,617.3114425979729,"[76, 0, 178]",178,l,0.2114739087119233,colour,0.5
166,28,0,2,8,39,389,617.8270552348986,618.4554251269728,"[81, 0, 173]",173,l,0.1050000689283479,colour,0.5
166,28,0,2,8,40,390,618.9677629363723,619.9754689226393,"[67, 0, 187]",187,l,0.48431765238638036,colour,0.5
166,28,0,2,8,41,391,620.4848922733509,621.4713904527889,"[55, 0, 199]",199,a,0.4632634453882929,colour,0.5
166,28,0,2,8,42,392,621.9848979841045,624.191474420717,"[68, 0, 186]",186,a,1.6832920779997949,colour,0.5
166,28,0,2,8,43,393,624.705024093535,625.4313981721643,"[24, 0, 230]",230,a,0.20301843393826857,colour,0.5
166,28,0,2,8,44,394,625.9394190381281,626.711377219588,"[45, 0, 209]",209,a,0.24711695054429583,colour,0.5
166,28,0,2,8,45,395,627.222399190272,627.9274055607093,"[84, 0, 170]",170,l,0.18200164232985117,colour,0.5
166,28,0,2,8,46,396,628.4379497964983,629.1514077032334,"[25, 0, 229]",229,a,0.19026019418379292,colour,0.5
166,28,0,2,8,47,397,629.65903984342,630.3993982036773,"[12, 0, 242]",242,a,0.21699405094841495,colour,0.5
166,28,0,2,8,48,398,630.9091571109893,633.1034526489093,"[62, 0, 192]",192,a,1.6708642748417333,colour,0.5
166,28,0,2,8,49,399,633.6149452652899,634.3273835053551,"[30, 0, 224]",224,a,0.18910149997100234,colour,0.5
166,28,0,2,8,50,400,634.833728557569,635.655382985482,"[79, 0, 175]",175,l,0.29843190309475176,colour,0.5
166,28,0,2,9,1,401,640.2084034871077,640.9594137999811,"[48, 0, 206]",206,a,0.22682956128846854,colour,0.5
166,28,0,2,9,2,402,641.4761465342599,642.095426072221,"[5, 0, 249]",249,a,0.09586875484092161,colour,0.5
166,28,0,2,9,3,403,642.6168999218207,643.319397888612,"[34, 0, 220]",220,a,0.17906749137910083,colour,0.5
166,28,0,2,9,4,404,643.8358005801565,644.4073885465914,"[95, 0, 159]",159,l,0.04810038342839107,colour,0.5
166,28,0,2,9,5,405,644.9140222877322,645.6237036074453,"[36, 0, 218]",218,a,0.18494248867500573,colour,0.5
166,28,0,2,9,6,406,646.1342789570335,647.7754657718469,"[67, 0, 187]",187,l,1.1178012378513813,colour,0.5
166,28,0,2,9,7,407,648.2782319475955,649.4953374569013,"[92, 0, 162]",162,l,0.6937577415083069,colour,0.5
166,28,0,2,9,8,408,650.0099989563168,650.7273586930824,"[42, 0, 212]",212,a,0.19390956909046508,colour,0.5
166,28,0,2,9,9,409,651.2401974742825,652.0873731078173,"[75, 0, 179]",179,l,0.32384677036316134,colour,0.5
166,28,0,2,9,10,410,652.6014655001054,653.4713810005051,"[26, 0, 228]",228,a,0.34655316031421535,colour,0.5
166,28,0,2,9,11,411,653.9704391183623,654.7673809059779,"[1, 0, 253]",253,a,0.27357590294559486,colour,0.5
166,28,0,2,9,12,412,655.2704605829495,656.703332919802,"[71, 0, 183]",183,l,0.9094560399244074,colour,0.5
166,28,0,2,9,13,413,657.2067706025846,658.1833738010027,"[57, 0, 197]",197,l,0.453142396901967,colour,0.5
166,28,0,2,9,14,414,658.685198685358,659.4553715639631,"[17, 0, 237]",237,a,0.25419002666603774,colour,0.5
166,28,0,2,9,15,415,659.9747584248544,660.7273649946146,"[3, 0, 251]",251,a,0.22915640205610543,colour,0.5
166,28,0,2,9,16,416,661.2411694856419,661.9914086484641,"[12, 0, 242]",242,a,0.22750067446031608,colour,0.5
166,28,0,2,9,17,417,662.5062139015936,663.2074007558112,"[28, 0, 226]",226,a,0.17774259424186312,colour,0.5
166,28,0,2,9,18,418,663.7171391831362,664.4313977783313,"[30, 0, 224]",224,a,0.1909431227541063,colour,0.5
166,28,0,2,9,19,419,664.951662127598,665.6555361914798,"[19, 0, 235]",235,a,0.1871783510723617,colour,0.5
166,28,0,2,9,20,420,666.1637925771938,666.9673887828831,"[82, 0, 172]",172,l,0.280167305667419,colour,0.5
166,28,0,2,9,21,421,667.4764726385474,668.631313889171,"[51, 0, 203]",203,l,0.6315277474059258,colour,0.5
166,28,0,2,9,22,422,669.1335156839341,669.8713183790096,"[65, 0, 189]",189,l,0.21472274241386913,colour,0.5
166,28,0,2,9,23,423,670.383561271592,671.1433137789136,"[62, 0, 192]",192,l,0.23650438254117034,colour,0.5
166,28,0,2,9,24,424,671.6493291821971,672.319313211774,"[29, 0, 225]",225,a,0.14745427944581024,colour,0.5
166,28,0,2,9,25,425,672.8368974406039,673.6553420255077,"[70, 0, 184]",184,l,0.2951598324580118,colour,0.5
166,28,0,2,9,26,426,674.1657507783384,674.8633969591174,"[0, 0, 254]",254,a,0.17441932365181856,colour,0.5
166,28,0,2,9,27,427,675.3845171352441,676.0953571491991,"[79, 0, 175]",175,l,0.18750169847044162,colour,0.5
166,28,0,2,9,28,428,676.6034835658211,677.2713447666902,"[8, 0, 246]",246,a,0.14455793765955605,colour,0.5
166,28,0,2,9,29,429,677.7910411903576,678.5353246175509,"[64, 0, 190]",190,l,0.22102624393301085,colour,0.5
166,28,0,2,9,30,430,679.0567106395611,679.8153225695423,"[74, 0, 180]",180,l,0.235022340901196,colour,0.5
166,28,0,2,9,31,431,680.3242847268702,680.975373218098,"[22, 0, 232]",232,a,0.12788250792073086,colour,0.5
166,28,0,2,9,32,432,681.4949121034879,682.3273169454187,"[99, 0, 155]",155,l,0.30899917881470174,colour,0.5
166,28,0,2,9,33,433,682.8388587925292,683.7033904212876,"[59, 0, 195]",195,l,0.34120631020050496,colour,0.5
166,28,0,2,9,34,434,684.2158511105517,685.1273449084838,"[78, 0, 176]",176,l,0.3883075069170445,colour,0.5
166,28,0,2,9,35,435,685.6378312489251,686.3514112478588,"[86, 0, 168]",168,l,0.19014046509983018,colour,0.5
166,28,0,2,9,36,436,686.8724329625256,687.5433188989118,"[20, 0, 234]",234,a,0.1476039408298675,colour,0.5
166,28,0,2,9,37,437,688.0599921624816,688.943363797327,"[60, 0, 194]",194,l,0.3600971223786473,colour,0.5
166,28,0,2,9,38,438,689.4521416348289,690.2873628678499,"[72, 0, 182]",182,l,0.3120585727447178,colour,0.5
166,28,0,2,9,39,439,690.7834872285894,691.5913310608594,"[87, 0, 167]",167,l,0.2847134673502296,colour,0.5
166,28,0,2,9,40,440,692.111729711527,692.8074050880969,"[43, 0, 211]",211,a,0.17233154724817723,colour,0.5
166,28,0,2,9,41,441,693.3149686991237,694.047362316458,"[24, 0, 230]",230,a,0.2125081476988271,colour,0.5
166,28,0,2,9,42,442,694.5616323331778,695.327263382409,"[45, 0, 209]",209,a,0.25349882734008133,colour,0.5
166,28,0,2,9,43,443,695.847494254791,696.5673470352485,"[52, 0, 202]",202,a,0.19658890183200128,colour,0.5
166,28,0,2,9,44,444,697.0818600548082,697.7272858316137,"[7, 0, 247]",247,a,0.12206501213950105,colour,0.5
166,28,0,2,9,45,445,698.2261450573569,698.9273102500592,"[56, 0, 198]",198,a,0.186094093718566,colour,0.5
166,28,0,2,9,46,446,699.4420434293861,700.1193183317664,"[15, 0, 239]",239,a,0.15396494380547665,colour,0.5
166,28,0,2,9,47,447,700.6296290169994,701.3273323054018,"[84, 0, 170]",170,l,0.1862209120299667,colour,0.5
166,28,0,2,9,48,448,701.83671351464,702.623314093973,"[89, 0, 165]",165,l,0.263253205397632,colour,0.5
166,28,0,2,9,49,449,703.1337429329287,703.9032793567749,"[25, 0, 229]",229,a,0.2552317486843094,colour,0.5
166,28,0,2,9,50,450,704.4124809723289,705.127301191591,"[32, 0, 222]",222,a,0.19170048818341456,colour,0.5
166,28,0,2,10,1,451,709.7569676239218,710.4392951736227,"[53, 0, 201]",201,a,0.15815900734742172,colour,0.5
166,28,0,2,10,2,452,710.9453542938281,711.5273185207916,"[11, 0, 243]",243,a,0.05863930223858915,colour,0.5
166,28,0,2,10,3,453,712.0391222753387,712.7113693426654,"[84, 0, 170]",170,l,0.14879453656612895,colour,0.5
166,28,0,2,10,4,454,713.2267917520949,713.9273622376786,"[74, 0, 180]",180,l,0.1775247975019738,colour,0.5
166,28,0,2,10,5,455,714.4463300466887,715.215315086476,"[15, 0, 239]",239,a,0.24635564666823484,colour,0.5
166,28,0,2,10,6,456,715.726979025756,716.4152847603546,"[10, 0, 244]",244,a,0.16337706992635503,colour,0.5
166,28,0,2,10,7,457,716.9324077958008,717.5992560253653,"[33, 0, 221]",221,a,0.144587476097513,colour,0.5
166,28,0,2,10,8,458,718.118808695348,718.8793181742076,"[71, 0, 183]",183,l,0.23711129883304238,colour,0.5
166,28,0,2,10,9,459,719.4001256368065,720.0473201749555,"[3, 0, 251]",251,a,0.12397713330574334,colour,0.5
166,28,0,2,10,10,460,720.5564942213241,721.2633914452745,"[68, 0, 186]",186,l,0.1833785271155648,colour,0.5
166,28,0,2,10,11,461,721.7753803073429,722.4313036491803,"[39, 0, 215]",215,a,0.13245033111888915,colour,0.5
166,28,0,2,10,12,462,722.941493029939,723.6793197496154,"[29, 0, 225]",225,a,0.22363507829140872,colour,0.5
166,28,0,2,10,13,463,724.1980685803865,724.8872624371725,"[48, 0, 206]",206,a,0.16570391069399193,colour,0.5
166,28,0,2,10,14,464,725.4020223980187,726.1193604732689,"[12, 0, 242]",242,a,0.1937429723329842,colour,0.5
166,28,0,2,10,15,465,726.6302386902389,727.3353517928917,"[88, 0, 166]",166,l,0.18169444263912737,colour,0.5
166,28,0,2,10,16,466,727.8492098469578,728.463276442315,"[24, 0, 230]",230,a,0.09094804583583027,colour,0.5
166,28,0,2,10,17,467,728.9806696559535,729.6872821294528,"[59, 0, 195]",195,a,0.18326076725497842,colour,0.5
166,28,0,2,10,18,468,730.1994064744504,730.9912664701405,"[54, 0, 200]",200,a,0.26886629525688477,colour,0.5
166,28,0,2,10,19,469,731.5057889420132,732.1592999785498,"[46, 0, 208]",208,a,0.13016917643835768,colour,0.5
166,28,0,2,10,20,470,732.6777967480302,733.3992635084433,"[77, 0, 177]",177,l,0.19819854947854765,colour,0.5
166,28,0,2,10,21,471,733.9084962377965,734.6153245387832,"[96, 0, 158]",158,l,0.18338010253501125,colour,0.5
166,28,0,2,10,22,472,735.1164255345939,735.775450805726,"[6, 0, 248]",248,a,0.13594216768979095,colour,0.5
166,28,0,2,10,23,473,736.2870529112115,736.999253268441,"[89, 0, 165]",165,l,0.18876239875680767,colour,0.5
166,28,0,2,10,24,474,737.5059059142077,738.1352608145098,"[22, 0, 232]",232,a,0.10594175412552431,colour,0.5
166,28,0,2,10,25,475,738.6384641590703,739.239254607528,"[44, 0, 210]",210,a,0.07743480376666412,colour,0.5
166,28,0,2,10,26,476,739.7478402482811,740.5192478333774,"[66, 0, 188]",188,l,0.25539795160875656,colour,0.5
166,28,0,2,10,27,477,741.0375342892075,741.6472811842395,"[38, 0, 216]",216,a,0.0863597426796332,colour,0.5
166,28,0,2,10,28,478,742.1626071014325,743.0072703928454,"[35, 0, 219]",219,a,0.3213143420871347,colour,0.5
166,28,0,2,10,29,479,743.5141357153188,744.1752680612844,"[50, 0, 204]",204,a,0.14376276306575164,colour,0.5
166,28,0,2,10,30,480,744.6956942811667,745.3513068787288,"[70, 0, 184]",184,l,0.13256297100451775,colour,0.5
166,28,0,2,10,31,481,745.8676938164281,746.6152422250016,"[87, 0, 167]",167,l,0.2242246653768234,colour,0.5
166,28,0,2,10,32,482,747.1334176163364,747.831270959985,"[47, 0, 207]",207,a,0.17483128630556166,colour,0.5
166,28,0,2,10,33,483,748.3522552593204,748.8872931571386,"[55, 0, 199]",199,a,0.00554968070355244,colour,0.5
166,28,0,2,10,34,484,749.4001969228848,750.0313146768603,"[32, 0, 222]",222,a,0.10811735814786516,colour,0.5
166,28,0,2,10,35,485,750.5408518490149,751.207330257399,"[98, 0, 156]",156,l,0.14319523129961453,colour,0.5
166,28,0,2,10,36,486,751.7284350735426,752.4793087219296,"[91, 0, 163]",163,l,0.22640972168301232,colour,0.5
166,28,0,2,10,37,487,752.9953534076631,753.679283515783,"[7, 0, 247]",247,a,0.1729735158442054,colour,0.5
166,28,0,2,10,38,488,754.1879282334412,754.983313148754,"[64, 0, 190]",190,l,0.2718811846280005,colour,0.5
166,28,0,2,10,39,489,755.4953118569392,756.1192738271784,"[2, 0, 252]",252,a,0.10067918701679446,colour,0.5
166,28,0,2,10,40,490,756.6381664116634,757.4392581521242,"[60, 0, 194]",194,l,0.27800627396209165,colour,0.5
166,28,0,2,10,41,491,757.9528176710883,758.5593090369948,"[25, 0, 229]",229,a,0.08357682847417891,colour,0.5
166,28,0,2,10,42,492,759.0778184095398,759.9512867925805,"[56, 0, 198]",198,l,0.3500390891858842,colour,0.5
166,28,0,2,10,43,493,760.4685421602044,761.1913208208571,"[95, 0, 159]",159,l,0.197446304053301,colour,0.5
166,28,0,2,10,44,494,761.7048590721388,762.3752239505702,"[57, 0, 197]",197,a,0.1470545259944629,colour,0.5
166,28,0,2,10,45,495,762.8925502104103,763.7112200751144,"[90, 0, 164]",164,l,0.29530122308642603,colour,0.5
166,28,0,2,10,46,496,764.2194181716477,765.0232975524559,"[9, 0, 245]",245,a,0.2806458282866515,colour,0.5
166,28,0,2,10,47,497,765.5351595961547,766.1592342063086,"[52, 0, 202]",202,a,0.10073747619753703,colour,0.5
166,28,0,2,10,48,498,766.6757526884903,767.3832603734045,"[16, 0, 238]",238,a,0.18461362743983045,colour,0.5
166,28,0,2,10,49,499,767.8945407069114,768.5272929208295,"[41, 0, 213]",213,a,0.10971479659201577,colour,0.5
166,28,0,2,10,50,500,769.0352905498876,769.6873089109722,"[0, 0, 254]",254,a,0.1262515926209744,colour,0.5
166,28,0,2,11,1,501,774.4771732901863,776.0712400037155,"[67, 0, 187]",187,l,1.0698969896475319,colour,0.5
166,28,0,2,11,2,502,776.5875395076582,777.3272972531267,"[51, 0, 203]",203,l,0.21703501092270017,colour,0.5
166,28,0,2,11,3,503,777.8379943010514,778.5512623741524,"[7, 0, 247]",247,a,0.1907595906232018,colour,0.5
166,28,0,2,11,4,504,779.0721541197272,779.8312851384399,"[26, 0, 228]",228,a,0.23557136190356687,colour,0.5
166,28,0,2,11,5,505,780.3377097474877,781.0554605730867,"[77, 0, 177]",177,l,0.19413839344633743,colour,0.5
166,28,0,2,11,6,506,781.5722472642665,782.2233003093861,"[84, 0, 170]",170,l,0.12768164661247283,colour,0.5
166,28,0,2,11,7,507,782.7440786273801,783.3432322528388,"[11, 0, 243]",243,a,0.07492640009149909,colour,0.5
166,28,0,2,11,8,508,783.854424758727,784.6392699675052,"[86, 0, 168]",168,l,0.26130366887082346,colour,0.5
166,28,0,2,11,9,509,785.1510961712338,785.9032474552805,"[78, 0, 176]",176,l,0.2290244637406431,colour,0.5
166,28,0,2,11,10,510,786.4168755034043,787.3912408701726,"[89, 0, 165]",165,l,0.4510443805193063,colour,0.5
166,28,0,2,11,11,511,787.9012790141278,789.7512686756963,"[52, 0, 202]",202,a,1.325008615385741,colour,0.5
166,28,0,2,11,12,512,790.2524511975935,791.0312607199885,"[38, 0, 216]",216,a,0.25558660371461883,colour,0.5
166,28,0,2,11,13,513,791.5494766774646,792.199235545384,"[49, 0, 205]",205,a,0.126279161835555,colour,0.5
166,28,0,2,11,14,514,792.7059007942153,793.3832052350044,"[9, 0, 245]",245,a,0.15398030375945382,colour,0.5
166,28,0,2,11,15,515,793.903827196249,794.4792496450536,"[95, 0, 159]",159,l,0.060756617109291255,colour,0.5
166,28,0,2,11,16,516,794.9894406011736,795.5992516930564,"[16, 0, 238]",238,a,0.08621244435198605,colour,0.5
166,28,0,2,11,17,517,796.1146067548543,796.7432011390047,"[88, 0, 166]",166,l,0.10512294879299589,colour,0.5
166,28,0,2,11,18,518,797.2553680193378,797.7832954257028,"[27, 0, 227]",227,a,0.004584758571581915,colour,0.5
166,28,0,2,11,19,519,798.3025645267044,798.863250448514,"[6, 0, 248]",248,a,0.045035869523417205,colour,0.5
166,28,0,2,11,20,520,799.373307497066,799.8952527800575,"[71, 0, 183]",183,l,0.0020759610342793167,colour,0.5
166,28,0,2,11,21,521,800.4122293049004,804.3193013964046,"[57, 0, 197]",197,l,3.381830319442088,colour,0.5
166,28,0,2,11,22,522,804.8372822279052,806.8952500231389,"[34, 0, 220]",220,a,1.5349421932769474,colour,0.5
166,28,0,2,11,23,523,807.4155517877662,808.1832347734307,"[39, 0, 215]",215,a,0.2443206455791369,colour,0.5
166,28,0,2,11,24,524,808.6869190036668,809.3511863619206,"[47, 0, 207]",207,a,0.14546417677775025,colour,0.5
166,28,0,2,11,25,525,809.869936768082,810.6151914189104,"[5, 0, 249]",249,a,0.22204236598918214,colour,0.5
166,28,0,2,11,26,526,811.135435682052,811.8472173812042,"[59, 0, 195]",195,l,0.1885044297669083,colour,0.5
166,28,0,2,11,27,527,812.3596189936216,813.9832521026547,"[45, 0, 209]",209,a,1.1002081474871375,colour,0.5
166,28,0,2,11,28,528,814.5002160244039,815.2232057864021,"[28, 0, 226]",226,a,0.19990862777922302,colour,0.5
166,28,0,2,11,29,529,815.7346440520487,817.1191895442025,"[92, 0, 162]",162,l,0.8607428325049113,colour,0.5
166,28,0,2,11,30,530,817.6258772422152,818.3912491409283,"[2, 0, 252]",252,a,0.24193039562669583,colour,0.5
166,28,0,2,11,31,531,818.9071374699124,819.6792059281725,"[13, 0, 241]",241,a,0.2486907582206186,colour,0.5
166,28,0,2,11,32,532,820.1886178573768,820.9112874227576,"[31, 0, 223]",223,a,0.1995931573328562,colour,0.5
166,28,0,2,11,33,533,821.4245149297058,822.9192108118732,"[48, 0, 206]",206,a,0.971451695804717,colour,0.5
166,28,0,2,11,34,534,823.4402364650159,824.1032537567953,"[72, 0, 182]",182,l,0.13965377016575076,colour,0.5
166,28,0,2,11,35,535,824.6122375756677,825.2871683080448,"[94, 0, 160]",160,l,0.15159596150624566,colour,0.5
166,28,0,2,11,36,536,825.7997900802293,826.4792161681689,"[93, 0, 161]",161,l,0.15624412923352793,colour,0.5
166,28,0,2,11,37,537,826.9873839385982,828.3431920805597,"[58, 0, 196]",196,a,0.8324056296260096,colour,0.5
166,28,0,2,11,38,538,828.8639550385706,829.5351741684426,"[24, 0, 230]",230,a,0.14788396513904445,colour,0.5
166,28,0,2,11,39,539,830.0515225092822,830.7511891188333,"[85, 0, 169]",169,l,0.17627079258090816,colour,0.5
166,28,0,2,11,40,540,831.2703636968799,831.8872328987345,"[37, 0, 217]",217,a,0.09348086794489063,colour,0.5
166,28,0,2,11,41,541,832.3955290628655,833.0712155852816,"[97, 0, 157]",157,l,0.152420674538007,colour,0.5
166,28,0,2,11,42,542,833.5844875968178,834.2472327412106,"[25, 0, 229]",229,a,0.13938713661627844,colour,0.5
166,28,0,2,11,43,543,834.7563752798887,837.1353092575446,"[56, 0, 198]",198,a,1.8554412746452726,colour,0.5
166,28,0,2,11,44,544,837.6487092689786,838.303174199973,"[82, 0, 172]",172,l,0.1312128677382134,colour,0.5
166,28,0,2,11,45,545,838.8207296780602,839.3992481484311,"[22, 0, 232]",232,a,0.055167945654829964,colour,0.5
166,28,0,2,11,46,546,839.9144630011579,841.5191879688064,"[98, 0, 156]",156,l,1.0813756244897377,colour,0.5
166,28,0,2,11,47,547,842.0395791364135,842.6151614866103,"[32, 0, 222]",222,a,0.0521632963209413,colour,0.5
166,28,0,2,11,48,548,843.1335341946979,845.0952563246829,"[55, 0, 199]",199,l,1.4385279620764777,colour,0.5
166,28,0,2,11,49,549,845.6038206977828,846.3831701827294,"[33, 0, 221]",221,a,0.25561889907112345,colour,0.5
166,28,0,2,11,50,550,846.9009848113637,847.7031371784688,"[63, 0, 191]",191,l,0.2786320948798675,colour,0.5
166,28,0,2,12,1,551,861.293333569658,862.2072030452255,"[61, 0, 193]",193,l,0.38971865628263913,colour,0.5
166,28,0,2,12,2,552,862.7161352702824,863.4472102919826,"[11, 0, 243]",243,a,0.20773591852048412,colour,0.5
166,28,0,2,12,3,553,863.9661706179322,864.8231750664127,"[50, 0, 204]",204,a,0.3336814929789398,colour,0.5
166,28,0,2,12,4,554,865.3412894116773,866.0792008081917,"[14, 0, 240]",240,a,0.21448052729829215,colour,0.5
166,28,0,2,12,5,555,866.5846750673954,867.3591814309766,"[58, 0, 196]",196,l,0.25109400507062674,colour,0.5
166,28,0,2,12,6,556,867.8660053996427,868.6631220547715,"[3, 0, 251]",251,a,0.27395635793800466,colour,0.5
166,28,0,2,12,7,557,869.1703130876995,869.9031411169271,"[59, 0, 195]",195,l,0.2095019229745958,colour,0.5
166,28,0,2,12,8,558,870.4141004661215,871.487117108074,"[46, 0, 208]",208,l,0.5496192495920695,colour,0.5
166,28,0,2,12,9,559,872.0079064537713,872.6871927264729,"[71, 0, 183]",183,l,0.15586485576932319,colour,0.5
166,28,0,2,12,10,560,873.1955731736089,874.0312256677425,"[60, 0, 194]",194,l,0.3204998690634966,colour,0.5
166,28,0,2,12,11,561,874.5467075478809,875.3191596119141,"[77, 0, 177]",177,l,0.254389312613057,colour,0.5
166,28,0,2,12,12,562,875.8382534515695,876.6151264343353,"[44, 0, 210]",210,a,0.25366227331687696,colour,0.5
166,28,0,2,12,13,563,877.1350103286095,877.9751325783436,"[79, 0, 175]",175,l,0.31671658661798574,colour,0.5
166,28,0,2,12,14,564,878.4853719774983,879.4872061172209,"[65, 0, 189]",189,l,0.4787900270312093,colour,0.5
166,28,0,2,12,15,565,880.0007739069406,880.7591589817603,"[9, 0, 245]",245,a,0.23488685794291086,colour,0.5
166,28,0,2,12,16,566,881.2665244883683,881.959149529459,"[96, 0, 158]",158,l,0.16942929779179394,colour,0.5
166,28,0,2,12,17,567,882.4710808900127,883.135107608512,"[18, 0, 236]",236,a,0.14060884615173563,colour,0.5
166,28,0,2,12,18,568,883.6431879451848,884.4871289234434,"[68, 0, 186]",186,l,0.321059130015783,colour,0.5
166,28,0,2,12,19,569,885.0025702374696,885.7751491198724,"[10, 0, 244]",244,a,0.24917321928660385,colour,0.5
166,28,0,2,12,20,570,886.2838879666524,887.0790921067528,"[21, 0, 233]",233,a,0.27194459378370084,colour,0.5
166,28,0,2,12,21,571,887.5978637805674,888.3191458273213,"[15, 0, 239]",239,a,0.19820248792530037,colour,0.5
166,28,0,2,12,22,572,888.8323587620107,889.6151540035498,"[63, 0, 191]",191,l,0.2595226983248722,colour,0.5
166,28,0,2,12,23,573,890.1292991711525,890.9511670634674,"[55, 0, 199]",199,l,0.2983641616010573,colour,0.5
166,28,0,2,12,24,574,891.4589567419607,892.1031407230766,"[6, 0, 248]",248,a,0.12077122877235524,colour,0.5
166,28,0,2,12,25,575,892.6153666802566,893.3831902688835,"[27, 0, 227]",227,a,0.24193906024447642,colour,0.5
166,28,0,2,12,26,576,893.8997611325467,894.9351410854142,"[52, 0, 202]",202,a,0.5120491204434074,colour,0.5
166,28,0,2,12,27,577,895.4468806430814,896.1991571700783,"[54, 0, 200]",200,a,0.22892009461065754,colour,0.5
166,28,0,2,12,28,578,896.7126296491188,897.4631397778576,"[51, 0, 203]",203,a,0.22718599170912057,colour,0.5
166,28,0,2,12,29,579,897.9782727106358,898.6071794144809,"[90, 0, 164]",164,l,0.10560265294043347,colour,0.5
166,28,0,2,12,30,580,899.1190772981499,899.8151382497163,"[33, 0, 221]",221,a,0.17270018687122501,colour,0.5
166,28,0,2,12,31,581,900.3223154980515,901.0311405970424,"[41, 0, 213]",213,a,0.18555098038632423,colour,0.5
166,28,0,2,12,32,582,901.5411369933572,902.3111885674589,"[31, 0, 223]",223,a,0.2451756847440265,colour,0.5
166,28,0,2,12,33,583,902.8238871395588,903.5671166354732,"[80, 0, 174]",174,l,0.2207670934149064,colour,0.5
166,28,0,2,12,34,584,904.0885018697882,904.8391388168675,"[92, 0, 162]",162,l,0.22745735142962076,colour,0.5
166,28,0,2,12,35,585,905.3542398481513,906.1992020684993,"[72, 0, 182]",182,l,0.32180034776683897,colour,0.5
166,28,0,2,12,36,586,906.716381817736,907.4231238664652,"[38, 0, 216]",216,a,0.183786551351659,colour,0.5
166,28,0,2,12,37,587,907.9351414792472,908.6791496082442,"[32, 0, 222]",222,a,0.22044453374110162,colour,0.5
166,28,0,2,12,38,588,909.1852898606448,909.9911258672073,"[86, 0, 168]",168,l,0.28257724791183136,colour,0.5
166,28,0,2,12,39,589,910.4979348697234,911.2071041899326,"[24, 0, 230]",230,a,0.18563329413882457,colour,0.5
166,28,0,2,12,40,590,911.7167496696638,912.4630858209857,"[81, 0, 173]",173,l,0.2213747974310536,colour,0.5
166,28,0,2,12,41,591,912.9839590557967,913.7271042687062,"[75, 0, 179]",179,l,0.21985691582085565,colour,0.5
166,28,0,2,12,42,592,914.2340534803225,915.0150957143924,"[16, 0, 238]",238,a,0.25774802931118757,colour,0.5
166,28,0,2,12,43,593,915.53108132325,916.3591400771693,"[48, 0, 206]",206,a,0.30476336763240397,colour,0.5
166,28,0,2,12,44,594,916.874927187775,917.5430881052744,"[88, 0, 166]",166,l,0.1433346527046524,colour,0.5
166,28,0,2,12,45,595,918.0638652417401,918.7511414634937,"[83, 0, 171]",171,l,0.1642234444443602,colour,0.5
166,28,0,2,12,46,596,919.2671731523296,919.9991032131948,"[20, 0, 234]",234,a,0.2087693698122166,colour,0.5
166,28,0,2,12,47,597,920.517245521507,921.2311142093677,"[47, 0, 207]",207,a,0.18950637339730747,colour,0.5
166,28,0,2,12,48,598,921.7525648220908,922.591125473351,"[34, 0, 220]",220,a,0.3150679482205305,colour,0.5
166,28,0,2,12,49,599,923.1120522712299,923.7671233308502,"[40, 0, 214]",214,a,0.13158702119835652,colour,0.5
166,28,0,2,12,50,600,924.284040384955,924.9031190615497,"[2, 0, 252]",252,a,0.09578880414483137,colour,0.5
166,28,0,2,13,1,601,929.5037870239757,930.0470822921197,"[38, 0, 216]",216,a,0.0190125105145853,colour,0.5
166,28,0,2,13,2,602,930.5671115154692,931.1111117675318,"[73, 0, 181]",181,l,0.020720225758850574,colour,0.5
166,28,0,2,13,3,603,931.6296947892406,933.3191651257512,"[5, 0, 249]",249,a,1.166043799574254,colour,0.5
166,28,0,2,13,4,604,933.8343933692377,934.3990795824502,"[65, 0, 189]",189,l,0.04125061782542616,colour,0.5
166,28,0,2,13,5,605,934.9126457967795,935.6230620326824,"[18, 0, 236]",236,a,0.18708461578353308,colour,0.5
166,28,0,2,13,6,606,936.1314826520975,937.103162778425,"[54, 0, 200]",200,l,0.4482929739751853,colour,0.5
166,28,0,2,13,7,607,937.6160496088269,938.4231368633918,"[82, 0, 172]",172,l,0.2958766317460686,colour,0.5
166,28,0,2,13,8,608,938.9343919907697,939.5910703349509,"[67, 0, 187]",187,l,0.1382292300404515,colour,0.5
166,28,0,2,13,9,609,940.1013790509605,940.8630862148129,"[32, 0, 222]",222,a,0.23847676211153157,colour,0.5
166,28,0,2,13,10,610,941.3826869339682,942.0870544865902,"[21, 0, 233]",233,a,0.1810497170954477,colour,0.5
166,28,0,2,13,11,611,942.6016092538193,943.3750608984265,"[28, 0, 226]",226,a,0.25011529837502167,colour,0.5
166,28,0,2,13,12,612,943.872867768252,944.5911183841527,"[96, 0, 158]",158,l,0.19987948320340365,colour,0.5
166,28,0,2,13,13,613,945.1022415731859,945.8231293803256,"[76, 0, 178]",178,l,0.19788268517004326,colour,0.5
166,28,0,2,13,14,614,946.3367786961026,947.0871194711654,"[4, 0, 250]",250,a,0.22704381338553503,colour,0.5
166,28,0,2,13,15,615,947.6024564160616,948.2871064742503,"[42, 0, 212]",212,a,0.16154332403675653,colour,0.5
166,28,0,2,13,16,616,948.7962722498341,949.4630692794453,"[64, 0, 190]",190,l,0.14345201876130886,colour,0.5
166,28,0,2,13,17,617,949.971333542082,950.6630751871271,"[17, 0, 237]",237,a,0.17666148758144118,colour,0.5
166,28,0,2,13,18,618,951.1822832420585,951.8631389901566,"[47, 0, 207]",207,a,0.15741660809726454,colour,0.5
166,28,0,2,13,19,619,952.3699775311106,953.0310984555399,"[31, 0, 223]",223,a,0.13774086130433716,colour,0.5
166,28,0,2,13,20,620,953.5484054169792,954.2390616230841,"[77, 0, 177]",177,l,0.169491919252323,colour,0.5
166,28,0,2,13,21,621,954.7502257720917,955.4071089160861,"[85, 0, 169]",169,l,0.13381815748289227,colour,0.5
166,28,0,2,13,22,622,955.9222205812111,956.615075234411,"[11, 0, 243]",243,a,0.1696541837300174,colour,0.5
166,28,0,2,13,23,623,957.1253500796738,957.7990764316928,"[39, 0, 215]",215,a,0.15035771043039858,colour,0.5
166,28,0,2,13,24,624,958.3130640609888,958.8550832688634,"[87, 0, 167]",167,l,0.019058984325965866,colour,0.5
166,28,0,2,13,25,625,959.3755535994715,959.9350918546843,"[79, 0, 175]",175,l,0.03616882592905313,colour,0.5
166,28,0,2,13,26,626,960.4541530051501,961.0470543290721,"[22, 0, 232]",232,a,0.06960633146809414,colour,0.5
166,28,0,2,13,27,627,961.5635779312579,963.4950487679744,"[80, 0, 174]",174,l,1.4077532477676868,colour,0.5
166,28,0,2,13,28,628,964.0013410448446,964.7510307928314,"[2, 0, 252]",252,a,0.22630850330460817,colour,0.5
166,28,0,2,13,29,629,965.268637864734,966.0310295325471,"[52, 0, 202]",202,a,0.2390517769381404,colour,0.5
166,28,0,2,13,30,630,966.5499555938877,967.2472780334647,"[29, 0, 225]",225,a,0.17413299778127111,colour,0.5
166,28,0,2,13,31,631,967.7687388861668,968.4390352354094,"[33, 0, 221]",221,a,0.14687453844817355,colour,0.5
166,28,0,2,13,32,632,968.9570779007336,969.5751676306245,"[9, 0, 245]",245,a,0.09548160445410758,colour,0.5
166,28,0,2,13,33,633,970.0814303690568,971.1030513200967,"[49, 0, 205]",205,l,0.49827082018600777,colour,0.5
166,28,0,2,13,34,634,971.6141020415234,972.4950093833904,"[95, 0, 159]",159,l,0.35746859572827816,colour,0.5
166,28,0,2,13,35,635,973.0048884136486,973.7431251267844,"[37, 0, 217]",217,a,0.2148117515607737,colour,0.5
166,28,0,2,13,36,636,974.254881619825,975.1030316278047,"[99, 0, 155]",155,l,0.3246884187683463,colour,0.5
166,28,0,2,13,37,637,975.6152567972895,976.3031159107923,"[63, 0, 191]",191,l,0.16446526575600728,colour,0.5
166,28,0,2,13,38,638,976.8184910587152,977.4870107697207,"[89, 0, 165]",165,l,0.14514398016035557,colour,0.5
166,28,0,2,13,39,639,978.0059569172154,978.6870529112348,"[81, 0, 173]",173,l,0.15760604789829813,colour,0.5
166,28,0,2,13,40,640,979.1935610155924,979.7751014645328,"[25, 0, 229]",229,a,0.05809461357421242,colour,0.5
166,28,0,2,13,41,641,980.2874128862459,981.0070356607903,"[97, 0, 157]",157,l,0.19613085919991136,colour,0.5
166,28,0,2,13,42,642,981.5233465862693,982.1990854901378,"[91, 0, 163]",163,l,0.1523190623265691,colour,0.5
166,28,0,2,13,43,643,982.710914450814,983.5350040270714,"[60, 0, 194]",194,l,0.30083042377373204,colour,0.5
166,28,0,2,13,44,644,984.0547016322962,984.7350764947187,"[1, 0, 253]",253,a,0.15687625171267428,colour,0.5
166,28,0,2,13,45,645,985.242349447537,985.8630204425717,"[12, 0, 242]",242,a,0.09719286431209184,colour,0.5
166,28,0,2,13,46,646,986.3830559674534,987.0230525803927,"[83, 0, 171]",171,l,0.11675045735319145,colour,0.5
166,28,0,2,13,47,647,987.5407600829494,988.207056534593,"[71, 0, 183]",183,l,0.1429983084090054,colour,0.5
166,28,0,2,13,48,648,988.7282456337416,989.3750356922974,"[62, 0, 192]",192,l,0.12330011246376671,colour,0.5
166,28,0,2,13,49,649,989.8845350552292,990.5592026986415,"[23, 0, 231]",231,a,0.1511733650113456,colour,0.5
166,28,0,2,13,50,650,991.0722222550539,991.8390773769061,"[16, 0, 238]",238,a,0.2433498157770373,colour,0.5
166,28,0,2,14,1,651,998.0268843058439,998.84703187985,"[37, 0, 217]",217,a,0.2960676469374448,colour,0.5
166,28,0,2,14,2,652,999.3558687942277,1000.5189800182416,"[10, 0, 244]",244,a,0.6397484900953714,colour,0.5
166,28,0,2,14,3,653,1001.0278838863887,1001.7749994584883,"[38, 0, 216]",216,a,0.22400608099997044,colour,0.5
166,28,0,2,14,4,654,1002.2939416675072,1002.9030548646988,"[89, 0, 165]",165,l,0.08581347859581001,colour,0.5
166,28,0,2,14,5,655,1003.4190420489467,1004.1511103496887,"[43, 0, 211]",211,a,0.20867957299924456,colour,0.5
166,28,0,2,14,6,656,1004.6691435626999,1005.3590758803184,"[94, 0, 160]",160,l,0.16659794058068655,colour,0.5
166,28,0,2,14,7,657,1005.8723278057296,1006.5350268701441,"[41, 0, 213]",213,a,0.13956791182863526,colour,0.5
166,28,0,2,14,8,658,1007.0443107994506,1007.951070177427,"[75, 0, 179]",179,l,0.38336395483929664,colour,0.5
166,28,0,2,14,9,659,1008.4680533976352,1009.1349662178836,"[27, 0, 227]",227,a,0.14361152629135177,colour,0.5
166,28,0,2,14,10,660,1009.6556043268065,1010.3030481693277,"[74, 0, 180]",180,l,0.12374830892076716,colour,0.5
166,28,0,2,14,11,661,1010.8123128002044,1011.4870899327216,"[15, 0, 239]",239,a,0.1514376355044078,colour,0.5
166,28,0,2,14,12,662,1011.9999287139217,1012.8230836942093,"[59, 0, 195]",195,l,0.3000324922904838,colour,0.5
166,28,0,2,14,13,663,1013.3294799463765,1014.0229907465982,"[97, 0, 157]",157,a,0.17043951217783615,colour,0.5
166,28,0,2,14,14,664,1014.5327094816603,1015.3350154486252,"[12, 0, 242]",242,a,0.2790728083055001,colour,0.5
166,28,0,2,14,15,665,1015.8453513399872,1016.4710446562094,"[77, 0, 177]",177,l,0.10235224381904118,colour,0.5
166,28,0,2,14,16,666,1016.9861023644626,1017.6949566080584,"[49, 0, 205]",205,a,0.18549347890075296,colour,0.5
166,28,0,2,14,17,667,1018.2049211028498,1018.9750561722612,"[60, 0, 194]",194,l,0.24676091395667754,colour,0.5
166,28,0,2,14,18,668,1019.486216382822,1020.1589888403832,"[73, 0, 181]",181,l,0.1484408630640246,colour,0.5
166,28,0,2,14,19,669,1020.6747125418333,1021.383018945955,"[34, 0, 220]",220,a,0.18498226709198207,colour,0.5
166,28,0,2,14,20,670,1021.8934521172196,1022.5670000571117,"[96, 0, 158]",158,l,0.15007611067267135,colour,0.5
166,28,0,2,14,21,671,1023.0813693229575,1023.7590435849561,"[84, 0, 170]",170,l,0.154560832423158,colour,0.5
166,28,0,2,14,22,672,1024.2687182092632,1024.950990620564,"[20, 0, 234]",234,a,0.1589715111476835,colour,0.5
166,28,0,2,14,23,673,1025.472057233681,1026.2469594122376,"[31, 0, 223]",223,a,0.2516249091713689,colour,0.5
166,28,0,2,14,24,674,1026.753157953819,1031.9989862410002,"[55, 0, 199]",199,a,4.722161504323594,colour,0.5
166,28,0,2,14,25,675,1032.505191084143,1033.295020411082,"[56, 0, 198]",198,l,0.2664244515472092,colour,0.5
166,28,0,2,14,26,676,1033.802057450288,1034.7189776551677,"[58, 0, 196]",196,l,0.3934212003077846,colour,0.5
166,28,0,2,14,27,677,1035.2396441209712,1035.9270097457338,"[91, 0, 163]",163,l,0.16394932780531235,colour,0.5
166,28,0,2,14,28,678,1036.4428807454824,1037.055113594979,"[95, 0, 159]",159,l,0.08886184482253157,colour,0.5
166,28,0,2,14,29,679,1037.5680197238107,1038.2629881472094,"[52, 0, 202]",202,a,0.17159820641973056,colour,0.5
166,28,0,2,14,30,680,1038.771246502176,1039.4469972214429,"[71, 0, 183]",183,l,0.1522765269910451,colour,0.5
166,28,0,2,14,31,681,1039.9587777390552,1040.695088940236,"[25, 0, 229]",229,a,0.21284724888391793,colour,0.5
166,28,0,2,14,32,682,1041.20893163429,1041.9831004720472,"[14, 0, 240]",240,a,0.2507899561605882,colour,0.5
166,28,0,2,14,33,683,1042.490151689708,1044.8149598375894,"[48, 0, 206]",206,a,1.8012335249513853,colour,0.5
166,28,0,2,14,34,684,1045.3355195712065,1045.9749758277321,"[78, 0, 176]",176,l,0.11603365806513466,colour,0.5
166,28,0,2,14,35,685,1046.4918594049523,1047.2789778914885,"[4, 0, 250]",250,a,0.26361869429820217,colour,0.5
166,28,0,2,14,36,686,1047.7889400232234,1048.4310125971679,"[22, 0, 232]",232,a,0.11883665836649016,colour,0.5
166,28,0,2,14,37,687,1048.9452518939215,1049.6790062483633,"[98, 0, 156]",156,l,0.2103609005571343,colour,0.5
166,28,0,2,14,38,688,1050.19741007025,1050.7989346472023,"[17, 0, 237]",237,a,0.07803935700212605,colour,0.5
166,28,0,2,14,39,689,1051.3069121901353,1051.9830343059439,"[51, 0, 203]",203,a,0.1525888466858305,colour,0.5
166,28,0,2,14,40,690,1052.4942697410297,1053.254936758225,"[26, 0, 228]",228,a,0.23735745245357975,colour,0.5
166,28,0,2,14,41,691,1053.7755921963544,1054.3909695104521,"[72, 0, 182]",182,l,0.09208232164382935,colour,0.5
166,28,0,2,14,42,692,1054.9006969101029,1055.5989531579544,"[92, 0, 162]",162,l,0.17523064592387527,colour,0.5
166,28,0,2,14,43,693,1056.1204549706308,1056.998975213326,"[44, 0, 210]",210,a,0.3550318719644565,colour,0.5
166,28,0,2,14,44,694,1057.5112622166052,1058.1269766626938,"[99, 0, 155]",155,l,0.09218708463595249,colour,0.5
166,28,0,2,14,45,695,1058.6363708688295,1059.3590069572965,"[8, 0, 246]",246,a,0.19921191461617127,colour,0.5
166,28,0,2,14,46,696,1059.8707898379944,1060.6309700618149,"[64, 0, 190]",190,l,0.23667452388326637,colour,0.5
166,28,0,2,14,47,697,1061.152221388591,1061.8709993639495,"[30, 0, 224]",224,a,0.19548928443691693,colour,0.5
166,28,0,2,14,48,698,1062.388138940907,1063.1109420199937,"[28, 0, 226]",226,a,0.19936157600022852,colour,0.5
166,28,0,2,14,49,699,1063.622622106981,1064.3589313389093,"[47, 0, 207]",207,a,0.21338799913064577,colour,0.5
166,28,0,2,14,50,700,1064.8725574178097,1065.5909982611774,"[18, 0, 236]",236,a,0.19525691543822177,colour,0.5
166,28,0,2,15,1,701,1070.2785356026725,1071.0309613972204,"[0, 0, 254]",254,a,0.22831475365092047,colour,0.5
166,28,0,2,15,2,702,1071.5465019603726,1072.206952165463,"[95, 0, 159]",159,l,0.13710361885023303,colour,0.5
166,28,0,2,15,3,703,1072.718471563363,1073.3429423823545,"[3, 0, 251]",251,a,0.10112344505614601,colour,0.5
166,28,0,2,15,4,704,1073.8591828094213,1074.5749596800597,"[5, 0, 249]",249,a,0.19239838287467137,colour,0.5
166,28,0,2,15,5,705,1075.0936707016372,1075.8229647527914,"[48, 0, 206]",206,a,0.20670010417234153,colour,0.5
166,28,0,2,15,6,706,1076.343661544728,1077.022944666649,"[96, 0, 158]",158,l,0.155847526533762,colour,0.5
166,28,0,2,15,7,707,1077.5313412614632,1078.1990331086563,"[84, 0, 170]",170,l,0.1443681039963849,colour,0.5
166,28,0,2,15,8,708,1078.7196152914548,1079.4389604047174,"[79, 0, 175]",175,l,0.19593078552861698,colour,0.5
166,28,0,2,15,9,709,1079.9541075159796,1080.7269431857858,"[77, 0, 177]",177,l,0.24938195751747116,colour,0.5
166,28,0,2,15,10,710,1081.2353953128622,1081.862927494978,"[42, 0, 212]",212,a,0.10584920039400458,colour,0.5
166,28,0,2,15,11,711,1082.3768410812772,1083.6629267072713,"[63, 0, 191]",191,l,0.7626260060060304,colour,0.5
166,28,0,2,15,12,712,1084.1738671518979,1084.7909600581334,"[4, 0, 250]",250,a,0.09370969232986681,colour,0.5
166,28,0,2,15,13,713,1085.2989336625906,1085.9669787894527,"[37, 0, 217]",217,a,0.14463749452261254,colour,0.5
166,28,0,2,15,14,714,1086.4866318900895,1087.1029217448377,"[98, 0, 156]",156,l,0.09289797622477636,colour,0.5
166,28,0,2,15,15,715,1087.6118334899074,1088.230986209499,"[44, 0, 210]",210,a,0.09620194835588336,colour,0.5
166,28,0,2,15,16,716,1088.752376563818,1089.3589565450384,"[86, 0, 168]",168,l,0.0832613580278121,colour,0.5
166,28,0,2,15,17,717,1089.8774710375874,1090.5429506530927,"[93, 0, 161]",161,l,0.14204598937067203,colour,0.5
166,28,0,2,15,18,718,1091.0494343390164,1091.6709379240056,"[87, 0, 167]",167,l,0.09816920795128681,colour,0.5
166,28,0,2,15,19,719,1092.2019696226926,1092.8709052347986,"[11, 0, 243]",243,a,0.14181558959535323,colour,0.5
166,28,0,2,15,20,720,1093.3777229019324,1095.0308857788332,"[55, 0, 199]",199,a,1.1297572137846146,colour,0.5
166,28,0,2,15,21,721,1095.5513214510283,1096.2868961606,"[39, 0, 215]",215,a,0.21222576027503237,colour,0.5
166,28,0,2,15,22,722,1096.8012839372095,1097.3989196810871,"[51, 0, 203]",203,a,0.07475310793961398,colour,0.5
166,28,0,2,15,23,723,1097.9108179585892,1098.654926124378,"[67, 0, 187]",187,l,0.2207907241245266,colour,0.5
166,28,0,2,15,24,724,1099.1764417216764,1099.7988802964974,"[31, 0, 223]",223,a,0.09898368100402877,colour,0.5
166,28,0,2,15,25,725,1100.3172073184396,1101.014939751447,"[80, 0, 174]",174,l,0.17442444362677634,colour,0.5
166,28,0,2,15,26,726,1101.5204608783242,1102.142932930059,"[90, 0, 164]",164,a,0.09901715788873844,colour,0.5
166,28,0,2,15,27,727,1102.661139435193,1103.4069320793496,"[28, 0, 226]",226,a,0.2223645318299532,colour,0.5
166,28,0,2,15,28,728,1103.9269278258143,1104.8789306299877,"[70, 0, 184]",184,l,0.4286526733194478,colour,0.5
166,28,0,2,15,29,729,1105.3958535917918,1106.0149224222405,"[24, 0, 230]",230,a,0.09572185037541203,colour,0.5
166,28,0,2,15,30,730,1106.5221981320065,1107.2388836047903,"[32, 0, 222]",222,a,0.19331249888637103,colour,0.5
166,28,0,2,15,31,731,1107.7566608180641,1108.3909112212714,"[9, 0, 245]",245,a,0.11090893694199622,colour,0.5
166,28,0,2,15,32,732,1108.897374427208,1111.734919744078,"[56, 0, 198]",198,a,2.3141605275741313,colour,0.5
166,28,0,2,15,33,733,1112.2428984685394,1113.0389403185982,"[19, 0, 235]",235,a,0.273122586455429,colour,0.5
166,28,0,2,15,34,734,1113.5555726222228,1114.230946431082,"[40, 0, 214]",214,a,0.15204494568752125,colour,0.5
166,28,0,2,15,35,735,1114.7430006715294,1115.3429022100754,"[46, 0, 208]",208,a,0.07520366748212837,colour,0.5
166,28,0,2,15,36,736,1115.8538489562343,1116.5589581204113,"[15, 0, 239]",239,a,0.18193075008457527,colour,0.5
166,28,0,2,15,37,737,1117.0725747470278,1117.6869410590152,"[82, 0, 172]",172,l,0.0911004641384352,colour,0.5
166,28,0,2,15,38,738,1118.197518771689,1118.8789085746394,"[57, 0, 197]",197,a,0.15795420756330714,colour,0.5
166,28,0,2,15,39,739,1119.3851240515942,1120.062904258084,"[50, 0, 204]",204,a,0.15439659875119105,colour,0.5
166,28,0,2,15,40,740,1120.5727364206978,1121.206892300921,"[97, 0, 157]",157,l,0.11077424170798622,colour,0.5
166,28,0,2,15,41,741,1121.7147981639137,1122.4468971845927,"[78, 0, 176]",176,l,0.20885207742685452,colour,0.5
166,28,0,2,15,42,742,1122.965184034285,1123.5989531579544,"[85, 0, 169]",169,l,0.11040599588886835,colour,0.5
166,28,0,2,15,43,743,1124.105923637253,1124.7909096458752,"[2, 0, 252]",252,a,0.16168471463606693,colour,0.5
166,28,0,2,15,44,744,1125.3090862187673,1125.974906117015,"[34, 0, 220]",220,a,0.14246543508488685,colour,0.5
166,28,0,2,15,45,745,1126.4811034770682,1128.0709851855063,"[60, 0, 194]",194,l,1.0646631732524838,colour,0.5
166,28,0,2,15,46,746,1128.5926961302757,1129.3269333396456,"[26, 0, 228]",228,a,0.2108729000610765,colour,0.5
166,28,0,2,15,47,747,1129.8427397487103,1130.5509232729382,"[10, 0, 244]",244,a,0.1848574179748539,colour,0.5
166,28,0,2,15,48,748,1131.061669945455,1131.7189008552523,"[14, 0, 240]",240,a,0.1340906987315975,colour,0.5
166,28,0,2,15,49,749,1132.2335442377662,1132.8708705763856,"[99, 0, 155]",155,l,0.11404394925921224,colour,0.5
166,28,0,2,15,50,750,1133.3898037269828,1134.0149086376477,"[6, 0, 248]",248,a,0.1016031492035836,colour,0.5
166,28,0,2,16,1,751,1138.5159214120358,1139.1989346472255,"[42, 0, 212]",212,a,0.15900380653329194,colour,0.5
166,28,0,2,16,2,752,1139.719919734256,1140.3189658398042,"[33, 0, 221]",221,a,0.07400204407167621,colour,0.5
166,28,0,2,16,3,753,1140.8309586402902,1141.374979766173,"[73, 0, 181]",181,l,0.020529998233541846,colour,0.5
166,28,0,2,16,4,754,1141.8935509725125,1142.5990165671392,"[84, 0, 170]",170,l,0.18202094078878872,colour,0.5
166,28,0,2,16,5,755,1143.112455963128,1143.814903123799,"[12, 0, 242]",242,a,0.1791281436162535,colour,0.5
166,28,0,2,16,6,756,1144.331322750717,1145.0390545338742,"[80, 0, 174]",174,l,0.1848369380168151,colour,0.5
166,28,0,2,16,7,757,1145.5499488985224,1146.2548839828814,"[29, 0, 225]",225,a,0.17992410590522923,colour,0.5
166,28,0,2,16,8,758,1146.7703772845562,1147.4708721517818,"[74, 0, 180]",180,l,0.17709353641839698,colour,0.5
166,28,0,2,16,9,759,1147.989263764437,1148.6788463470002,"[72, 0, 182]",182,l,0.16661251286859624,colour,0.5
166,28,0,2,16,10,760,1149.193195920554,1149.8388863617147,"[70, 0, 184]",184,l,0.1230779834149871,colour,0.5
166,28,0,2,16,11,761,1150.3488929980376,1150.990865928994,"[78, 0, 176]",176,l,0.11866927391383797,colour,0.5
166,28,0,2,16,12,762,1151.5065463074134,1152.1748608247726,"[86, 0, 168]",168,l,0.1447981835808605,colour,0.5
166,28,0,2,16,13,763,1152.6941661596065,1153.310846315493,"[0, 0, 254]",254,a,0.09332451119553298,colour,0.5
166,28,0,2,16,14,764,1153.8092423786002,1154.4152516773029,"[25, 0, 229]",229,a,0.08963417637278326,colour,0.5
166,28,0,2,16,15,765,1154.9280242924287,1155.5589258250839,"[40, 0, 214]",214,a,0.10561880064778961,colour,0.5
166,28,0,2,16,16,766,1156.0706330873945,1157.8388666694227,"[98, 0, 156]",156,l,1.2448200420185458,colour,0.5
166,28,0,2,16,17,767,1158.3520756656653,1159.6151244651119,"[63, 0, 191]",191,l,0.748978462535888,colour,0.5
166,28,0,2,16,18,768,1160.1187968799786,1160.7748478278518,"[31, 0, 223]",223,a,0.1325846325198654,colour,0.5
166,28,0,2,16,19,769,1161.2908220152021,1162.0069139624247,"[38, 0, 216]",216,a,0.19313723751110956,colour,0.5
166,28,0,2,16,20,770,1162.525230744388,1163.12684787513,"[23, 0, 231]",231,a,0.07820004608947784,colour,0.5
166,28,0,2,16,21,771,1163.6347442858096,1164.2868032130064,"[9, 0, 245]",245,a,0.1277064588794019,colour,0.5
166,28,0,2,16,22,772,1164.807634306344,1165.4468400769692,"[88, 0, 166]",166,l,0.11666696204338223,colour,0.5
166,28,0,2,16,23,773,1165.9640985953738,1166.606935623946,"[30, 0, 224]",224,a,0.11902609819662757,colour,0.5
166,28,0,2,16,24,774,1167.1105162727472,1168.094899106567,"[58, 0, 196]",196,l,0.46128752117510885,colour,0.5
166,28,0,2,16,25,775,1168.61060232803,1169.6149228160793,"[95, 0, 159]",159,l,0.48218773445114493,colour,0.5
166,28,0,2,16,26,776,1170.1249912861676,1170.8149495976104,"[21, 0, 233]",233,a,0.16668419280904345,colour,0.5
166,28,0,2,16,27,777,1171.3281574122957,1174.0628837780969,"[53, 0, 201]",201,l,2.211302979645552,colour,0.5
166,28,0,2,16,28,778,1174.5798540013784,1175.3829169399105,"[32, 0, 222]",222,a,0.2797041430603713,colour,0.5
166,28,0,2,16,29,779,1175.8923524998536,1176.5908931043523,"[47, 0, 207]",207,a,0.17513966755359434,colour,0.5
166,28,0,2,16,30,780,1177.1113472873112,1177.6948494820099,"[91, 0, 163]",163,l,0.0602324084029533,colour,0.5
166,28,0,2,16,31,781,1178.2052220010373,1179.1988708442077,"[61, 0, 193]",193,l,0.47038141993107274,colour,0.5
166,28,0,2,16,32,782,1179.7052068379708,1180.4788365008426,"[24, 0, 230]",230,a,0.25022006130893715,colour,0.5
166,28,0,2,16,33,783,1180.986502905609,1181.7348236457328,"[60, 0, 194]",194,l,0.22492846776731312,colour,0.5
166,28,0,2,16,34,784,1182.2522723916336,1182.8868496867944,"[92, 0, 162]",162,l,0.1111692689883057,colour,0.5
166,28,0,2,16,35,785,1183.3930553176324,1184.0548252998851,"[28, 0, 226]",226,a,0.13841985139879398,colour,0.5
166,28,0,2,16,36,786,1184.5663407593092,1185.2788557992899,"[6, 0, 248]",248,a,0.1892775490123313,colour,0.5
166,28,0,2,16,37,787,1185.785147682327,1186.414864526916,"[85, 0, 169]",169,l,0.10631945222849026,colour,0.5
166,28,0,2,16,38,788,1186.9259042206686,1187.5828405338398,"[3, 0, 251]",251,a,0.13358972693094984,colour,0.5
166,28,0,2,16,39,789,1188.0989372072218,1188.726864416647,"[75, 0, 179]",179,l,0.10472989073605277,colour,0.5
166,28,0,2,16,40,790,1189.239638213301,1190.5508689222333,"[57, 0, 197]",197,l,0.7883539806935005,colour,0.5
166,28,0,2,16,41,791,1191.0678777424037,1191.8068261348235,"[36, 0, 218]",218,a,0.21575264909188263,colour,0.5
166,28,0,2,16,42,792,1192.3180328191665,1193.1428695208742,"[10, 0, 244]",244,a,0.30142985706334,colour,0.5
166,28,0,2,16,43,793,1193.663218547008,1194.2948648419988,"[5, 0, 249]",249,a,0.10855610235012136,colour,0.5
166,28,0,2,16,44,794,1194.803992414556,1195.4068155009882,"[16, 0, 238]",238,a,0.07951037093880586,colour,0.5
166,28,0,2,16,45,795,1195.9135004421114,1196.5348201011075,"[90, 0, 164]",164,l,0.09864261056645773,colour,0.5
166,28,0,2,16,46,796,1197.0542097189464,1197.8228804697865,"[51, 0, 203]",203,a,0.2457601518544834,colour,0.5
166,28,0,2,16,47,797,1198.3230921618815,1199.0308471819444,"[2, 0, 252]",252,a,0.1842788585636299,colour,0.5
166,28,0,2,16,48,798,1199.5392323552223,1200.1508575007028,"[44, 0, 210]",210,a,0.08833290994516574,colour,0.5
166,28,0,2,16,49,799,1200.6641755922174,1201.270826071821,"[55, 0, 199]",199,a,0.0834653701458592,colour,0.5
166,28,0,2,16,50,800,1201.7891861768148,1202.910836863186,"[65, 0, 189]",189,l,0.5979756327578798,colour,0.5
