id,age,condition,counterbalance,block,trialinblock,trial,tstart,tend,trialstim,trialintensity,response,RT,trialtype,colourfreq
76,70,1,1,Practice,1,NA,5.907611921429634e-06,2.4754847961012274,"[45, 0, 209]",209,a,1.8632685283664614,colour,0.5
76,70,1,1,Practice,2,NA,2.984862884040922,6.475527725415304,"[56, 0, 198]",198,a,2.9732522743288428,colour,0.5
76,70,1,1,Practice,3,NA,6.984170894837007,8.483520850306377,"[57, 0, 197]",197,a,0.9811630852054805,colour,0.5
76,70,1,1,Practice,4,NA,8.993291603866965,11.739545035874471,"[35, 0, 219]",219,a,2.2298191809095442,colour,0.5
76,70,1,1,Practice,5,NA,12.248914852971211,16.107479272875935,"[14, 0, 240]",240,a,3.340733587509021,colour,0.5
76,70,1,1,Practice,6,NA,16.617209853837267,21.49953742674552,"[8, 0, 246]",246,a,4.3646649131551385,colour,0.5
76,70,1,1,Practice,7,NA,22.008224707096815,25.915541084716097,"[30, 0, 224]",224,a,3.3900081801693887,colour,0.5
76,70,1,1,Practice,8,NA,26.424908144865185,30.883552436949685,"[76, 0, 178]",178,a,3.941895751049742,colour,0.5
76,70,1,1,Practice,9,NA,31.392596542602405,36.611610137159005,"[83, 0, 171]",171,l,4.701446639606729,colour,0.5
76,70,1,1,Practice,10,NA,37.12076963996515,39.95570442080498,"[67, 0, 187]",187,l,2.3174501399043947,colour,0.5
76,70,1,1,1,1,1,5.316103576915339,6.512333122082055,"[2, 0, 252]",252,a,0.6781675242818892,colour,0.5
76,70,1,1,1,2,2,7.020717927953228,8.144038515165448,"[89, 0, 165]",165,l,0.6064007228706032,colour,0.5
76,70,1,1,1,3,3,8.653028663713485,9.384085508994758,"[27, 0, 227]",227,a,0.21351194567978382,colour,0.5
76,70,1,1,1,4,4,9.892872432479635,10.671956951031461,"[99, 0, 155]",155,l,0.262524236459285,colour,0.5
76,70,1,1,1,5,5,11.181000662734732,11.760625303024426,"[16, 0, 238]",238,a,0.060780045576393604,colour,0.5
76,70,1,1,1,6,6,12.271214470500126,13.00804550666362,"[78, 0, 176]",176,l,0.2200119965709746,colour,0.5
76,70,1,1,1,7,7,13.51712545240298,14.52028646855615,"[84, 0, 170]",170,l,0.4870544457808137,colour,0.5
76,70,1,1,1,8,8,15.029261257266626,25.120191866531968,"[8, 0, 246]",246,a,9.572947358014062,colour,0.5
76,70,1,1,1,9,9,25.629549474455416,27.52807124843821,"[94, 0, 160]",160,l,1.380884320475161,colour,0.5
76,70,1,1,1,10,10,28.036549002164975,28.568001427222043,"[18, 0, 236]",236,a,0.014321458525955677,colour,0.5
76,70,1,1,1,11,11,29.07737872749567,29.615994048072025,"[35, 0, 219]",219,l,0.02161156665533781,colour,0.5
76,70,1,1,1,12,12,30.12590461736545,31.44005943927914,"[93, 0, 161]",161,l,0.7972814314998686,colour,0.5
76,70,1,1,1,13,13,31.94998458097689,32.51207042625174,"[40, 0, 214]",214,a,0.04435820085927844,colour,0.5
76,70,1,1,1,14,14,33.02153437281959,33.66400439222343,"[52, 0, 202]",202,a,0.12590382969938219,colour,0.5
76,70,1,1,1,15,15,34.17273342027329,34.98404722707346,"[81, 0, 173]",173,l,0.2954336984548718,colour,0.5
76,70,1,1,1,16,16,35.493541499832645,52.20012508588843,"[44, 0, 210]",210,a,16.190210775239393,colour,0.5
76,70,1,1,1,17,17,52.709490570705384,53.52022227155976,"[95, 0, 159]",159,l,0.2932545430958271,colour,0.5
76,70,1,1,1,18,18,54.03001704951748,54.74408018402755,"[67, 0, 187]",187,a,0.1941996575333178,colour,0.5
76,70,1,1,1,19,19,55.25244411616586,56.080248296959326,"[59, 0, 195]",195,a,0.3104195771738887,colour,0.5
76,70,1,1,1,20,20,56.58921717782505,57.31207137135789,"[5, 0, 249]",249,a,0.20635298849083483,colour,0.5
76,70,1,1,1,21,21,57.82148884399794,58.56810934143141,"[37, 0, 217]",217,a,0.2300149230286479,colour,0.5
76,70,1,1,1,22,22,59.076957705197856,59.792121248086914,"[58, 0, 196]",196,a,0.1987170826178044,colour,0.5
76,70,1,1,1,23,23,60.30093180271797,61.04009598842822,"[42, 0, 212]",212,a,0.22130854101851583,colour,0.5
76,70,1,1,1,24,24,61.54975292016752,62.29609654285014,"[12, 0, 242]",242,a,0.22857698728330433,colour,0.5
76,70,1,1,1,25,25,62.804979959037155,63.60812971112318,"[64, 0, 190]",190,a,0.2863531617913395,colour,0.5
76,70,1,1,1,26,26,64.1163534335792,64.87212063372135,"[22, 0, 232]",232,a,0.23860748298466206,colour,0.5
76,70,1,1,1,27,27,65.38191186729819,65.92018139013089,"[72, 0, 182]",182,l,0.021214175038039684,colour,0.5
76,70,1,1,1,28,28,66.43043815088458,66.95212435163558,"[13, 0, 241]",241,a,0.004522545030340552,colour,0.5
76,70,1,1,1,29,29,67.46302268910222,68.16808011801913,"[48, 0, 206]",206,a,0.1881627708207816,colour,0.5
76,70,1,1,1,30,30,68.67759880935773,69.23213972756639,"[87, 0, 167]",167,l,0.0377025802154094,colour,0.5
76,70,1,1,1,31,31,69.74149457854219,86.98417483340017,"[31, 0, 223]",223,a,16.726299960864708,colour,0.5
76,70,1,1,1,32,32,87.49372266954742,89.70427091629244,"[60, 0, 194]",194,a,1.6939883586019278,colour,0.5
76,70,1,1,1,33,33,90.21321774180979,91.84016585676,"[97, 0, 157]",157,l,1.1075363806448877,colour,0.5
76,70,1,1,1,34,34,92.34974992694333,177.38447502348572,"[63, 0, 191]",191,a,84.51696436898783,colour,0.5
76,70,1,1,1,35,35,177.89373023132794,179.87234945897944,"[82, 0, 172]",172,l,1.4621837951708585,colour,0.5
76,70,1,1,1,36,36,180.3816629559733,180.9603502403479,"[53, 0, 201]",201,a,0.059927366906777024,colour,0.5
76,70,1,1,1,37,37,181.46937937987968,182.07242019381374,"[36, 0, 218]",218,a,0.08577790879644454,colour,0.5
76,70,1,1,1,38,38,182.58136465633288,183.2483248701319,"[26, 0, 228]",228,a,0.1499529154971242,colour,0.5
76,70,1,1,1,39,39,183.7571436953731,184.75237105740234,"[38, 0, 216]",216,a,0.47924721660092473,colour,0.5
76,70,1,1,1,40,40,185.26123517518863,186.34437509672716,"[11, 0, 243]",243,a,0.5657245977781713,colour,0.5
76,70,1,1,1,41,41,186.85382013884373,188.21637718263082,"[75, 0, 179]",179,l,0.8464268427342176,colour,0.5
76,70,1,1,1,42,42,188.72533739893697,191.66436791303568,"[30, 0, 224]",224,a,2.4219168771523982,colour,0.5
76,70,1,1,1,43,43,192.17330449842848,198.34441960137337,"[71, 0, 183]",183,l,5.654221626231447,colour,0.5
76,70,1,1,1,44,44,198.8540261206217,201.1763930467423,"[98, 0, 156]",156,l,1.802892176201567,colour,0.5
76,70,1,1,1,45,45,201.6851193178445,203.08037590328604,"[3, 0, 251]",251,a,0.8777932121884078,colour,0.5
76,70,1,1,1,46,46,203.58988553634845,205.39240985922515,"[4, 0, 250]",250,a,1.2863492232281715,colour,0.5
76,70,1,1,1,47,47,205.90205024927855,207.72043794207275,"[80, 0, 174]",174,l,1.3014591636601835,colour,0.5
76,70,1,1,1,48,48,208.23014883091673,209.89642887096852,"[15, 0, 239]",239,a,1.1476370950695127,colour,0.5
76,70,1,1,1,49,49,210.4054190197494,211.69642705935985,"[46, 0, 208]",208,a,0.7742945512291044,colour,0.5
76,70,1,1,1,50,50,212.20622577588074,214.4804358468391,"[57, 0, 197]",197,a,1.757968805031851,colour,0.5
76,70,1,1,2,1,51,231.54015644383617,233.98451275425032,"[75, 0, 179]",179,l,1.9271442114841193,colour,0.5
76,70,1,1,2,2,52,234.4935938816052,235.72049150522798,"[0, 0, 254]",254,a,0.7094066811259836,colour,0.5
76,70,1,1,2,3,53,236.2293615306262,237.51248672232032,"[1, 0, 253]",253,a,0.7661663363687694,colour,0.5
76,70,1,1,2,4,54,238.02199241681956,239.28857248974964,"[32, 0, 222]",222,a,0.7500170338898897,colour,0.5
76,70,1,1,2,5,55,239.7973613825161,240.87249360675924,"[4, 0, 250]",250,a,0.5562576970551163,colour,0.5
76,70,1,1,2,6,56,241.38167240819894,242.9364945332054,"[79, 0, 175]",175,l,1.0369081906974316,colour,0.5
76,70,1,1,2,7,57,243.44493368989788,244.7925359690562,"[31, 0, 223]",223,a,0.8307899350766093,colour,0.5
76,70,1,1,2,8,58,245.30223819310777,246.56854651146568,"[12, 0, 242]",242,a,0.7490320224314928,colour,0.5
76,70,1,1,2,9,59,247.07729720138013,248.5045849699527,"[81, 0, 173]",173,l,0.9106030310504138,colour,0.5
76,70,1,1,2,10,60,249.0137606204953,250.29654277162626,"[68, 0, 186]",186,l,0.7627764954231679,colour,0.5
76,70,1,1,2,11,61,250.80557742505334,253.75251323613338,"[63, 0, 191]",191,l,2.4306854866445065,colour,0.5
76,70,1,1,2,12,62,254.26171488082036,257.67259222618304,"[61, 0, 193]",193,a,2.8929894051980227,colour,0.5
76,70,1,1,2,13,63,258.18265009415336,259.7125393403694,"[57, 0, 197]",197,a,1.0123408020008355,colour,0.5
76,70,1,1,2,14,64,260.221973748412,261.51256431033835,"[48, 0, 206]",206,a,0.7733950046822429,colour,0.5
76,70,1,1,2,15,65,262.0226879506372,263.3685387922451,"[93, 0, 161]",161,l,0.828361474443227,colour,0.5
76,70,1,1,2,16,66,263.877635673387,265.1685094111599,"[21, 0, 233]",233,a,0.7732252564746886,colour,0.5
76,70,1,1,2,17,67,265.6774944397621,266.7445311388001,"[80, 0, 174]",174,l,0.5495433933101594,colour,0.5
76,70,1,1,2,18,68,267.2537954051513,268.6245424975641,"[70, 0, 184]",184,l,0.8533585502300411,colour,0.5
76,70,1,1,2,19,69,269.13359448011033,270.60061432258226,"[77, 0, 177]",177,l,0.9497140080202371,colour,0.5
76,70,1,1,2,20,70,271.11038625752553,272.29653489473276,"[17, 0, 237]",237,a,0.6697734631597996,colour,0.5
76,70,1,1,2,21,71,272.8066664119251,274.20854907948524,"[85, 0, 169]",169,l,0.8848623721860349,colour,0.5
76,70,1,1,2,22,72,274.71843956247903,275.89676324720494,"[24, 0, 230]",230,a,0.6614187867380679,colour,0.5
76,70,1,1,2,23,73,276.4059837963432,277.7047053296119,"[18, 0, 236]",236,a,0.7817047825083137,colour,0.5
76,70,1,1,2,24,74,278.2134481424,279.62453855900094,"[73, 0, 181]",181,l,0.8945324977394193,colour,0.5
76,70,1,1,2,25,75,280.1338209421374,281.64064375078306,"[66, 0, 188]",188,l,0.9895473003853112,colour,0.5
76,70,1,1,2,26,76,282.1493869575206,284.1765746101737,"[37, 0, 217]",217,a,1.5102000467013568,colour,0.5
76,70,1,1,2,27,77,284.68599405209534,285.9286175931338,"[47, 0, 207]",207,a,0.7249837242998183,colour,0.5
76,70,1,1,2,28,78,286.43773377290927,287.744580763625,"[42, 0, 212]",212,a,0.7900586712639779,colour,0.5
76,70,1,1,2,29,79,288.2533814718481,289.75259673176333,"[97, 0, 157]",157,l,0.9813359840773046,colour,0.5
76,70,1,1,2,30,80,290.261491963407,291.6005926609505,"[11, 0, 243]",243,a,0.8216420505195856,colour,0.5
76,70,1,1,2,31,81,292.10958477901295,293.4246348151937,"[40, 0, 214]",214,a,0.7987567824311554,colour,0.5
76,70,1,1,2,32,82,293.93409876176156,295.504798828857,"[76, 0, 178]",178,l,1.0544769179541618,colour,0.5
76,70,1,1,2,33,83,296.01443173596635,297.2887642933056,"[89, 0, 165]",165,l,0.7548184229526669,colour,0.5
76,70,1,1,2,34,84,297.798188067507,299.2406239795964,"[28, 0, 226]",226,a,0.9250851792749017,colour,0.5
76,70,1,1,2,35,85,299.74919980135746,301.0486436500214,"[39, 0, 215]",215,a,0.7812439815606922,colour,0.5
76,70,1,1,2,36,86,301.55775667889975,302.9447038802318,"[30, 0, 224]",224,a,0.8690407501999289,colour,0.5
76,70,1,1,2,37,87,303.4535869024694,305.0326030491851,"[9, 0, 245]",245,a,1.0623605535365641,colour,0.5
76,70,1,1,2,38,88,305.54154672380537,306.86461075907573,"[5, 0, 249]",249,a,0.8068038646597415,colour,0.5
76,70,1,1,2,39,89,307.37338586733676,308.75261760572903,"[45, 0, 209]",209,a,0.8618991223629564,colour,0.5
76,70,1,1,2,40,90,309.26178459171206,310.7686235480942,"[74, 0, 180]",180,l,0.9890581425279379,colour,0.5
76,70,1,1,2,41,91,311.27853293553926,312.5446529951878,"[67, 0, 187]",187,l,0.7495215744711459,colour,0.5
76,70,1,1,2,42,92,313.0534997836221,314.5607061991468,"[72, 0, 182]",182,l,0.9901018370874226,colour,0.5
76,70,1,1,2,43,93,315.0698369513266,316.44065848062746,"[33, 0, 221]",221,a,0.854475500062108,colour,0.5
76,70,1,1,2,44,94,316.949500936782,318.38462823000737,"[87, 0, 167]",167,l,0.9171168664470315,colour,0.5
76,70,1,1,2,45,95,318.89358096336946,320.08879320160486,"[50, 0, 204]",204,a,0.6791103940922767,colour,0.5
76,70,1,1,2,46,96,320.5969783270266,321.8966474561021,"[51, 0, 203]",203,a,0.7823755040299147,colour,0.5
76,70,1,1,2,47,97,322.4051437205635,323.74466898548417,"[3, 0, 251]",251,a,0.8229118133895099,colour,0.5
76,70,1,1,2,48,98,324.2549387430772,325.9206902405713,"[41, 0, 213]",213,a,1.1488178486470133,colour,0.5
76,70,1,1,2,49,99,326.42941296705976,327.7526892859023,"[92, 0, 162]",162,l,0.8069417111109942,colour,0.5
76,70,1,1,2,50,100,328.2615352864377,329.50493864458986,"[82, 0, 172]",172,l,0.7256276642438024,colour,0.5
76,70,1,1,3,1,101,336.0780451167375,353.2647660134826,"[88, 0, 166]",166,a,16.667748695705086,colour,0.5
76,70,1,1,3,2,102,353.774424520554,355.7767942980863,"[4, 0, 250]",250,a,1.4854420362971723,colour,0.5
76,70,1,1,3,3,103,356.2867300733924,357.7367195773404,"[20, 0, 234]",234,a,0.9320117665920407,colour,0.5
76,70,1,1,3,4,104,358.24661714956164,360.26470575481653,"[82, 0, 172]",172,l,1.500652801245451,colour,0.5
76,70,1,1,3,5,105,360.7745548840612,361.5367362764664,"[5, 0, 249]",249,a,0.24578573857434094,colour,0.5
76,70,1,1,3,6,106,362.04577841307037,363.2647463211324,"[97, 0, 157]",157,l,0.7017577786464244,colour,0.5
76,70,1,1,3,7,107,363.77377388533205,365.0008026601281,"[2, 0, 252]",252,a,0.7097768974490464,colour,0.5
76,70,1,1,3,8,108,365.50900787184946,366.76075645396486,"[74, 0, 180]",180,l,0.734054020838812,colour,0.5
76,70,1,1,3,9,109,367.2696709842421,368.6007718613837,"[92, 0, 162]",162,l,0.8143491856753826,colour,0.5
76,70,1,1,3,10,110,369.11015191860497,370.5848273590673,"[16, 0, 238]",238,a,0.9573617291171104,colour,0.5
76,70,1,1,3,11,111,371.0936044366099,372.7447390900925,"[54, 0, 200]",200,a,1.133809520630166,colour,0.5
76,70,1,1,3,12,112,373.2534543336369,374.7927848803811,"[0, 0, 254]",254,a,1.0220991494134068,colour,0.5
76,70,1,1,3,13,113,375.3016415149905,376.75275860284455,"[64, 0, 190]",190,l,0.933703733375296,colour,0.5
76,70,1,1,3,14,114,377.2622323958203,378.72077980125323,"[90, 0, 164]",164,l,0.9412329064216465,colour,0.5
76,70,1,1,3,15,115,379.2300952677615,380.6488534917589,"[27, 0, 227]",227,a,0.9006012862082571,colour,0.5
76,70,1,1,3,16,116,381.1574497933034,382.7608352233656,"[26, 0, 228]",228,a,1.0854797665961087,colour,0.5
76,70,1,1,3,17,117,383.2699080801103,386.56878203200176,"[62, 0, 192]",192,l,2.782260500593111,colour,0.5
76,70,1,1,3,18,118,387.07813648926094,388.4648032714613,"[9, 0, 245]",245,a,0.8704408763442189,colour,0.5
76,70,1,1,3,19,119,388.97387770330533,390.8328147025313,"[69, 0, 185]",185,l,1.3428615427110344,colour,0.5
76,70,1,1,3,20,120,391.3426331114024,393.5288345240988,"[71, 0, 183]",183,l,1.6707045175135136,colour,0.5
76,70,1,1,3,21,121,394.03828114131466,395.5287904131692,"[42, 0, 212]",212,a,0.9728044704534113,colour,0.5
76,70,1,1,3,22,122,396.0380294730421,397.4009713055566,"[89, 0, 165]",165,l,0.8460542634129524,colour,0.5
76,70,1,1,3,23,123,397.91006424836814,399.5928563242778,"[70, 0, 184]",184,l,1.166638637892902,colour,0.5
76,70,1,1,3,24,124,400.101874436019,401.84080388909206,"[17, 0, 237]",237,a,1.2218457483686507,colour,0.5
76,70,1,1,3,25,125,402.3499070717953,403.8088337520603,"[7, 0, 247]",247,a,0.9417240337934345,colour,0.5
76,70,1,1,3,26,126,404.3179085778538,405.8328564502299,"[28, 0, 226]",226,a,0.9980847220867872,colour,0.5
76,70,1,1,3,27,127,406.34226604597643,407.83284699800424,"[44, 0, 210]",210,a,0.9743633167818189,colour,0.5
76,70,1,1,3,28,128,408.34171269088984,409.95283445785753,"[96, 0, 158]",158,l,1.0940459391567856,colour,0.5
76,70,1,1,3,29,129,410.4631475387141,411.8168658679351,"[10, 0, 244]",244,a,0.8366113875526935,colour,0.5
76,70,1,1,3,30,130,412.3258473519236,414.00086528179236,"[75, 0, 179]",179,l,1.1583993583917618,colour,0.5
76,70,1,1,3,31,131,414.50935012474656,415.85685827443376,"[41, 0, 213]",213,a,0.8309088766109198,colour,0.5
76,70,1,1,3,32,132,416.3659185280558,417.7768644026946,"[14, 0, 240]",240,a,0.8940555488225073,colour,0.5
76,70,1,1,3,33,133,418.28586518531665,419.7448867827188,"[15, 0, 239]",239,a,0.9427464604377747,colour,0.5
76,70,1,1,3,34,134,420.25369300483726,421.6409186560195,"[18, 0, 236]",236,a,0.8700324569363147,colour,0.5
76,70,1,1,3,35,135,422.1503731503617,423.68893530149944,"[85, 0, 169]",169,l,1.0220700046047568,colour,0.5
76,70,1,1,3,36,136,424.19824131554924,428.9928993321955,"[58, 0, 196]",196,a,4.275369162438437,colour,0.5
76,70,1,1,3,37,137,429.5016523851082,430.8168824093882,"[67, 0, 187]",187,l,0.7978682636748999,colour,0.5
76,70,1,1,3,38,138,431.326314848382,432.72090819547884,"[45, 0, 209]",209,a,0.8756179951597005,colour,0.5
76,70,1,1,3,39,139,433.23007360612974,434.67290690983646,"[11, 0, 243]",243,a,0.9263647880870849,colour,0.5
76,70,1,1,3,40,140,435.1828580452129,436.5450031252112,"[13, 0, 241]",241,a,0.8442311456892639,colour,0.5
76,70,1,1,3,41,141,437.0541972867213,438.34493081481196,"[93, 0, 161]",161,l,0.7743236958049238,colour,0.5
76,70,1,1,3,42,142,438.8543270197697,440.3692075444851,"[72, 0, 182]",182,l,0.9976530657149851,colour,0.5
76,70,1,1,3,43,143,440.8786332879681,442.2728887142148,"[22, 0, 232]",232,a,0.8762851720675826,colour,0.5
76,70,1,1,3,44,144,442.7827374492772,444.2249413856771,"[98, 0, 156]",156,l,0.925874842563644,colour,0.5
76,70,1,1,3,45,145,444.73407095624134,446.01695235678926,"[79, 0, 175]",175,l,0.7666814886033535,colour,0.5
76,70,1,1,3,46,146,446.526282395469,447.9209730227012,"[84, 0, 170]",170,l,0.8784233673941344,colour,0.5
76,70,1,1,3,47,147,448.4307004529983,449.7050432502292,"[73, 0, 181]",181,l,0.7575273024849594,colour,0.5
76,70,1,1,3,48,148,450.21420235931873,451.5929492721334,"[6, 0, 248]",248,a,0.8612752687186003,colour,0.5
76,70,1,1,3,49,149,452.10178542672656,453.5369379261974,"[95, 0, 159]",159,l,0.9161287045571953,colour,0.5
76,70,1,1,3,50,150,454.0467850859277,455.33694832376204,"[30, 0, 224]",224,a,0.7728117171209306,colour,0.5
76,70,1,1,4,1,151,464.50911972438917,470.98504365980625,"[68, 0, 186]",186,l,5.957623637281358,colour,0.5
76,70,1,1,4,2,152,471.4940909163561,472.7609707068186,"[84, 0, 170]",170,l,0.7499815877526999,colour,0.5
76,70,1,1,4,3,153,473.2694252235815,474.8811594224535,"[80, 0, 174]",174,l,1.0951309874653816,colour,0.5
76,70,1,1,4,4,154,475.3907454616856,476.6969591465313,"[17, 0, 237]",237,a,0.7900988436304033,colour,0.5
76,70,1,1,4,5,155,477.20577521505766,478.55294701922685,"[42, 0, 212]",212,a,0.8310097015928477,colour,0.5
76,70,1,1,4,6,156,479.062159297755,480.9689943944104,"[90, 0, 164]",164,l,1.3904772519599646,colour,0.5
76,70,1,1,4,7,157,481.47866747388616,482.9369695126079,"[65, 0, 189]",189,l,0.9420907052699476,colour,0.5
76,70,1,1,4,8,158,483.44614673871547,484.85703944414854,"[39, 0, 215]",215,a,0.8937920653261244,colour,0.5
76,70,1,1,4,9,159,485.36480906093493,487.2170223039575,"[44, 0, 210]",210,a,1.3335663594771177,colour,0.5
76,70,1,1,4,10,160,487.72634801035747,489.3610348252114,"[49, 0, 205]",205,a,1.1183352717198431,colour,0.5
76,70,1,1,4,11,161,489.8698394719977,491.6170617674943,"[3, 0, 251]",251,a,1.2302819511387497,colour,0.5
76,70,1,1,4,12,162,492.12615943630226,493.60103180026636,"[18, 0, 236]",236,a,0.957770936191082,colour,0.5
76,70,1,1,4,13,163,494.1099242749624,495.62498163687997,"[1, 0, 253]",253,a,0.9989133761264384,colour,0.5
76,70,1,1,4,14,164,496.1334912921302,498.18500017910264,"[45, 0, 209]",209,a,1.5336587559431791,colour,0.5
76,70,1,1,4,15,165,498.6937398412265,501.225031576585,"[14, 0, 240]",240,a,2.01432972936891,colour,0.5
76,70,1,1,4,16,166,501.734458895633,503.71304464619607,"[63, 0, 191]",191,l,1.4599227195139974,colour,0.5
76,70,1,1,4,17,167,504.22281697485596,505.6490291473456,"[10, 0, 244]",244,a,0.910027620382607,colour,0.5
76,70,1,1,4,18,168,506.15748720872216,507.6730597226415,"[29, 0, 225]",225,a,0.999536442104727,colour,0.5
76,70,1,1,4,19,169,508.18306048261,509.42506253300235,"[93, 0, 161]",161,l,0.7248076745308936,colour,0.5
76,70,1,1,4,20,170,509.93412160500884,511.3690681224689,"[16, 0, 238]",238,a,0.9175296181347221,colour,0.5
76,70,1,1,4,21,171,511.87813231442124,513.3370688408613,"[87, 0, 167]",167,l,0.941949314204976,colour,0.5
76,70,1,1,4,22,172,513.8470113116782,515.1691017569974,"[60, 0, 194]",194,l,0.8049752328079194,colour,0.5
76,70,1,1,4,23,173,515.6783947742078,517.5851018705871,"[85, 0, 169]",169,l,1.3904339289292693,colour,0.5
76,70,1,1,4,24,174,518.094006948173,519.4410550845787,"[70, 0, 184]",184,l,0.8308253812137991,colour,0.5
76,70,1,1,4,25,175,519.9506509699859,521.4170855558477,"[2, 0, 252]",252,a,0.9500290856231004,colour,0.5
76,70,1,1,4,26,176,521.9263033480383,523.3771427739412,"[34, 0, 220]",220,a,0.9342665406875312,colour,0.5
76,70,1,1,4,27,177,523.8861317411065,526.05708930525,"[57, 0, 197]",197,l,1.6540077675599605,colour,0.5
76,70,1,1,4,28,178,526.5657017545309,528.3931325685699,"[32, 0, 222]",222,a,1.310919762821868,colour,0.5
76,70,1,1,4,29,179,528.9021652527153,530.3770679428708,"[13, 0, 241]",241,a,0.958941055694595,colour,0.5
76,70,1,1,4,30,180,530.8866606776137,532.4892131213564,"[53, 0, 201]",201,a,1.085606979439035,colour,0.5
76,70,1,1,4,31,181,532.9982765254099,534.3610828744713,"[30, 0, 224]",224,a,0.844905411824584,colour,0.5
76,70,1,1,4,32,182,534.8697449485771,536.2170975287445,"[88, 0, 166]",166,l,0.8309238429646939,colour,0.5
76,70,1,1,4,33,183,536.7262463977095,538.0491064202506,"[92, 0, 162]",162,l,0.8066191503312439,colour,0.5
76,70,1,1,4,34,184,538.5584337019827,540.6331248176284,"[9, 0, 245]",245,a,1.5586448039393872,colour,0.5
76,70,1,1,4,35,185,541.1420007506385,542.5131231790874,"[7, 0, 247]",247,a,0.8548394145909697,colour,0.5
76,70,1,1,4,36,186,543.0224000485614,549.1291633073706,"[54, 0, 200]",200,a,5.590201007667929,colour,0.5
76,70,1,1,4,37,187,549.6385303677525,550.857339161681,"[48, 0, 206]",206,a,0.7031047353520989,colour,0.5
76,70,1,1,4,38,188,551.3654593024403,552.6251112124883,"[78, 0, 176]",176,l,0.7408002261072397,colour,0.5
76,70,1,1,4,39,189,553.1337153911591,554.0011323101353,"[28, 0, 226]",226,a,0.35017449385486543,colour,0.5
76,70,1,1,4,40,190,554.510251640575,556.6972249932587,"[59, 0, 195]",195,a,1.6698581401724368,colour,0.5
76,70,1,1,4,41,191,557.206263585249,558.5611729079392,"[51, 0, 203]",203,a,0.8374144416302443,colour,0.5
76,70,1,1,4,42,192,559.0708003011532,560.1771775898524,"[73, 0, 181]",181,l,0.5898607238195837,colour,0.5
76,70,1,1,4,43,193,560.6862591111567,562.5052285159472,"[74, 0, 180]",180,l,1.3006777712143958,colour,0.5
76,70,1,1,4,44,194,563.0145065668039,564.5371726590674,"[79, 0, 175]",175,l,1.004851407604292,colour,0.5
76,70,1,1,4,45,195,565.0461297244765,566.7371996769216,"[81, 0, 173]",173,l,1.17393977381289,colour,0.5
76,70,1,1,4,46,196,567.2463516967837,568.6731711812317,"[77, 0, 177]",177,l,0.909772407496348,colour,0.5
76,70,1,1,4,47,197,569.1817655137274,570.3772089402191,"[21, 0, 233]",233,a,0.6771734545473009,colour,0.5
76,70,1,1,4,48,198,570.8865291327238,572.169197068084,"[31, 0, 223]",223,a,0.7657453140709549,colour,0.5
76,70,1,1,4,49,199,572.6779883240815,573.985206712503,"[36, 0, 218]",218,a,0.789838117081672,colour,0.5
76,70,1,1,4,50,200,574.4943303754553,575.8332018540241,"[67, 0, 187]",187,l,0.8222119470592588,colour,0.5
76,70,1,1,5,1,201,588.9972316494677,590.2252265310381,"[87, 0, 167]",167,l,0.7110198787413538,colour,0.4
76,70,1,1,5,2,202,590.7352501342539,591.6412140412722,"[43, 0, 211]",211,a,0.3889869349077344,colour,0.4
76,70,1,1,5,3,203,592.1504164736252,592.9532318494748,"[83, 0, 171]",171,l,0.28561351727694273,colour,0.4
76,70,1,1,5,4,204,593.4627150946762,594.8092669837642,"[71, 0, 183]",183,l,0.8292878025677055,colour,0.4
76,70,1,1,5,5,205,595.3183721357491,596.5692329867743,"[32, 0, 222]",222,a,0.7333498222287744,colour,0.4
76,70,1,1,5,6,206,597.0786658197176,598.5852338091936,"[19, 0, 235]",235,a,0.9902581942733377,colour,0.4
76,70,1,1,5,7,207,599.0942881549709,600.8652531234547,"[4, 0, 250]",250,a,1.2549312599003315,colour,0.4
76,70,1,1,5,8,208,601.3745232974179,602.7932586784009,"[6, 0, 248]",248,a,0.9017316272947937,colour,0.4
76,70,1,1,5,9,209,603.3023484703153,604.7293420352507,"[2, 0, 252]",252,a,0.9089535996317863,colour,0.4
76,70,1,1,5,10,210,605.2389142897446,606.5692566176876,"[61, 0, 193]",193,l,0.8139998433180153,colour,0.4
76,70,1,1,5,11,211,607.0789486018475,608.5854913850781,"[62, 0, 192]",192,l,0.9897213806398213,colour,0.4
76,70,1,1,5,12,212,609.094934457913,610.5852751631755,"[21, 0, 233]",233,a,0.9736981091555208,colour,0.4
76,70,1,1,5,13,213,611.0946048079059,612.6332543932367,"[42, 0, 212]",212,a,1.0209565991535783,colour,0.4
76,70,1,1,5,14,214,613.142642721301,615.6812678880524,"[55, 0, 199]",199,a,2.022631630534306,colour,0.4
76,70,1,1,5,15,215,616.1912788881455,617.4972988003865,"[13, 0, 241]",241,a,0.7898747448343784,colour,0.4
76,70,1,1,5,16,216,618.0054969226476,619.7293822076172,"[15, 0, 239]",239,a,1.2061308587435633,colour,0.4
76,70,1,1,5,17,217,620.2382404175587,622.4893990170676,"[20, 0, 234]",234,a,1.7350256415084004,colour,0.4
76,70,1,1,5,18,218,622.9992213645019,624.4572752797976,"[35, 0, 219]",219,a,0.9390911664813757,colour,0.4
76,70,1,1,5,19,219,624.9662323452067,626.6092907721177,"[58, 0, 196]",196,l,1.1252827330026776,colour,0.4
76,70,1,1,5,20,220,627.1186960355844,629.0733122571837,"[75, 0, 179]",179,l,1.4377475574146956,colour,0.4
76,70,1,1,5,21,221,629.5829664319754,631.2093403181061,"[59, 0, 195]",195,l,1.1088089004624635,colour,0.4
76,70,1,1,5,22,222,631.7184368055314,635.7853380211163,"[60, 0, 194]",194,l,3.549753707833588,colour,0.4
76,70,1,1,5,23,223,636.2943577084225,638.1933489481453,"[78, 0, 176]",176,l,1.3828496171627194,colour,0.4
76,70,1,1,5,24,224,638.7024639463052,640.2733148566913,"[45, 0, 209]",209,a,1.0533835988026112,colour,0.4
76,70,1,1,5,25,225,640.7818493244704,643.4333282001317,"[23, 0, 231]",231,a,2.133865053066984,colour,0.4
76,70,1,1,5,26,226,643.9428055377211,646.6733456554357,"[82, 0, 172]",172,l,2.2143390241544694,colour,0.4
76,70,1,1,5,27,227,647.1831061688717,648.785332507221,"[96, 0, 158]",158,l,1.0845227183308452,colour,0.4
76,70,1,1,5,28,228,649.2943683422636,651.2013641283847,"[49, 0, 205]",205,a,1.3911846010014415,colour,0.4
76,70,1,1,5,29,229,651.71048464044,653.6334426521789,"[99, 0, 155]",155,l,1.4064390836283565,colour,0.4
76,70,1,1,5,30,230,654.1424832132179,656.1853904814925,"[53, 0, 201]",201,a,1.5273587792180479,colour,0.4
76,70,1,1,5,31,231,656.6945558921434,658.8094083748292,"[97, 0, 157]",157,l,1.598176015773788,colour,0.4
76,70,1,1,5,32,232,659.3180231873412,661.3613975581247,"[91, 0, 163]",163,l,1.5269271228462458,colour,0.4
76,70,1,1,5,33,233,661.8701998419128,663.337423697114,"[29, 0, 225]",225,a,0.9505753514822572,colour,0.4
76,70,1,1,5,34,234,663.8466789047234,666.3454180036206,"[72, 0, 182]",182,l,1.9819385700393468,colour,0.4
76,70,1,1,5,35,235,666.8544924354646,670.0974078171421,"[57, 0, 197]",197,l,2.726740675745532,colour,0.4
76,70,1,1,5,36,236,670.6065744094085,673.0814062070567,"[93, 0, 161]",161,l,1.9584081806242466,colour,0.4
76,70,1,1,5,37,237,673.5908122581895,674.9374086521566,"[84, 0, 170]",170,l,0.8302913247607648,colour,0.4
76,70,1,1,5,38,238,675.4468198232353,677.1454181610607,"[86, 0, 168]",168,l,1.182104222010821,colour,0.4
76,70,1,1,5,39,239,677.6544079158921,679.6895028350409,"[67, 0, 187]",187,l,1.5183448027819395,colour,0.4
76,70,1,1,5,40,240,680.1987092057243,681.6415220296476,"[33, 0, 221]",221,a,0.9236582715529948,colour,0.4
76,70,1,1,5,41,241,682.1506354524754,683.8094579996541,"[77, 0, 177]",177,l,1.141568700550124,colour,0.4
76,70,1,1,5,42,242,684.3185064375866,685.873442778131,"[18, 0, 236]",236,a,1.0378518481738865,colour,0.4
76,70,1,1,5,43,243,686.3824943669606,687.697474298533,"[12, 0, 242]",242,a,0.7966339471749961,colour,0.4
76,70,1,1,5,44,244,688.206372680841,689.6734649911523,"[88, 0, 166]",166,l,0.9503870925400406,colour,0.4
76,70,1,1,5,45,245,690.1825193369295,691.5854606651701,"[39, 0, 215]",215,a,0.8838115883991122,colour,0.4
76,70,1,1,5,46,246,692.095177461626,695.1774607659318,"[65, 0, 189]",189,l,2.566397682297975,colour,0.4
76,70,1,1,5,47,247,695.6864847855177,698.641727617709,"[81, 0, 173]",173,l,2.4379562963731587,colour,0.4
76,70,1,1,5,48,248,699.1509635269176,701.0014351785649,"[95, 0, 159]",159,l,1.3332855466287583,colour,0.4
76,70,1,1,5,49,249,701.5102075298782,703.6095542558469,"[92, 0, 162]",162,l,1.5831393308471888,colour,0.4
76,70,1,1,5,50,250,704.1189307684544,705.401493546553,"[54, 0, 200]",200,a,0.7655286982189864,colour,0.4
76,70,1,1,6,1,251,721.5419980725273,723.0896179170813,"[95, 0, 159]",159,l,1.0300012957304716,colour,0.28
76,70,1,1,6,2,252,723.5988841527142,726.2255112822168,"[72, 0, 182]",182,l,2.10920983646065,colour,0.28
76,70,1,1,6,3,253,726.7345754741691,728.2095951370429,"[47, 0, 207]",207,a,0.9575523510575294,colour,0.28
76,70,1,1,6,4,254,728.718104792526,730.2335181920789,"[63, 0, 191]",191,l,0.9965790449641645,colour,0.28
76,70,1,1,6,5,255,730.7427367719356,732.1535483449697,"[98, 0, 156]",156,l,0.8950771882664412,colour,0.28
76,70,1,1,6,6,256,732.6625908752903,734.1695408965461,"[75, 0, 179]",179,l,0.9905397950205952,colour,0.28
76,70,1,1,6,7,257,734.6785282881465,736.4575730280485,"[84, 0, 170]",170,l,1.262921234127134,colour,0.28
76,70,1,1,6,8,258,736.9676454684231,738.305533117149,"[11, 0, 243]",243,a,0.8205605465918779,colour,0.28
76,70,1,1,6,9,259,738.8147851740941,740.5135489278473,"[4, 0, 250]",250,a,1.1812164911534637,colour,0.28
76,70,1,1,6,10,260,741.0231475702021,742.7215678892098,"[97, 0, 157]",157,l,1.1821660562418401,colour,0.28
76,70,1,1,6,11,261,743.2306927335449,744.8896980257705,"[44, 0, 210]",210,a,1.141823913436383,colour,0.28
76,70,1,1,6,12,262,745.399324237369,747.5135595616885,"[73, 0, 181]",181,l,1.5956144349183887,colour,0.28
76,70,1,1,6,13,263,748.022595396731,749.9135407358408,"[80, 0, 174]",174,l,1.3746828055009246,colour,0.28
76,70,1,1,6,14,264,750.4230003501289,752.2655647352803,"[91, 0, 163]",163,l,1.3259363614488393,colour,0.28
76,70,1,1,6,15,265,752.7748975309078,754.5215467789676,"[94, 0, 160]",160,l,1.23077859217301,colour,0.28
76,70,1,1,6,16,266,755.0314033911563,757.177582858596,"[74, 0, 180]",180,l,1.6295506560709327,colour,0.28
76,70,1,1,6,17,267,757.6863303973805,759.385608909186,"[83, 0, 171]",171,l,1.1820813789963722,colour,0.28
76,70,1,1,6,18,268,759.8950921543874,761.2495784852654,"[31, 0, 223]",223,a,0.8371883735526353,colour,0.28
76,70,1,1,6,19,269,761.7587939144578,763.2816431454848,"[77, 0, 177]",177,l,1.0070490736979991,colour,0.28
76,70,1,1,6,20,270,763.7908377007116,766.1215919926763,"[52, 0, 202]",202,a,1.8137741689570248,colour,0.28
76,70,1,1,6,21,271,766.6314848386683,771.9616412706673,"[60, 0, 194]",194,a,4.812162152957171,colour,0.28
76,70,1,1,6,22,272,772.4705471361522,773.8576278516557,"[12, 0, 242]",242,a,0.8704574180301279,colour,0.28
76,70,1,1,6,23,273,774.366655809572,775.7536384570412,"[85, 0, 169]",169,l,0.8693814277648926,colour,0.28
76,70,1,1,6,24,274,776.2635021584574,778.3136250977404,"[61, 0, 193]",193,a,1.5337599746417254,colour,0.28
76,70,1,1,6,25,275,778.8221725625917,780.5056491445284,"[57, 0, 197]",197,a,1.1662117077503353,colour,0.28
76,70,1,1,6,26,276,781.0147956504952,784.1857024084311,"[71, 0, 183]",183,l,2.654213749570772,colour,0.28
76,70,1,1,6,27,277,784.694825677434,786.449648826383,"[89, 0, 165]",165,l,1.2389450098853558,colour,0.28
76,70,1,1,6,28,278,786.9587717014365,789.0016372220125,"[99, 0, 155]",155,l,1.526354469358921,colour,0.28
76,70,1,1,6,29,279,789.5108967621345,790.8976781538222,"[42, 0, 212]",212,a,0.8705602120608091,colour,0.28
76,70,1,1,6,30,280,791.4069790476933,793.249671433121,"[86, 0, 168]",168,l,1.3250127902720124,colour,0.28
76,70,1,1,6,31,281,793.7590853611473,795.465677218046,"[9, 0, 245]",245,a,1.1905770529992878,colour,0.28
76,70,1,1,6,32,282,795.9745129786897,797.4016758978833,"[51, 0, 203]",203,a,0.9108054684475064,colour,0.28
76,70,1,1,6,33,283,797.9106432034168,799.7776883307379,"[93, 0, 161]",161,l,1.350441522197798,colour,0.28
76,70,1,1,6,34,284,800.2868856429122,802.8097573232371,"[79, 0, 175]",175,l,2.005567815154791,colour,0.28
76,70,1,1,6,35,285,803.3188352999277,806.5457238652743,"[67, 0, 187]",187,l,2.710295988013968,colour,0.28
76,70,1,1,6,36,286,807.0545100010931,809.257681887364,"[88, 0, 166]",166,l,1.686589548829943,colour,0.28
76,70,1,1,6,37,287,809.7668295749463,811.5937105782796,"[82, 0, 172]",172,l,1.3094967934302986,colour,0.28
76,70,1,1,6,38,288,812.1029141922481,813.5697371109854,"[56, 0, 198]",198,a,0.9488699936773628,colour,0.28
76,70,1,1,6,39,289,814.0794838399161,816.0497609940358,"[78, 0, 176]",176,l,1.4543222149368376,colour,0.28
76,70,1,1,6,40,290,816.5596345413942,818.4257147437893,"[33, 0, 221]",221,a,1.349916917970404,colour,0.28
76,70,1,1,6,41,291,818.9348616434727,820.4899819106795,"[69, 0, 185]",185,l,1.0378498788923025,colour,0.28
76,70,1,1,6,42,292,820.9987830128521,822.8417239156552,"[38, 0, 216]",216,a,1.3260824787430465,colour,0.28
76,70,1,1,6,43,293,823.350813313853,824.8738500159234,"[90, 0, 164]",164,l,1.0060459454543889,colour,0.28
76,70,1,1,6,44,294,825.3829323248938,826.8417534541804,"[26, 0, 228]",228,a,0.9397358940914273,colour,0.28
76,70,1,1,6,45,295,827.3508597877808,829.4177519448567,"[41, 0, 213]",213,a,1.550003012875095,colour,0.28
76,70,1,1,6,46,296,829.9271465744823,833.2738410362508,"[66, 0, 188]",188,l,2.8289116786327213,colour,0.28
76,70,1,1,6,47,297,833.7829552467447,835.9537883552257,"[43, 0, 211]",211,a,1.652153141796589,colour,0.28
76,70,1,1,6,48,298,836.4630163875408,837.9617483972106,"[87, 0, 167]",167,l,0.9826581287197769,colour,0.28
76,70,1,1,6,49,299,838.4708677276503,840.1297863733489,"[21, 0, 233]",233,a,1.1411728842649609,colour,0.28
76,70,1,1,6,50,300,840.6390612735413,842.1057747029699,"[55, 0, 199]",199,a,0.9503847295418382,colour,0.28
76,70,1,1,7,1,301,854.453613684047,856.6578355664387,"[74, 0, 180]",180,l,1.6876037048641592,colour,0.14
76,70,1,1,7,2,302,857.1663905142341,857.9618346495554,"[52, 0, 202]",202,a,0.27642349107190967,colour,0.14
76,70,1,1,7,3,303,858.4711501160637,859.8097844987642,"[59, 0, 195]",195,a,0.8224963047541678,colour,0.14
76,70,1,1,7,4,304,860.3185737854801,861.5378240819555,"[79, 0, 175]",175,l,0.7027656331192702,colour,0.14
76,70,1,1,7,5,305,862.0469528648537,866.9378552746493,"[58, 0, 196]",196,l,4.373589092399925,colour,0.14
76,70,1,1,7,6,306,867.446924980497,869.3938793023117,"[97, 0, 157]",157,l,1.4296555768232793,colour,0.14
76,70,1,1,7,7,307,869.9028887497261,871.82589323516,"[86, 0, 168]",168,l,1.4058451622258872,colour,0.14
76,70,1,1,7,8,308,872.3359767030925,874.1538898102008,"[92, 0, 162]",162,l,1.3002232718281448,colour,0.14
76,70,1,1,7,9,309,874.6629894485231,876.3938218008261,"[85, 0, 169]",169,l,1.213166935602203,colour,0.14
76,70,1,1,7,10,310,876.9026173891034,878.4181654842105,"[36, 0, 218]",218,a,0.9985723046120256,colour,0.14
76,70,1,1,7,11,311,878.9275112769101,888.0659043889027,"[67, 0, 187]",187,l,8.622205409221351,colour,0.14
76,70,1,1,7,12,312,888.5759961276781,889.794187763473,"[51, 0, 203]",203,a,0.7017487201374024,colour,0.14
76,70,1,1,7,13,313,890.3034410018008,891.5778928948566,"[27, 0, 227]",227,a,0.7563784506637603,colour,0.14
76,70,1,1,7,14,314,892.0866278307512,893.3538912280928,"[94, 0, 160]",160,l,0.7499339322093874,colour,0.14
76,70,1,1,7,15,315,893.8629065831192,895.225943332538,"[82, 0, 172]",172,l,0.8464540182612836,colour,0.14
76,70,1,1,7,16,316,895.7338055034634,898.1699489220046,"[72, 0, 182]",182,l,1.9187946550082415,colour,0.14
76,70,1,1,7,17,317,898.6794542225543,902.4579054350033,"[63, 0, 191]",191,l,3.262254451168701,colour,0.14
76,70,1,1,7,18,318,902.9670011347625,904.281904265983,"[28, 0, 226]",226,a,0.7976370754186064,colour,0.14
76,70,1,1,7,19,319,904.7907861068379,906.3618922301102,"[69, 0, 185]",185,l,1.0544438348151743,colour,0.14
76,70,1,1,7,20,320,906.870352654485,908.4339103060775,"[71, 0, 183]",183,l,1.0472175299655646,colour,0.14
76,70,1,1,7,21,321,908.9436578226741,914.6659547225572,"[61, 0, 193]",193,l,5.204933169996366,colour,0.14
76,70,1,1,7,22,322,915.1747778800782,918.057949073147,"[66, 0, 188]",188,a,2.366751908324659,colour,0.14
76,70,1,1,7,23,323,918.5667619907763,920.0419454940129,"[98, 0, 156]",156,l,0.9566059368662536,colour,0.14
76,70,1,1,7,24,324,920.5506831866223,922.4499875346664,"[77, 0, 177]",177,l,1.3825857394840568,colour,0.14
76,70,1,1,7,25,325,922.9590745698661,924.377982061822,"[41, 0, 213]",213,a,0.9028950512874871,colour,0.14
76,70,1,1,7,26,326,924.8871175399981,927.9459724614862,"[73, 0, 181]",181,l,2.54162037326023,colour,0.14
76,70,1,1,7,27,327,928.4545589168556,929.7780124668498,"[57, 0, 197]",197,a,0.8071902284864336,colour,0.14
76,70,1,1,7,28,328,930.2871286466252,932.241953607183,"[64, 0, 190]",190,a,1.437636886490509,colour,0.14
76,70,1,1,7,29,329,932.7510760885198,934.56998208398,"[65, 0, 189]",189,l,1.3021531223785132,colour,0.14
76,70,1,1,7,30,330,935.0797937973402,937.2820196631365,"[88, 0, 166]",166,l,1.6852603151928633,colour,0.14
76,70,1,1,7,31,331,937.7917703303974,940.3220120698679,"[99, 0, 155]",155,l,2.013560546329245,colour,0.14
76,70,1,1,7,32,332,940.8319458758924,943.3299933795352,"[95, 0, 159]",159,l,1.9810721068643034,colour,0.14
76,70,1,1,7,33,333,943.838830715511,945.961969739059,"[75, 0, 179]",179,l,1.6057843521703035,colour,0.14
76,70,1,1,7,34,334,946.4709039616864,948.538007220719,"[83, 0, 171]",171,l,1.550678460393101,colour,0.14
76,70,1,1,7,35,335,949.047977654729,950.5860238664318,"[89, 0, 165]",165,l,1.0182410241104662,colour,0.14
76,70,1,1,7,36,336,951.0952420525718,953.0741338222288,"[96, 0, 158]",158,l,1.4630179631058127,colour,0.14
76,70,1,1,7,37,337,953.5838521940168,955.0979946490843,"[54, 0, 200]",200,a,0.9957562983036041,colour,0.14
76,70,1,1,7,38,338,955.6073313832749,956.9380234472919,"[76, 0, 178]",178,l,0.8137139102909714,colour,0.14
76,70,1,1,7,39,339,957.4470683406107,958.9620240901131,"[80, 0, 174]",174,l,0.9984336704947054,colour,0.14
76,70,1,1,7,40,340,959.4716778709553,960.9060202271212,"[5, 0, 249]",249,a,0.917420128826052,colour,0.14
76,70,1,1,7,41,341,961.4152730717324,963.0180945130996,"[50, 0, 204]",204,a,1.08672786783427,colour,0.14
76,70,1,1,7,42,342,963.5268318119925,964.9300949131139,"[0, 0, 254]",254,a,0.8852625205181539,colour,0.14
76,70,1,1,7,43,343,965.4390283478424,967.1620479570702,"[87, 0, 167]",167,l,1.2048870897851884,colour,0.14
76,70,1,1,7,44,344,967.6701019315515,969.1300797895528,"[55, 0, 199]",199,a,0.9432277416344732,colour,0.14
76,70,1,1,7,45,345,969.6391932123806,971.0420478940941,"[53, 0, 201]",201,a,0.8865677295252681,colour,0.14
76,70,1,1,7,46,346,971.5511506830808,972.9862019638531,"[45, 0, 209]",209,a,0.9175930274650455,colour,0.14
76,70,1,1,7,47,347,973.4949632876087,974.9460658030584,"[93, 0, 161]",161,l,0.9347297046333551,colour,0.14
76,70,1,1,7,48,348,975.4547365419567,976.818042289,"[81, 0, 173]",173,l,0.846528455382213,colour,0.14
76,70,1,1,7,49,349,977.3276385681238,981.0902453155722,"[68, 0, 186]",186,l,3.246563980355859,colour,0.14
76,70,1,1,7,50,350,981.5988309832755,983.4261022892315,"[90, 0, 164]",164,l,1.310504254186526,colour,0.14
76,70,1,1,8,1,351,995.0057840370573,1003.5061249118298,"[52, 0, 202]",202,l,7.983248899225146,colour,0.06
76,70,1,1,8,2,352,1004.0169547197875,1005.7621073492337,"[97, 0, 157]",157,l,1.2265077151823789,colour,0.06
76,70,1,1,8,3,353,1006.2708481927402,1007.6261655408889,"[87, 0, 167]",167,l,0.8380737414117903,colour,0.06
76,70,1,1,8,4,354,1008.1351159112528,1009.6981576231774,"[50, 0, 204]",204,a,1.046154930954799,colour,0.06
76,70,1,1,8,5,355,1010.2074707262218,1011.6742806483526,"[80, 0, 174]",174,l,0.9504465635400265,colour,0.06
76,70,1,1,8,6,356,1012.1832140830811,1013.6261131593492,"[77, 0, 177]",177,l,0.9239390844013542,colour,0.06
76,70,1,1,8,7,357,1014.1357338570524,1015.5861719527747,"[57, 0, 197]",197,a,0.9325962355360389,colour,0.06
76,70,1,1,8,8,358,1016.0952534740791,1017.5141664799303,"[61, 0, 193]",193,a,0.9032703873235732,colour,0.06
76,70,1,1,8,9,359,1018.0232476072852,1019.3461552851368,"[98, 0, 156]",156,l,0.8061615000478923,colour,0.06
76,70,1,1,8,10,360,1019.8554636621848,1021.4021240957081,"[74, 0, 180]",180,l,1.0297145752701908,colour,0.06
76,70,1,1,8,11,361,1021.9113793033175,1023.1621838344727,"[58, 0, 196]",196,a,0.7339591037016362,colour,0.06
76,70,1,1,8,12,362,1023.6707939207554,1025.0101675542537,"[51, 0, 203]",203,a,0.821887023281306,colour,0.06
76,70,1,1,8,13,363,1025.5197134211194,1026.8902899776585,"[90, 0, 164]",164,l,0.8532305497210473,colour,0.06
76,70,1,1,8,14,364,1027.3985294541344,1031.282187835779,"[73, 0, 181]",181,l,3.3671477243769914,colour,0.06
76,70,1,1,8,15,365,1031.7918388599064,1033.2663642447442,"[78, 0, 176]",176,l,0.9578839703463018,colour,0.06
76,70,1,1,8,16,366,1033.7751011496875,1035.0581991660874,"[26, 0, 228]",228,a,0.7665326143614948,colour,0.06
76,70,1,1,8,17,367,1035.566983726574,1037.2742703293916,"[85, 0, 169]",169,l,1.1884959652088583,colour,0.06
76,70,1,1,8,18,368,1037.7833234937862,1039.1541958292946,"[56, 0, 198]",198,a,0.8524397048167884,colour,0.06
76,70,1,1,8,19,369,1039.6633265814744,1041.2182148727588,"[3, 0, 251]",251,a,1.0387009824626148,colour,0.06
76,70,1,1,8,20,370,1041.7272105352022,1043.082347501535,"[92, 0, 162]",162,l,0.8386479704640806,colour,0.06
76,70,1,1,8,21,371,1043.5915916815866,1045.314237136161,"[96, 0, 158]",158,l,1.2055282730143517,colour,0.06
76,70,1,1,8,22,372,1045.8231741155032,1047.450214390643,"[81, 0, 173]",173,l,1.110897864913568,colour,0.06
76,70,1,1,8,23,373,1047.959816971328,1052.6742971898057,"[60, 0, 194]",194,l,4.197711591375992,colour,0.06
76,70,1,1,8,24,374,1053.184356633108,1060.0342666588258,"[69, 0, 185]",185,l,6.331120963441208,colour,0.06
76,70,1,1,8,25,375,1060.5442804158665,1061.6982675064355,"[76, 0, 178]",178,l,0.6376954121515155,colour,0.06
76,70,1,1,8,26,376,1062.2077527206857,1063.5222344358917,"[20, 0, 234]",234,a,0.797196360770613,colour,0.06
76,70,1,1,8,27,377,1064.0318878230173,1065.2502322711516,"[54, 0, 200]",200,a,0.7017833786085248,colour,0.06
76,70,1,1,8,28,378,1065.7600038123783,1067.458281952655,"[64, 0, 190]",190,a,1.1823094163555652,colour,0.06
76,70,1,1,8,29,379,1067.9669712022878,1069.7462624902837,"[55, 0, 199]",199,a,1.2609968977048993,colour,0.06
76,70,1,1,8,30,380,1070.2554814640898,1072.0743602842558,"[59, 0, 195]",195,a,1.3016033119056374,colour,0.06
76,70,1,1,8,31,381,1072.5838451047894,1074.1862904219888,"[94, 0, 160]",160,l,1.0839126494247466,colour,0.06
76,70,1,1,8,32,382,1074.6953534323256,1076.1462771415245,"[66, 0, 188]",188,a,0.9344579502940178,colour,0.06
76,70,1,1,8,33,383,1076.655534712365,1077.9543590396643,"[84, 0, 170]",170,l,0.7821017804089934,colour,0.06
76,70,1,1,8,34,384,1078.4634582838044,1080.14629092603,"[88, 0, 166]",166,l,1.1654673367738724,colour,0.06
76,70,1,1,8,35,385,1080.6554598812945,1082.5223045405,"[75, 0, 179]",179,l,1.3500374350696802,colour,0.06
76,70,1,1,8,36,386,1083.031380547909,1085.4663365178276,"[62, 0, 192]",192,a,1.9189202920533717,colour,0.06
76,70,1,1,8,37,387,1085.9749548749533,1087.618339407025,"[79, 0, 175]",175,l,1.127300017280504,colour,0.06
76,70,1,1,8,38,388,1088.1271728046704,1090.1143231522292,"[63, 0, 191]",191,a,1.4711402696557343,colour,0.06
76,70,1,1,8,39,389,1090.6229923155624,1092.2744199912995,"[68, 0, 186]",186,a,1.1351044895127416,colour,0.06
76,70,1,1,8,40,390,1092.7836720482446,1094.4183045122772,"[95, 0, 159]",159,l,1.1152396341785789,colour,0.06
76,70,1,1,8,41,391,1094.9265534409788,1097.5382951230276,"[82, 0, 172]",172,l,2.0953672959003597,colour,0.06
76,70,1,1,8,42,392,1098.0473825519439,1099.4183710725047,"[72, 0, 182]",182,a,0.8541864166036248,colour,0.06
76,70,1,1,8,43,393,1099.927568384679,1101.554326665355,"[91, 0, 163]",163,l,1.1097761886194348,colour,0.06
76,70,1,1,8,44,394,1102.0635294914246,1104.7863509957679,"[86, 0, 168]",168,l,2.206358896335587,colour,0.06
76,70,1,1,8,45,395,1105.2954557538033,1106.6264270553365,"[65, 0, 189]",189,a,0.8146918322890997,colour,0.06
76,70,1,1,8,46,396,1107.135351431556,1108.450492052827,"[53, 0, 201]",201,a,0.7982113044708967,colour,0.06
76,70,1,1,8,47,397,1108.959674792597,1110.54637804511,"[93, 0, 161]",161,l,1.0705643866676837,colour,0.06
76,70,1,1,8,48,398,1111.055529277306,1112.410357073415,"[70, 0, 184]",184,a,0.8378370394930243,colour,0.06
76,70,1,1,8,49,399,1112.9191069754306,1114.6663950434886,"[67, 0, 187]",187,a,1.2299629349727184,colour,0.06
76,70,1,1,8,50,400,1115.1755813281052,1116.7704328810796,"[71, 0, 183]",183,a,1.0790742388926446,colour,0.06
76,70,1,1,9,1,401,1129.5665091408882,1131.8825339486357,"[74, 0, 180]",180,l,1.7968930986244231,colour,0.06
76,70,1,1,9,2,402,1132.3915516666602,1134.0343922961038,"[96, 0, 158]",158,l,1.1269471305422485,colour,0.06
76,70,1,1,9,3,403,1134.5431150225922,1136.154430168448,"[59, 0, 195]",195,a,1.0951821878552437,colour,0.06
76,70,1,1,9,4,404,1136.6634569447488,1137.9624049400445,"[1, 0, 253]",253,a,0.782682704506442,colour,0.06
76,70,1,1,9,5,405,1138.4717389172874,1140.0664471101481,"[87, 0, 167]",167,l,1.078746558399871,colour,0.06
76,70,1,1,9,6,406,1140.5756062192377,1141.79439453315,"[51, 0, 203]",203,a,0.701703033875674,colour,0.06
76,70,1,1,9,7,407,1142.3035307989921,1143.7384339934215,"[92, 0, 162]",162,l,0.9175449784379452,colour,0.06
76,70,1,1,9,8,408,1144.2475722285453,1145.5704066508915,"[63, 0, 191]",191,a,0.806326522026211,colour,0.06
76,70,1,1,9,9,409,1146.079659101786,1147.7704643888865,"[67, 0, 187]",187,a,1.173484486527741,colour,0.06
76,70,1,1,9,10,410,1148.280302096391,1149.8424627725035,"[71, 0, 183]",183,a,1.0459666717797518,colour,0.06
76,70,1,1,9,11,411,1150.3515364169143,1151.7464460229967,"[93, 0, 161]",161,l,0.8779113662894815,colour,0.06
76,70,1,1,9,12,412,1152.255559839774,1153.6104601039551,"[57, 0, 197]",197,a,0.8381048555020243,colour,0.06
76,70,1,1,9,13,413,1154.1199555583298,1155.978484137915,"[86, 0, 168]",168,l,1.3412944253068417,colour,0.06
76,70,1,1,9,14,414,1156.487560145324,1157.8744998634793,"[81, 0, 173]",173,l,0.8688461896963418,colour,0.06
76,70,1,1,9,15,415,1158.383434085874,1159.8745030143764,"[77, 0, 177]",177,l,0.9742451626807451,colour,0.06
76,70,1,1,9,16,416,1160.383413212141,1161.7864250389393,"[60, 0, 194]",194,a,0.8863290583249182,colour,0.06
76,70,1,1,9,17,417,1162.296747965971,1163.834510607645,"[85, 0, 169]",169,l,1.0180019589606673,colour,0.06
76,70,1,1,9,18,418,1164.3432987129781,1165.66650453303,"[61, 0, 193]",193,a,0.8074899460189044,colour,0.06
76,70,1,1,9,19,419,1166.1758908918127,1167.3704954241402,"[54, 0, 200]",200,a,0.6783928049262613,colour,0.06
76,70,1,1,9,20,420,1167.8797096717171,1169.346460910514,"[98, 0, 156]",156,l,0.9491023635491729,colour,0.06
76,70,1,1,9,21,421,1169.8554211268201,1170.9705378809012,"[68, 0, 186]",186,a,0.5982902315445244,colour,0.06
76,70,1,1,9,22,422,1171.4796879314817,1173.074570204597,"[75, 0, 179]",179,l,1.0786504596471786,colour,0.06
76,70,1,1,9,23,423,1173.5837344336323,1174.842539966572,"[55, 0, 199]",199,a,0.7430041939951479,colour,0.06
76,70,1,1,9,24,424,1175.3516246385407,1176.7705073182005,"[80, 0, 174]",174,l,0.9012570413760841,colour,0.06
76,70,1,1,9,25,425,1177.2794943160843,1178.6024768250063,"[84, 0, 170]",170,l,0.8056546188890934,colour,0.06
76,70,1,1,9,26,426,1179.1111873423215,1180.426527643809,"[89, 0, 165]",165,l,0.7987047946080565,colour,0.06
76,70,1,1,9,27,427,1180.9352850290015,1182.3144836842548,"[97, 0, 157]",157,l,0.8618951837997884,colour,0.06
76,70,1,1,9,28,428,1182.8235242455266,1184.0025761532597,"[95, 0, 159]",159,l,0.6616806949023157,colour,0.06
76,70,1,1,9,29,429,1184.5120475830045,1186.0025143192615,"[64, 0, 190]",190,a,0.9741274022962898,colour,0.06
76,70,1,1,9,30,430,1186.511756136315,1187.9385315098334,"[70, 0, 184]",184,a,0.9104029566515237,colour,0.06
76,70,1,1,9,31,431,1188.4476677759085,1190.034554167185,"[78, 0, 176]",176,l,1.0696833510883152,colour,0.06
76,70,1,1,9,32,432,1190.544037018437,1192.0185336524155,"[82, 0, 172]",172,l,0.9585464210249484,colour,0.06
76,70,1,1,9,33,433,1192.5276900045574,1193.9865631216671,"[65, 0, 189]",189,a,0.942618066444993,colour,0.06
76,70,1,1,9,34,434,1194.4956139228307,1195.6825585246552,"[58, 0, 196]",196,a,0.6707584743853658,colour,0.06
76,70,1,1,9,35,435,1196.1923718135804,1197.4669426484033,"[52, 0, 202]",202,a,0.7585792678873986,colour,0.06
76,70,1,1,9,36,436,1197.977030054899,1199.4666011829395,"[99, 0, 155]",155,l,0.9736508475616574,colour,0.06
76,70,1,1,9,37,437,1199.9753802297637,1201.2425577684771,"[66, 0, 188]",188,a,0.7502746097743511,colour,0.06
76,70,1,1,9,38,438,1201.751304125879,1203.25052450574,"[69, 0, 185]",185,a,0.9806132749654353,colour,0.06
76,70,1,1,9,39,439,1203.760750546353,1205.2665788913146,"[73, 0, 181]",181,a,0.9896524576470256,colour,0.06
76,70,1,1,9,40,440,1205.7760558349546,1207.1945659352932,"[94, 0, 160]",160,l,0.9016898793634027,colour,0.06
76,70,1,1,9,41,441,1207.7036265826318,1209.194569479907,"[90, 0, 164]",164,l,0.9739289034623653,colour,0.06
76,70,1,1,9,42,442,1209.703938903287,1211.4826031869743,"[79, 0, 175]",175,l,1.2619374042842537,colour,0.06
76,70,1,1,9,43,443,1211.9915823079646,1213.2345740958117,"[29, 0, 225]",225,a,0.7262042560614645,colour,0.06
76,70,1,1,9,44,444,1213.7433484164067,1215.1306106951088,"[62, 0, 192]",192,a,0.8701573063153774,colour,0.06
76,70,1,1,9,45,445,1215.6395752439275,1217.1145637927111,"[88, 0, 166]",166,l,0.9568312172777951,colour,0.06
76,70,1,1,9,46,446,1217.6243030384649,1219.2346103298478,"[53, 0, 201]",201,a,1.093649335205555,colour,0.06
76,70,1,1,9,47,447,1219.7439021652099,1221.194662821712,"[91, 0, 163]",163,l,0.9338900230359286,colour,0.06
76,70,1,1,9,48,448,1221.704164577648,1223.1945919292048,"[56, 0, 198]",198,a,0.973364126868546,colour,0.06
76,70,1,1,9,49,449,1223.7039853772148,1225.1386223309673,"[43, 0, 211]",211,a,0.9161302798893303,colour,0.06
76,70,1,1,9,50,450,1225.647743236972,1227.074762008153,"[83, 0, 171]",171,l,0.9106908589601517,colour,0.06
76,70,1,1,10,1,451,1240.566382716177,1242.2826592708007,"[70, 0, 184]",184,l,1.198779704514891,colour,0.06
76,70,1,1,10,2,452,1242.791754970327,1244.0346333303023,"[54, 0, 200]",200,a,0.7263397395145148,colour,0.06
76,70,1,1,10,3,453,1244.5445781643502,1245.474803834688,"[68, 0, 186]",186,a,0.41387885343283415,colour,0.06
76,70,1,1,10,4,454,1245.983955066884,1246.794672195334,"[97, 0, 157]",157,l,0.29267834476195276,colour,0.06
76,70,1,1,10,5,455,1247.3034799927846,1248.7946481704712,"[92, 0, 162]",162,l,0.9736918075941503,colour,0.06
76,70,1,1,10,6,456,1249.303337420104,1251.218649679795,"[75, 0, 179]",179,l,1.3987614300567657,colour,0.06
76,70,1,1,10,7,457,1251.7275149789639,1253.2826706923079,"[93, 0, 161]",161,l,1.0386710499878973,colour,0.06
76,70,1,1,10,8,458,1253.7924107257277,1255.2266747064423,"[67, 0, 187]",187,a,0.9175115013495088,colour,0.06
76,70,1,1,10,9,459,1255.7354210638441,1257.2346512898803,"[50, 0, 204]",204,a,0.9823154816403985,colour,0.06
76,70,1,1,10,10,460,1257.7432495607063,1259.1626418784726,"[95, 0, 159]",159,l,0.9034042954444885,colour,0.06
76,70,1,1,10,11,461,1259.6712338477373,1260.9306612652726,"[57, 0, 197]",197,a,0.7424524144735187,colour,0.06
76,70,1,1,10,12,462,1261.4415265196003,1262.8588507466484,"[52, 0, 202]",202,a,0.8970294878818095,colour,0.06
76,70,1,1,10,13,463,1263.367635307135,1264.7307441306766,"[91, 0, 163]",163,l,0.8448041931260377,colour,0.06
76,70,1,1,10,14,464,1265.239472764777,1266.4667201249395,"[61, 0, 193]",193,a,0.7100439257919788,colour,0.06
76,70,1,1,10,15,465,1266.9758382737637,1268.2750564480666,"[88, 0, 166]",166,l,0.7833778446074575,colour,0.06
76,70,1,1,10,16,466,1268.7839319873601,1270.1547086182982,"[48, 0, 206]",206,a,0.8537579111289233,colour,0.06
76,70,1,1,10,17,467,1270.6641237277072,1271.9226957093924,"[94, 0, 160]",160,l,0.7412846579682082,colour,0.06
76,70,1,1,10,18,468,1272.4318016492762,1273.754747924162,"[81, 0, 173]",173,l,0.8059350380208343,colour,0.06
76,70,1,1,10,19,469,1274.2637798206415,1275.5787065827753,"[85, 0, 169]",169,l,0.7988686349708587,colour,0.06
76,70,1,1,10,20,470,1276.0877562023234,1277.5627014280763,"[58, 0, 196]",196,a,0.9578886963427067,colour,0.06
76,70,1,1,10,21,471,1278.0715497918427,1279.8427203486208,"[80, 0, 174]",174,l,1.2548607613425702,colour,0.06
76,70,1,1,10,22,472,1280.3515202691779,1281.5307202634867,"[53, 0, 201]",201,a,0.6614881036803126,colour,0.06
76,70,1,1,10,23,473,1282.0394934024662,1283.2507521493826,"[64, 0, 190]",190,a,0.6939670909196138,colour,0.06
76,70,1,1,10,24,474,1283.7603275547735,1285.530749802012,"[78, 0, 176]",176,l,1.2543523048516363,colour,0.06
76,70,1,1,10,25,475,1286.0396438520402,1287.3467933174688,"[99, 0, 155]",155,l,0.7906317189335823,colour,0.06
76,70,1,1,10,26,476,1287.8558803524356,1289.1627190725412,"[12, 0, 242]",242,a,0.7900472499895841,colour,0.06
76,70,1,1,10,27,477,1289.6725489029195,1291.1708315331489,"[59, 0, 195]",195,a,0.9810276019852608,colour,0.06
76,70,1,1,10,28,478,1291.6799626790453,1294.9467735462822,"[72, 0, 182]",182,l,2.7506452198140323,colour,0.06
76,70,1,1,10,29,479,1295.4563213821966,1296.7947194569279,"[56, 0, 198]",198,a,0.8211477727163583,colour,0.06
76,70,1,1,10,30,480,1297.3041073910426,1298.442764380714,"[84, 0, 170]",170,l,0.6213357951492071,colour,0.06
76,70,1,1,10,31,481,1298.95259263576,1300.3947816058062,"[89, 0, 165]",165,l,0.9227744787931442,colour,0.06
76,70,1,1,10,32,482,1300.9035185109824,1302.0987992787268,"[82, 0, 172]",172,l,0.6785727930255234,colour,0.06
76,70,1,1,10,33,483,1302.6081537357531,1303.9147750523407,"[51, 0, 203]",203,a,0.789586448809132,colour,0.06
76,70,1,1,10,34,484,1304.4247450924013,1305.986845903797,"[69, 0, 185]",185,a,1.0451490455307066,colour,0.06
76,70,1,1,10,35,485,1306.4958746496122,1307.9228095312137,"[63, 0, 191]",191,a,0.9107609635684639,colour,0.06
76,70,1,1,10,36,486,1308.4318882955704,1309.9788275726605,"[98, 0, 156]",156,l,1.0305806447286159,colour,0.06
76,70,1,1,10,37,487,1310.4878283552825,1311.6828019220848,"[87, 0, 167]",167,l,0.6781773704569787,colour,0.06
76,70,1,1,10,38,488,1312.1928101652302,1313.6108555262908,"[76, 0, 178]",178,l,0.89996167877689,colour,0.06
76,70,1,1,10,39,489,1314.119957133662,1315.6268000286072,"[38, 0, 216]",216,a,0.9895756575278938,colour,0.06
76,70,1,1,10,40,490,1316.135025720112,1317.5628286406863,"[71, 0, 183]",183,a,0.9099941435270011,colour,0.06
76,70,1,1,10,41,491,1318.0711846956983,1319.5308029712178,"[77, 0, 177]",177,l,0.9425810447428375,colour,0.06
76,70,1,1,10,42,492,1320.0397135629319,1322.04285331117,"[79, 0, 175]",175,l,1.4850190442521125,colour,0.06
76,70,1,1,10,43,493,1322.5519852449652,1324.338843121659,"[90, 0, 164]",164,l,1.2694484605453908,colour,0.06
76,70,1,1,10,44,494,1324.8480368892197,1326.3388336694334,"[96, 0, 158]",158,l,0.9746110467240214,colour,0.06
76,70,1,1,10,45,495,1326.8478825013153,1329.6908226164524,"[74, 0, 180]",180,l,2.3266326829325408,colour,0.06
76,70,1,1,10,46,496,1330.2016941723414,1331.3388443032745,"[65, 0, 189]",189,a,0.6182618192397058,colour,0.06
76,70,1,1,10,47,497,1331.8480652463622,1333.1948495050892,"[60, 0, 194]",194,a,0.8300518656615168,colour,0.06
76,70,1,1,10,48,498,1333.7039318140596,1335.0110387438908,"[62, 0, 192]",192,a,0.7899952619336545,colour,0.06
76,70,1,1,10,49,499,1335.5188658623956,1336.9068465181626,"[66, 0, 188]",188,a,0.8699840137269348,colour,0.06
76,70,1,1,10,50,500,1337.416119055124,1338.7468733470887,"[55, 0, 199]",199,a,0.8147780848667026,colour,0.06
76,70,1,1,11,1,501,1355.8068404924124,1357.2109133431222,"[63, 0, 191]",191,a,0.8867768624331802,colour,0.06
76,70,1,1,11,2,502,1357.718569531804,1359.1229180754162,"[82, 0, 172]",172,l,0.8856670015957206,colour,0.06
76,70,1,1,11,3,503,1359.6319424889516,1361.202873350121,"[79, 0, 175]",175,l,1.053465518867597,colour,0.06
76,70,1,1,11,4,504,1361.7122939736582,1363.1789069720544,"[94, 0, 160]",160,l,0.9499739469029009,colour,0.06
76,70,1,1,11,5,505,1363.6879983395338,1364.9789150066208,"[77, 0, 177]",177,l,0.7738991286605597,colour,0.06
76,70,1,1,11,6,506,1365.4883553225081,1366.7948848726228,"[96, 0, 158]",158,l,0.7906293557025492,colour,0.06
76,70,1,1,11,7,507,1367.3039155874867,1368.610983526567,"[84, 0, 170]",170,l,0.7895947196520865,colour,0.06
76,70,1,1,11,8,508,1369.120014241431,1370.402931875782,"[54, 0, 200]",200,a,0.7659347543958575,colour,0.06
76,70,1,1,11,9,509,1370.9126073184889,1372.0510665967595,"[86, 0, 168]",168,l,0.6222633048892021,colour,0.06
76,70,1,1,11,10,510,1372.5594222580548,1373.6750431361143,"[91, 0, 163]",163,l,0.5994784678332508,colour,0.06
76,70,1,1,11,11,511,1374.1841419865377,1375.5789231986273,"[68, 0, 186]",186,a,0.8780051018111408,colour,0.06
76,70,1,1,11,12,512,1376.0884552807547,1377.4189468766563,"[89, 0, 165]",165,l,0.8120160358957946,colour,0.06
76,70,1,1,11,13,513,1377.9282725830562,1379.3789052392822,"[83, 0, 171]",171,l,0.9344953659456223,colour,0.06
76,70,1,1,11,14,514,1379.888102157507,1381.4909452602733,"[71, 0, 183]",183,l,1.0850335378199816,colour,0.06
76,70,1,1,11,15,515,1382.0002311882563,1383.4029503867496,"[95, 0, 159]",159,l,0.8848170798737556,colour,0.06
76,70,1,1,11,16,516,1383.9115683499258,1385.0910271017347,"[61, 0, 193]",193,a,0.6627744080033153,colour,0.06
76,70,1,1,11,17,517,1385.600635196548,1387.0829359088093,"[65, 0, 189]",189,a,0.9654032972175628,colour,0.06
76,70,1,1,11,18,518,1387.5918843098916,1389.0829654473346,"[66, 0, 188]",188,a,0.9753739282023162,colour,0.06
76,70,1,1,11,19,519,1389.5922789445613,1390.994945761282,"[36, 0, 218]",218,a,0.8873369127977639,colour,0.06
76,70,1,1,11,20,520,1391.5037303220015,1392.978985899128,"[28, 0, 226]",226,a,0.9586830858606845,colour,0.06
76,70,1,1,11,21,521,1393.4881296481472,1395.059103044914,"[46, 0, 208]",208,a,1.054366247029975,colour,0.06
76,70,1,1,11,22,522,1395.567678079009,1397.027001756942,"[51, 0, 203]",203,a,0.9415889442898333,colour,0.06
76,70,1,1,11,23,523,1397.5358422438148,1399.0751353751402,"[58, 0, 196]",196,a,1.0219967493321747,colour,0.06
76,70,1,1,11,24,524,1399.58427873021,1401.0430222717114,"[75, 0, 179]",179,l,0.9412565373349935,colour,0.06
76,70,1,1,11,25,525,1401.551607545698,1403.0349602233618,"[92, 0, 162]",162,l,0.9643871721345931,colour,0.06
76,70,1,1,11,26,526,1403.5441504463088,1404.923099402571,"[90, 0, 164]",164,l,0.8630790880415589,colour,0.06
76,70,1,1,11,27,527,1405.4327378235757,1406.642990685068,"[88, 0, 166]",166,l,0.6942888638004661,colour,0.06
76,70,1,1,11,28,528,1407.1520556646865,1408.459086188348,"[69, 0, 185]",185,l,0.7899038896430284,colour,0.06
76,70,1,1,11,29,529,1408.968235844979,1410.1631306426134,"[53, 0, 201]",201,a,0.6759159010834992,colour,0.06
76,70,1,1,11,30,530,1410.6713496388402,1412.8670297672506,"[97, 0, 157]",157,l,1.6784534573089331,colour,0.06
76,70,1,1,11,31,531,1413.37640391686,1414.7150170318782,"[98, 0, 156]",156,l,0.8222761442884803,colour,0.06
76,70,1,1,11,32,532,1415.2245849540923,1416.5150632695295,"[80, 0, 174]",174,l,0.7734064259566367,colour,0.06
76,70,1,1,11,33,533,1417.024203473935,1418.2029785073828,"[78, 0, 176]",176,l,0.6618402029853314,colour,0.06
76,70,1,1,11,34,534,1418.7118705881294,1420.3470717670862,"[73, 0, 181]",181,l,1.1193100430537015,colour,0.06
76,70,1,1,11,35,535,1420.8561721930746,1422.6350491540506,"[52, 0, 202]",202,a,1.2609031619504094,colour,0.06
76,70,1,1,11,36,536,1423.143346132012,1424.803007573355,"[59, 0, 195]",195,a,1.1430921007413417,colour,0.06
76,70,1,1,11,37,537,1425.3120875190943,1426.891074127052,"[87, 0, 167]",167,l,1.0616086996160448,colour,0.06
76,70,1,1,11,38,538,1427.40036990121,1428.9390813203063,"[74, 0, 180]",180,l,1.0218336964026093,colour,0.06
76,70,1,1,11,39,539,1429.448475949932,1431.3310819724575,"[93, 0, 161]",161,l,1.3657731984276325,colour,0.06
76,70,1,1,11,40,540,1431.8402280847076,1433.6350586065091,"[99, 0, 155]",155,l,1.277930743759498,colour,0.06
76,70,1,1,11,41,541,1434.1437391913496,1435.6510771517642,"[76, 0, 178]",178,l,0.9911770392209291,colour,0.06
76,70,1,1,11,42,542,1436.1601374053862,1437.5870793762151,"[85, 0, 169]",169,l,0.9100993005558848,colour,0.06
76,70,1,1,11,43,543,1438.096587827662,1439.6591392001137,"[67, 0, 187]",187,l,1.0450962700415403,colour,0.06
76,70,1,1,11,44,544,1440.1683042168152,1441.6670622203965,"[70, 0, 184]",184,l,0.9798070702236146,colour,0.06
76,70,1,1,11,45,545,1442.1760909659788,1443.3550349597353,"[55, 0, 199]",199,a,0.6625337672885507,colour,0.06
76,70,1,1,11,46,546,1443.8639577606227,1445.2430922188796,"[64, 0, 190]",190,a,0.8630842079874128,colour,0.06
76,70,1,1,11,47,547,1445.7522304540034,1447.1870832359418,"[57, 0, 197]",197,a,0.9183712692465633,colour,0.06
76,70,1,1,11,48,548,1447.696612955071,1449.2510975531768,"[81, 0, 173]",173,l,1.0377392079681158,colour,0.06
76,70,1,1,11,49,549,1449.7598525751382,1451.1471002816688,"[56, 0, 198]",198,a,0.8697890595067292,colour,0.06
76,70,1,1,11,50,550,1451.6558836607728,1452.9791572224349,"[62, 0, 192]",192,a,0.8067239136435091,colour,0.06
76,70,1,1,12,1,551,1463.8708555970807,1465.9711172296666,"[97, 0, 157]",157,l,1.5819735436234623,colour,0.06
76,70,1,1,12,2,552,1466.4801956000738,1468.9711199866142,"[86, 0, 168]",168,l,1.9743912799749523,colour,0.06
76,70,1,1,12,3,553,1469.480820241617,1470.867188093951,"[50, 0, 204]",204,a,0.8701513989362866,colour,0.06
76,70,1,1,12,4,554,1471.375884826528,1472.5871376655996,"[85, 0, 169]",169,l,0.6948949943762273,colour,0.06
76,70,1,1,12,5,555,1473.0967280371115,1474.3071695514955,"[82, 0, 172]",172,l,0.6932660432066768,colour,0.06
76,70,1,1,12,6,556,1474.8161671832204,1476.1711473984178,"[77, 0, 177]",177,l,0.8383943329099566,colour,0.06
76,70,1,1,12,7,557,1476.6801997749135,1477.987171615241,"[8, 0, 246]",246,a,0.7902292071375996,colour,0.06
76,70,1,1,12,8,558,1478.496422096854,1480.139161507599,"[51, 0, 203]",203,a,1.1259113126434386,colour,0.06
76,70,1,1,12,9,559,1480.6481106961146,1482.051176086301,"[92, 0, 162]",162,l,0.8869942659512162,colour,0.06
76,70,1,1,12,10,560,1482.5601209425367,1483.891133598052,"[87, 0, 167]",167,l,0.8147158571518958,colour,0.06
76,70,1,1,12,11,561,1484.4004904183093,1485.6431746117305,"[96, 0, 158]",158,l,0.7262885393574834,colour,0.06
76,70,1,1,12,12,562,1486.1523183607496,1488.9951966418885,"[84, 0, 170]",170,l,2.326928068185225,colour,0.06
76,70,1,1,12,13,563,1489.5040576087777,1493.3952108991798,"[63, 0, 191]",191,a,3.374484306667,colour,0.06
76,70,1,1,12,14,564,1493.9047032028902,1495.0111651688349,"[73, 0, 181]",181,l,0.5888146662618965,colour,0.06
76,70,1,1,12,15,565,1495.5202482654713,1496.9632146896329,"[55, 0, 199]",199,a,0.9257275438867509,colour,0.06
76,70,1,1,12,16,566,1497.472248555161,1498.2433596409392,"[83, 0, 171]",171,l,0.25344921345822513,colour,0.06
76,70,1,1,12,17,567,1498.7525317471009,1500.0672426810488,"[5, 0, 249]",249,a,0.7975008045323193,colour,0.06
76,70,1,1,12,18,568,1500.576779883122,1501.811317351181,"[91, 0, 163]",163,l,0.7172930736560374,colour,0.06
76,70,1,1,12,19,569,1502.3203882386442,1503.6593739329837,"[59, 0, 195]",195,a,0.8221509009599686,colour,0.06
76,70,1,1,12,20,570,1504.1685842419975,1505.4352198473644,"[53, 0, 201]",201,a,0.745028173783794,colour,0.06
76,70,1,1,12,21,571,1505.9441973930225,1510.0593314762227,"[72, 0, 182]",182,l,3.599051537690684,colour,0.06
76,70,1,1,12,22,572,1510.5683846403845,1511.8193281993736,"[95, 0, 159]",159,l,0.7334687642287463,colour,0.06
76,70,1,1,12,23,573,1512.328794115223,1513.6192121719941,"[62, 0, 192]",192,a,0.7735994111280888,colour,0.06
76,70,1,1,12,24,574,1514.127901421627,1515.7073212612886,"[93, 0, 161]",161,l,1.0627709419932216,colour,0.06
76,70,1,1,12,25,575,1516.2166197923943,1517.6192440737505,"[56, 0, 198]",198,a,0.8833334580995142,colour,0.06
76,70,1,1,12,26,576,1518.1280306035187,1519.467253787443,"[94, 0, 160]",160,l,0.8227554559707642,colour,0.06
76,70,1,1,12,27,577,1519.9761155419983,1521.2992295958102,"[57, 0, 197]",197,a,0.8064096237067133,colour,0.06
76,70,1,1,12,28,578,1521.8083544401452,1523.0032389978878,"[58, 0, 196]",196,a,0.6775929017458111,colour,0.06
76,70,1,1,12,29,579,1523.5118731088005,1524.7792361495085,"[90, 0, 164]",164,l,0.7498169597238302,colour,0.06
76,70,1,1,12,30,580,1525.2882822244428,1526.6193070891313,"[69, 0, 185]",185,l,0.8135315591935068,colour,0.06
76,70,1,1,12,31,581,1527.1278281661216,1528.3632899930235,"[44, 0, 210]",210,a,0.7176211483310908,colour,0.06
76,70,1,1,12,32,582,1528.8723782096058,1530.2032935849857,"[88, 0, 166]",166,l,0.8144842751789838,colour,0.06
76,70,1,1,12,33,583,1530.712633075891,1532.0352591532283,"[79, 0, 175]",175,l,0.8062032477464527,colour,0.06
76,70,1,1,12,34,584,1532.5447613031138,1534.9952691097278,"[67, 0, 187]",187,l,1.934136571129784,colour,0.06
76,70,1,1,12,35,585,1535.5041328335647,1536.5792752979323,"[61, 0, 193]",193,a,0.5580449749249965,colour,0.06
76,70,1,1,12,36,586,1537.0883099513594,1538.2033325757366,"[71, 0, 183]",183,l,0.597912925761193,colour,0.06
76,70,1,1,12,37,587,1538.712655525189,1539.9952911650762,"[65, 0, 189]",189,a,0.7664822018705308,colour,0.06
76,70,1,1,12,38,588,1540.5040501256008,1542.1793327208143,"[74, 0, 180]",180,l,1.1573966240976006,colour,0.06
76,70,1,1,12,39,589,1542.6885804454796,1544.2595148512628,"[70, 0, 184]",184,l,1.0530094439163804,colour,0.06
76,70,1,1,12,40,590,1544.7686393018812,1549.4113015185576,"[66, 0, 188]",188,l,4.124658091459423,colour,0.06
76,70,1,1,12,41,591,1549.9202144732699,1551.2833091183566,"[80, 0, 174]",174,l,0.8459309893660247,colour,0.06
76,70,1,1,12,42,592,1551.7932882169262,1552.8594104030635,"[64, 0, 190]",190,a,0.5492082296404988,colour,0.06
76,70,1,1,12,43,593,1553.3685352476314,1554.4594835799653,"[60, 0, 194]",194,a,0.5721238239202648,colour,0.06
76,70,1,1,12,44,594,1554.9686745905783,1555.6594893301371,"[81, 0, 173]",173,l,0.1711820571217686,colour,0.06
76,70,1,1,12,45,595,1556.169188797241,1557.4433689357247,"[99, 0, 155]",155,l,0.7554919009562582,colour,0.06
76,70,1,1,12,46,596,1557.9526434419677,1559.7793495773803,"[52, 0, 202]",202,a,1.3094707995187491,colour,0.06
76,70,1,1,12,47,597,1560.2881451656576,1562.299310728442,"[68, 0, 186]",186,a,1.4941716552712023,colour,0.06
76,70,1,1,12,48,598,1562.8083796463907,1566.2353751806077,"[78, 0, 176]",176,a,2.9108361883554608,colour,0.06
76,70,1,1,12,49,599,1566.744565009838,1569.4755332393106,"[76, 0, 178]",178,a,2.2149723302572966,colour,0.06
76,70,1,1,12,50,600,1569.9844253200572,1571.139384818729,"[98, 0, 156]",156,l,0.6385110691189766,colour,0.06
76,70,1,1,13,1,601,1587.6796609922312,1589.147404331714,"[34, 0, 220]",220,a,0.9507766072638333,colour,0.06
76,70,1,1,13,2,602,1589.6565122406464,1591.5394093161449,"[76, 0, 178]",178,l,1.3656963983085006,colour,0.06
76,70,1,1,13,3,603,1592.048544794321,1593.4114228235558,"[91, 0, 163]",163,l,0.8458990878425539,colour,0.06
76,70,1,1,13,4,604,1593.9210959030315,1595.2354051130824,"[85, 0, 169]",169,l,0.7964980700053275,colour,0.06
76,70,1,1,13,5,605,1595.7445008126087,1597.443439828232,"[86, 0, 168]",168,l,1.1829687163699418,colour,0.06
76,70,1,1,13,6,606,1597.9529624581337,1599.2914385143667,"[84, 0, 170]",170,l,0.8209772368427366,colour,0.06
76,70,1,1,13,7,607,1599.8014140683226,1602.6594720007852,"[71, 0, 183]",183,a,2.340681205736473,colour,0.06
76,70,1,1,13,8,608,1603.168419220252,1604.4994184849784,"[60, 0, 194]",194,a,0.8131987585220486,colour,0.06
76,70,1,1,13,9,609,1605.0080017896835,1606.643458575476,"[90, 0, 164]",164,l,1.1187117896042764,colour,0.06
76,70,1,1,13,10,610,1607.1527094508056,1608.3234121960122,"[73, 0, 181]",181,a,0.6516198730096221,colour,0.06
76,70,1,1,13,11,611,1608.83244212321,1609.9634281545877,"[63, 0, 191]",191,a,0.6147676084656268,colour,0.06
76,70,1,1,13,12,612,1610.4720291825943,1611.9475021632388,"[92, 0, 162]",162,l,0.9575885850936174,colour,0.06
76,70,1,1,13,13,613,1612.456486404175,1613.9794577278662,"[99, 0, 155]",155,l,1.0069458859506994,colour,0.06
76,70,1,1,13,14,614,1614.4885376736056,1615.7554663009942,"[68, 0, 186]",186,a,0.7504896502941847,colour,0.06
76,70,1,1,13,15,615,1616.264598628506,1617.9234349601902,"[82, 0, 172]",172,l,1.141742780804634,colour,0.06
76,70,1,1,13,16,616,1618.43249363848,1619.6354528472293,"[62, 0, 192]",192,a,0.686553314793855,colour,0.06
76,70,1,1,13,17,617,1620.1441960539669,1621.651466666488,"[50, 0, 204]",204,a,0.9904247915837914,colour,0.06
76,70,1,1,13,18,618,1622.1608530252706,1623.9794817524962,"[87, 0, 167]",167,l,1.3023055410012603,colour,0.06
76,70,1,1,13,19,619,1624.4885660305154,1626.1634890434798,"[74, 0, 180]",180,a,1.1592859083320946,colour,0.06
76,70,1,1,13,20,620,1626.6730227009393,1629.2275557422545,"[95, 0, 159]",159,l,2.0373827763833106,colour,0.06
76,70,1,1,13,21,621,1629.7366679834668,1631.1396490901243,"[81, 0, 173]",173,l,0.88613804243505,colour,0.06
76,70,1,1,13,22,622,1631.6487656638492,1632.8839305301663,"[58, 0, 196]",196,a,0.7192461611703038,colour,0.06
76,70,1,1,13,23,623,1633.3932889257558,1634.667547045974,"[56, 0, 198]",198,a,0.7580637221690267,colour,0.06
76,70,1,1,13,24,624,1635.1773745133542,1637.8195176396985,"[88, 0, 166]",166,l,2.1240094255190343,colour,0.06
76,70,1,1,13,25,625,1638.3284833699,1639.635516650509,"[52, 0, 202]",202,a,0.7905513739679009,colour,0.06
76,70,1,1,13,26,626,1640.1451916990336,1641.9875000836328,"[83, 0, 171]",171,l,1.3264700239524245,colour,0.06
76,70,1,1,13,27,627,1642.4971018768847,1645.203565339325,"[61, 0, 193]",193,a,2.1902288920246065,colour,0.06
76,70,1,1,13,28,628,1645.7123160292394,1647.6835155729204,"[96, 0, 158]",158,l,1.4552367276046425,colour,0.06
76,70,1,1,13,29,629,1648.1929712488782,1652.3235189283732,"[57, 0, 197]",197,l,3.613788110902533,colour,0.06
76,70,1,1,13,30,630,1652.8326138404664,1654.4675700466614,"[98, 0, 156]",156,l,1.1171749983914196,colour,0.06
76,70,1,1,13,31,631,1654.976672047982,1656.2835698449053,"[75, 0, 179]",179,l,0.7904639397747815,colour,0.06
76,70,1,1,13,32,632,1656.7922338882927,1658.73157632933,"[65, 0, 189]",189,l,1.4201012423727661,colour,0.06
76,70,1,1,13,33,633,1659.2416704311036,1660.0435657806229,"[46, 0, 208]",208,a,0.2848128261975944,colour,0.06
76,70,1,1,13,34,634,1660.5526437570807,1662.2275490467437,"[59, 0, 195]",195,a,1.1560480918269604,colour,0.06
76,70,1,1,13,35,635,1662.7363091888838,1667.4035683325492,"[70, 0, 184]",184,a,4.149962761672214,colour,0.06
76,70,1,1,13,36,636,1667.9116900486406,1669.219568918692,"[66, 0, 188]",188,a,0.7919255062006414,colour,0.06
76,70,1,1,13,37,637,1669.7283046422526,1672.0755733328406,"[89, 0, 165]",165,l,1.831243646563962,colour,0.06
76,70,1,1,13,38,638,1672.5847927005962,1673.931628947379,"[51, 0, 203]",203,a,0.8295375015586615,colour,0.06
76,70,1,1,13,39,639,1674.440698652994,1675.7316050801892,"[7, 0, 247]",247,a,0.7736238297075033,colour,0.06
76,70,1,1,13,40,640,1676.2407413460314,1677.7636031801812,"[54, 0, 200]",200,a,1.0057730092667043,colour,0.06
76,70,1,1,13,41,641,1678.2726098704152,1680.8996221825946,"[55, 0, 199]",199,a,2.110522528644651,colour,0.06
76,70,1,1,13,42,642,1681.408821070101,1682.7475992070977,"[80, 0, 174]",174,l,0.8220209314022213,colour,0.06
76,70,1,1,13,43,643,1683.2567283837125,1684.7395946604665,"[79, 0, 175]",175,l,0.9647050064522773,colour,0.06
76,70,1,1,13,44,644,1685.2484253011644,1686.7716467175633,"[78, 0, 176]",176,l,1.006428370717913,colour,0.06
76,70,1,1,13,45,645,1687.2807333588134,1690.7316653388552,"[69, 0, 185]",185,l,2.9342980484943837,colour,0.06
76,70,1,1,13,46,646,1691.2404908593744,1692.939618133707,"[94, 0, 160]",160,l,1.181707224342972,colour,0.06
76,70,1,1,13,47,647,1693.448420417495,1694.9476679728832,"[53, 0, 201]",201,a,0.9834324319381267,colour,0.06
76,70,1,1,13,48,648,1695.4575753912795,1696.947715234477,"[64, 0, 190]",190,a,0.9739237835165113,colour,0.06
76,70,1,1,13,49,649,1697.4582551710773,1698.9796369282994,"[67, 0, 187]",187,a,1.001655339030549,colour,0.06
76,70,1,1,13,50,650,1699.4884392118547,1701.0597824309953,"[93, 0, 161]",161,l,1.0540751940570772,colour,0.06
76,70,1,1,14,1,651,1707.959949304117,1709.315783773316,"[78, 0, 176]",176,l,0.8392391349188983,colour,0.06
76,70,1,1,14,2,652,1709.8250968765933,1711.3077079404611,"[56, 0, 198]",198,a,0.9660862281452864,colour,0.06
76,70,1,1,14,3,653,1711.8167347167619,1712.9317029905505,"[36, 0, 218]",218,a,0.597545072901994,colour,0.06
76,70,1,1,14,4,654,1713.4408238963224,1714.5956829641946,"[92, 0, 162]",162,l,0.636797834886238,colour,0.06
76,70,1,1,14,5,655,1715.1043781214394,1716.4598648238461,"[79, 0, 175]",175,l,0.8382836619857699,colour,0.06
76,70,1,1,14,6,656,1716.968620239757,1718.5556677144486,"[85, 0, 169]",169,l,1.0692410608753562,colour,0.06
76,70,1,1,14,7,657,1719.0652009781916,1720.3156841299497,"[52, 0, 202]",202,a,0.7325211681891233,colour,0.06
76,70,1,1,14,8,658,1720.8249862054363,1722.0196793533396,"[83, 0, 171]",171,l,0.6778193635400385,colour,0.06
76,70,1,1,14,9,659,1722.5288057732396,1723.6996814170852,"[58, 0, 196]",196,a,0.6540530598722398,colour,0.06
76,70,1,1,14,10,660,1724.2084297437686,1725.4036939698271,"[87, 0, 167]",167,l,0.6788114642258734,colour,0.06
76,70,1,1,14,11,661,1725.912541939877,1727.3156947637908,"[69, 0, 185]",185,a,0.8873168267309666,colour,0.06
76,70,1,1,14,12,662,1727.824871595949,1729.1316988945473,"[81, 0, 173]",173,l,0.7905943032819778,colour,0.06
76,70,1,1,14,13,663,1729.6407831725664,1731.3637303139549,"[63, 0, 191]",191,a,1.2057035346515477,colour,0.06
76,70,1,1,14,14,664,1731.8728039583657,1733.523726328276,"[95, 0, 159]",159,l,1.1345026912167668,colour,0.06
76,70,1,1,14,15,665,1734.0329831114504,1737.7717302131932,"[73, 0, 181]",181,l,3.222438881872222,colour,0.06
76,70,1,1,14,16,666,1738.280660103308,1739.8757570232265,"[51, 0, 203]",203,l,1.079150645295158,colour,0.06
76,70,1,1,14,17,667,1740.3843296940904,1742.21970282658,"[65, 0, 189]",189,a,1.318879410624504,colour,0.06
76,70,1,1,14,18,668,1742.7287823786028,1744.3717718822882,"[64, 0, 190]",190,a,1.1268411856144667,colour,0.06
76,70,1,1,14,19,669,1744.8805501412135,1746.9397823680192,"[61, 0, 193]",193,a,1.5427507141139358,colour,0.06
76,70,1,1,14,20,670,1747.4484054513741,1749.2677513738163,"[55, 0, 199]",199,a,1.3034256419632584,colour,0.06
76,70,1,1,14,21,671,1749.7765229374636,1751.4117556242272,"[96, 0, 158]",158,l,1.118586546042934,colour,0.06
76,70,1,1,14,22,672,1751.9207914592698,1753.3237839874346,"[53, 0, 201]",201,a,0.8857493156101555,colour,0.06
76,70,1,1,14,23,673,1753.8329269487876,1760.539759839885,"[70, 0, 184]",184,l,6.190090257907286,colour,0.06
76,70,1,1,14,24,674,1761.0486452253535,1762.4440451711416,"[89, 0, 165]",165,l,0.8792256338056177,colour,0.06
76,70,1,1,14,25,675,1762.9530727353413,1764.4277934681159,"[54, 0, 200]",200,a,0.9564094070810825,colour,0.06
76,70,1,1,14,26,676,1764.9371672237758,1767.2758004250936,"[77, 0, 177]",177,l,1.8215124749112874,colour,0.06
76,70,1,1,14,27,677,1767.7848390170839,1769.8357784012333,"[91, 0, 163]",163,l,1.5333810939919204,colour,0.06
76,70,1,1,14,28,678,1770.3443361059763,1772.7317992467433,"[82, 0, 172]",172,l,1.8707508340012282,colour,0.06
76,70,1,1,14,29,679,1773.2409512666054,1774.763815069804,"[94, 0, 160]",160,l,1.0056619443930686,colour,0.06
76,70,1,1,14,30,680,1775.2728737480938,1776.8037893595174,"[84, 0, 170]",170,l,1.0144203142262995,colour,0.06
76,70,1,1,14,31,681,1777.313208013773,1780.9558154859114,"[72, 0, 182]",182,l,3.1235935231670737,colour,0.06
76,70,1,1,14,32,682,1781.4648899177555,1782.7718365518376,"[88, 0, 166]",166,l,0.7907573559787124,colour,0.06
76,70,1,1,14,33,683,1783.2806955494452,1784.6918698556256,"[7, 0, 247]",247,a,0.8944320667069405,colour,0.06
76,70,1,1,14,34,684,1785.2012912668288,1786.6439398564398,"[62, 0, 192]",192,a,0.9259484920185059,colour,0.06
76,70,1,1,14,35,685,1787.1532119994517,1788.6838290751912,"[66, 0, 188]",188,a,1.0122982666362077,colour,0.06
76,70,1,1,14,36,686,1789.1925982756075,1790.72381714941,"[67, 0, 187]",187,a,1.0139500610530376,colour,0.06
76,70,1,1,14,37,687,1791.232491432922,1792.7478433921933,"[60, 0, 194]",194,a,0.9990929702762514,colour,0.06
76,70,1,1,14,38,688,1793.2570572460536,1796.0758718689904,"[76, 0, 178]",178,l,2.3018478907179087,colour,0.06
76,70,1,1,14,39,689,1796.5860553740058,1798.3558482539374,"[80, 0, 174]",174,l,1.250760813942179,colour,0.06
76,70,1,1,14,40,690,1798.8646202113014,1800.3878593510017,"[29, 0, 225]",225,a,1.0070577384904027,colour,0.06
76,70,1,1,14,41,691,1800.8968357150443,1802.835872924421,"[57, 0, 197]",197,a,1.422189419157803,colour,0.06
76,70,1,1,14,42,692,1803.34444717085,1805.1960267138202,"[75, 0, 179]",179,l,1.3357841118704528,colour,0.06
76,70,1,1,14,43,693,1805.7054646667093,1807.451893360354,"[90, 0, 164]",164,l,1.229861716274172,colour,0.06
76,70,1,1,14,44,694,1807.9604809975717,1809.2038705707528,"[50, 0, 204]",204,a,0.7263933026697487,colour,0.06
76,70,1,1,14,45,695,1809.7124763247557,1811.267888826551,"[97, 0, 157]",157,l,1.039263395825401,colour,0.06
76,70,1,1,14,46,696,1811.7771105570719,1813.179897497408,"[98, 0, 156]",156,l,0.8867741054855287,colour,0.06
76,70,1,1,14,47,697,1813.6887415288948,1815.0999260749668,"[68, 0, 186]",186,a,0.8941559800878167,colour,0.06
76,70,1,1,14,48,698,1815.6091139349155,1817.3560625065584,"[74, 0, 180]",180,l,1.228518697898835,colour,0.06
76,70,1,1,14,49,699,1817.865676115267,1819.8918720611837,"[99, 0, 155]",155,l,1.5098975722212344,colour,0.06
76,70,1,1,14,50,700,1820.4010307763238,1822.5798763083294,"[86, 0, 168]",168,l,1.6624223086982965,colour,0.06
76,70,1,1,15,1,701,1843.2162708437536,1844.2359285356943,"[83, 0, 171]",171,l,0.5020600168500096,colour,0.06
76,70,1,1,15,2,702,1844.7451301801484,1845.899945924757,"[63, 0, 191]",191,a,0.6380187603645027,colour,0.06
76,70,1,1,15,3,703,1846.409145993879,1847.2839321843348,"[66, 0, 188]",188,a,0.35715464456006885,colour,0.06
76,70,1,1,15,4,704,1847.7930975949857,1849.1400252140593,"[59, 0, 195]",195,a,0.8301129119936377,colour,0.06
76,70,1,1,15,5,705,1849.649896004703,1851.051951570902,"[60, 0, 194]",194,a,0.8860962947364897,colour,0.06
76,70,1,1,15,6,706,1851.5616096842568,1852.8519619684666,"[92, 0, 162]",162,l,0.7743229079060256,colour,0.06
76,70,1,1,15,7,707,1853.3604546885472,1854.6119657810777,"[79, 0, 175]",175,l,0.734764127060771,colour,0.06
76,70,1,1,15,8,708,1855.121628620429,1856.3639630775433,"[56, 0, 198]",198,a,0.7252038847655058,colour,0.06
76,70,1,1,15,9,709,1856.8725223576184,1858.1959763013292,"[57, 0, 197]",197,a,0.8067310028709471,colour,0.06
76,70,1,1,15,10,710,1858.7046923325397,1860.1879756932613,"[68, 0, 186]",186,a,0.9662677915766835,colour,0.06
76,70,1,1,15,11,711,1860.697257682681,1862.0280261531007,"[43, 0, 211]",211,a,0.8144913644064218,colour,0.06
76,70,1,1,15,12,712,1862.5368871199898,1863.7320339796133,"[76, 0, 178]",178,l,0.676221132511273,colour,0.06
76,70,1,1,15,13,713,1864.2411769409664,1865.7879701007623,"[55, 0, 199]",199,a,1.0285976249724627,colour,0.06
76,70,1,1,15,14,714,1866.2969700954854,1867.612026827177,"[86, 0, 168]",168,l,0.7983526953030378,colour,0.06
76,70,1,1,15,15,715,1868.1211910564452,1869.3879652956966,"[96, 0, 158]",158,l,0.7502946958411485,colour,0.06
76,70,1,1,15,16,716,1869.8969916785136,1871.4601350028533,"[88, 0, 166]",166,l,1.0460229918826371,colour,0.06
76,70,1,1,15,17,717,1871.9692830841523,1873.7240168298595,"[73, 0, 181]",181,l,1.2380572787951678,colour,0.06
76,70,1,1,15,18,718,1874.2330365171656,1876.0200243634172,"[77, 0, 177]",177,l,1.2705910108052194,colour,0.06
76,70,1,1,15,19,719,1876.529596617911,1878.1640809953678,"[80, 0, 174]",174,l,1.1180182248353958,colour,0.06
76,70,1,1,15,20,720,1878.6736981484573,1880.5880246090237,"[99, 0, 155]",155,l,1.3961718857754022,colour,0.06
76,70,1,1,15,21,721,1881.0975929251872,1885.9721164195798,"[67, 0, 187]",187,l,4.3579281598795205,colour,0.06
76,70,1,1,15,22,722,1886.4819490071386,1887.5720206359401,"[62, 0, 192]",192,a,0.5735373408533633,colour,0.06
76,70,1,1,15,23,723,1888.0818922142498,1889.3560109126847,"[78, 0, 176]",176,l,0.7567037683911622,colour,0.06
76,70,1,1,15,24,724,1889.865124729462,1891.3800564541016,"[51, 0, 203]",203,a,0.9985581261571497,colour,0.06
76,70,1,1,15,25,725,1891.8894424189348,1893.3400821643881,"[70, 0, 184]",184,l,0.9332322985865176,colour,0.06
76,70,1,1,15,26,726,1893.8494464678224,1895.1481573670171,"[94, 0, 160]",160,l,0.7816555516328663,colour,0.06
76,70,1,1,15,27,727,1895.6573637377005,1897.2280866478104,"[64, 0, 190]",190,a,1.053690011613071,colour,0.06
76,70,1,1,15,28,728,1897.7371752583422,1899.244193021208,"[53, 0, 201]",201,a,0.9897020822390914,colour,0.06
76,70,1,1,15,29,729,1899.7532895086333,1901.2602674930822,"[84, 0, 170]",170,l,0.9879971186164767,colour,0.06
76,70,1,1,15,30,730,1901.7688606439624,1903.268049909966,"[82, 0, 172]",172,l,0.9816368834581226,colour,0.06
76,70,1,1,15,31,731,1903.7772259544581,1905.3160901861265,"[65, 0, 189]",189,a,1.0225753104314208,colour,0.06
76,70,1,1,15,32,732,1905.8259133214597,1906.9001034635585,"[72, 0, 182]",182,l,0.5572241977788508,colour,0.06
76,70,1,1,15,33,733,1907.4075312211644,1908.8041032557376,"[54, 0, 200]",200,a,0.8800720111466944,colour,0.06
76,70,1,1,15,34,734,1909.3125597415492,1910.5880600553937,"[50, 0, 204]",204,a,0.7598821136634797,colour,0.06
76,70,1,1,15,35,735,1911.096872185124,1912.5401087885257,"[93, 0, 161]",161,l,0.9274529875256121,colour,0.06
76,70,1,1,15,36,736,1913.0491544695105,1914.6521228156053,"[85, 0, 169]",169,l,1.0859397798776627,colour,0.06
76,70,1,1,15,37,737,1915.1610743673518,1916.5721013746224,"[95, 0, 159]",159,l,0.8952134591527283,colour,0.06
76,70,1,1,15,38,738,1917.0819831930567,1918.5960732665844,"[61, 0, 193]",193,a,0.9981150482781231,colour,0.06
76,70,1,1,15,39,739,1919.105651428923,1920.4603075077757,"[69, 0, 185]",185,a,0.8376164850778878,colour,0.06
76,70,1,1,15,40,740,1920.969262604136,1922.4360819784924,"[58, 0, 196]",196,a,0.9500818611122668,colour,0.06
76,70,1,1,15,41,741,1922.9463564623147,1924.7001284335274,"[81, 0, 173]",173,l,1.236376733519137,colour,0.06
76,70,1,1,15,42,742,1925.209246976301,1926.2761493735015,"[75, 0, 179]",179,l,0.5506359250284731,colour,0.06
76,70,1,1,15,43,743,1926.7854132459033,1929.0361350690946,"[71, 0, 183]",183,l,1.7339886422269046,colour,0.06
76,70,1,1,15,44,744,1929.5444151116535,1934.1081310897134,"[87, 0, 167]",167,l,4.047607044689357,colour,0.06
76,70,1,1,15,45,745,1934.6173658173066,1935.9961918932386,"[91, 0, 163]",163,l,0.8618924268521369,colour,0.06
76,70,1,1,15,46,746,1936.5054608855862,1937.7641841045115,"[37, 0, 217]",217,a,0.7420798351522535,colour,0.06
76,70,1,1,15,47,747,1938.2734913001768,1939.7401594370604,"[41, 0, 213]",213,a,0.949722278630361,colour,0.06
76,70,1,1,15,48,748,1940.2492846753448,1941.5641807175707,"[98, 0, 156]",156,l,0.79784896527417,colour,0.06
76,70,1,1,15,49,749,1942.0729341642,1943.5161223241594,"[74, 0, 180]",180,l,0.9260571936611086,colour,0.06
76,70,1,1,15,50,750,1944.0249281525612,1945.5081638577394,"[90, 0, 164]",164,l,0.9666738479863852,colour,0.06
76,70,1,1,16,1,751,1952.5363243124448,1953.3241817730013,"[6, 0, 248]",248,a,0.2688643855508417,colour,0.06
76,70,1,1,16,2,752,1953.8332046109717,1955.1561886952259,"[96, 0, 158]",158,l,0.806815286166966,colour,0.06
76,70,1,1,16,3,753,1955.6652615517378,1956.8122137470637,"[57, 0, 197]",197,a,0.6301788419950753,colour,0.06
76,70,1,1,16,4,754,1957.3210309969727,1961.1962705051992,"[72, 0, 182]",182,l,3.358817466534674,colour,0.06
76,70,1,1,16,5,755,1961.7056029068772,1963.0522000885103,"[62, 0, 192]",192,a,0.8297801113221794,colour,0.06
76,70,1,1,16,6,756,1963.5611390371341,1965.0602550473996,"[75, 0, 179]",179,l,0.9826904239598662,colour,0.06
76,70,1,1,16,7,757,1965.5695031660143,1966.8283736836165,"[67, 0, 187]",187,a,0.7415355385746807,colour,0.06
76,70,1,1,16,8,758,1967.337482380215,1969.3722413477954,"[63, 0, 191]",191,a,1.5182085316628218,colour,0.06
76,70,1,1,16,9,759,1969.8813941553235,1971.1722718316596,"[82, 0, 172]",172,l,0.7735990174114704,colour,0.06
76,70,1,1,16,10,760,1971.681922067888,1973.0842202438507,"[94, 0, 160]",160,l,0.8861230763141066,colour,0.06
76,70,1,1,16,11,761,1973.5939401912037,1975.8362494423054,"[70, 0, 184]",184,a,1.7252468140795827,colour,0.06
76,70,1,1,16,12,762,1976.3449824089184,1977.7082448326983,"[56, 0, 198]",198,a,0.8463374394923449,colour,0.06
76,70,1,1,16,13,763,1978.2181305894628,1979.8682719608769,"[89, 0, 165]",165,l,1.1318072024732828,colour,0.06
76,70,1,1,16,14,764,1980.377198306378,1981.7162470160984,"[51, 0, 203]",203,a,0.8223041074816138,colour,0.06
76,70,1,1,16,15,765,1982.2254659899045,1983.620313368272,"[98, 0, 156]",156,l,0.8782835516612977,colour,0.06
76,70,1,1,16,16,766,1984.1294445141684,1986.0202563393395,"[81, 0, 173]",173,l,1.3747021041344851,colour,0.06
76,70,1,1,16,17,767,1986.5293748821132,1987.9162464647088,"[64, 0, 190]",190,a,0.870785886188969,colour,0.06
76,70,1,1,16,18,768,1988.4254095123615,1993.5882554035634,"[0, 0, 254]",254,a,4.646540428278968,colour,0.06
76,70,1,1,16,19,769,1994.096563803032,1995.4523009920958,"[97, 0, 157]",157,l,0.8394006120506674,colour,0.06
76,70,1,1,16,20,770,1995.9612265499309,1997.8762961996254,"[53, 0, 201]",201,a,1.398783091455698,colour,0.06
76,70,1,1,16,21,771,1998.3855655859224,1999.700247769244,"[85, 0, 169]",169,l,0.7964389929547906,colour,0.06
76,70,1,1,16,22,772,2000.209688478848,2001.460424480494,"[80, 0, 174]",174,l,0.7345518434885889,colour,0.06
76,70,1,1,16,23,773,2001.9696930788923,2003.3642560997978,"[88, 0, 166]",166,l,0.878152794437483,colour,0.06
76,70,1,1,16,24,774,2003.873319504084,2005.3562716394663,"[50, 0, 204]",204,a,0.9654635558836162,colour,0.06
76,70,1,1,16,25,775,2005.8659951312002,2007.1563233910128,"[91, 0, 163]",163,l,0.7738593502435833,colour,0.06
76,70,1,1,16,26,776,2007.6664348221384,2010.5403332812712,"[71, 0, 183]",183,l,2.3560250913724303,colour,0.06
76,70,1,1,16,27,777,2011.0494400085881,2012.548314984655,"[95, 0, 159]",159,l,0.9829235814977437,colour,0.06
76,70,1,1,16,28,778,2013.057505207602,2014.43628402194,"[68, 0, 186]",186,a,0.8618475284893066,colour,0.06
76,70,1,1,16,29,779,2014.945556952851,2016.3163473682944,"[84, 0, 170]",170,l,0.8544912540819496,colour,0.06
76,70,1,1,16,30,780,2016.8246199276764,2018.3004737584852,"[69, 0, 185]",185,a,0.9579706166405231,colour,0.06
76,70,1,1,16,31,781,2018.8094469718635,2020.1403194176964,"[79, 0, 175]",175,l,0.8135567652061582,colour,0.06
76,70,1,1,16,32,782,2020.649454502156,2021.9643147042952,"[66, 0, 188]",188,a,0.7982113044708967,colour,0.06
76,70,1,1,16,33,783,2022.4733749576844,2023.804332868429,"[65, 0, 189]",189,a,0.8137387225870043,colour,0.06
76,70,1,1,16,34,784,2024.3137330119498,2025.6603758796118,"[76, 0, 178]",178,l,0.8307982056867331,colour,0.06
76,70,1,1,16,35,785,2026.1702856612392,2027.5563809713349,"[90, 0, 164]",164,l,0.868244391400367,colour,0.06
76,70,1,1,16,36,786,2028.0655704066157,2029.5324291656725,"[92, 0, 162]",162,l,0.9501964705996215,colour,0.06
76,70,1,1,16,37,787,2030.0414803605527,2031.308381024981,"[99, 0, 155]",155,l,0.7505703889764845,colour,0.06
76,70,1,1,16,38,788,2031.8176949159242,2033.212352066068,"[29, 0, 225]",225,a,0.8778499260079116,colour,0.06
76,70,1,1,16,39,789,2033.7215072368272,2035.9004110582173,"[59, 0, 195]",195,l,1.6612683371640742,colour,0.06
76,70,1,1,16,40,790,2036.4095638657454,2038.8284091297537,"[74, 0, 180]",180,l,1.901796218007803,colour,0.06
76,70,1,1,16,41,791,2039.3372224413324,2041.4923820141703,"[58, 0, 196]",196,a,1.6361208118032664,colour,0.06
76,70,1,1,16,42,792,2042.001563966507,2043.580406426452,"[86, 0, 168]",168,l,1.0620407497044653,colour,0.06
76,70,1,1,16,43,793,2044.0893575842492,2045.4764024596661,"[83, 0, 171]",171,l,0.8707205075770617,colour,0.06
76,70,1,1,16,44,794,2045.9856371872593,2047.4683667991776,"[61, 0, 193]",193,a,0.9663666470441967,colour,0.06
76,70,1,1,16,45,795,2047.9783002114855,2049.5804450234864,"[77, 0, 177]",177,l,1.0844537953380495,colour,0.06
76,70,1,1,16,46,796,2050.0898105083033,2051.3963810186833,"[54, 0, 200]",200,a,0.7893103621900082,colour,0.06
76,70,1,1,16,47,797,2051.9054901092313,2053.2923995009623,"[78, 0, 176]",176,l,0.8695582649670541,colour,0.06
76,70,1,1,16,48,798,2053.8013341173064,2055.50044406252,"[87, 0, 167]",167,l,1.1821176130324602,colour,0.06
76,70,1,1,16,49,799,2056.009533066768,2057.7403988961596,"[93, 0, 161]",161,l,1.2135422718711197,colour,0.06
76,70,1,1,16,50,800,2058.2492504105903,2059.6764219943434,"[55, 0, 199]",199,a,0.9085207616444677,colour,0.06
