id,age,condition,counterbalance,block,trialinblock,trial,tstart,tend,trialstim,trialintensity,response,RT,trialtype,colourfreq
177,28,0,1,Practice,1,NA,5.907844752073288e-06,2.3894370356574655,"[25, 0, 229]",229,a,1.7713248208165169,colour,0.5
177,28,0,1,Practice,2,NA,2.9071282288059592,4.6374693787656724,"[53, 0, 201]",201,a,1.2071018409915268,colour,0.5
177,28,0,1,Practice,3,NA,5.1573286964558065,6.077539719641209,"[9, 0, 245]",245,a,0.396855135448277,colour,0.5
177,28,0,1,Practice,4,NA,6.594877238385379,7.261470780707896,"[71, 0, 183]",183,a,0.14326364872977138,colour,0.5
177,28,0,1,Practice,5,NA,7.782335982657969,8.701487952377647,"[14, 0, 240]",240,a,0.3959236880764365,colour,0.5
177,28,0,1,Practice,6,NA,9.220795097760856,15.381475428119302,"[74, 0, 180]",180,a,5.6377608249895275,colour,0.5
177,28,0,1,Practice,7,NA,15.892264066264033,16.781526234466583,"[68, 0, 186]",186,a,0.36600710498169065,colour,0.5
177,28,0,1,Practice,8,NA,17.29845494031906,18.26949067786336,"[44, 0, 210]",210,a,0.4477475918829441,colour,0.5
177,28,0,1,Practice,9,NA,18.782894851174206,19.661503076087683,"[35, 0, 219]",219,a,0.3553598574362695,colour,0.5
177,28,0,1,Practice,10,NA,20.173506337217987,25.109582286328077,"[93, 0, 161]",161,a,4.4127976493909955,colour,0.5
177,28,0,1,1,1,1,4.281463218387216,5.6480110748670995,"[11, 0, 243]",243,a,0.8424436603672802,colour,0.5
177,28,0,1,1,2,2,6.157333028502762,9.871996329165995,"[84, 0, 170]",170,a,3.1914046932943165,colour,0.5
177,28,0,1,1,3,3,10.391601222101599,11.416195363271981,"[67, 0, 187]",187,a,0.501287090126425,colour,0.5
177,28,0,1,1,4,4,11.922813560813665,12.94397808611393,"[14, 0, 240]",240,a,0.4978547180071473,colour,0.5
177,28,0,1,1,5,5,13.454111757688224,16.920003859326243,"[25, 0, 229]",229,a,2.9426772110164165,colour,0.5
177,28,0,1,1,6,6,17.438351988326758,18.25601364253089,"[55, 0, 199]",199,a,0.29437626525759697,colour,0.5
177,28,0,1,1,7,7,18.766611265484244,55.56813308829442,"[77, 0, 177]",177,a,36.27817538753152,colour,0.5
177,28,0,1,1,8,8,56.07894693268463,56.73605231847614,"[21, 0, 233]",233,a,0.13385150441899896,colour,0.5
177,28,0,1,1,9,9,57.25070498511195,57.79202697053552,"[87, 0, 167]",167,l,0.017704189755022526,colour,0.5
177,28,0,1,1,10,10,58.31425803247839,59.240043165162206,"[57, 0, 197]",197,a,0.4031740091741085,colour,0.5
177,28,0,1,1,11,11,59.75100115779787,60.33604129077867,"[10, 0, 244]",244,a,0.06176695320755243,colour,0.5
177,28,0,1,1,12,12,60.84472875762731,68.39204626902938,"[82, 0, 172]",172,l,7.024276700802147,colour,0.5
177,28,0,1,1,13,13,68.9071967578493,70.37605019146577,"[63, 0, 191]",191,a,0.9454924263991416,colour,0.5
177,28,0,1,1,14,14,70.89158743759617,71.95202555274591,"[93, 0, 161]",161,l,0.5371724185533822,colour,0.5
177,28,0,1,1,15,15,72.47119288239628,74.04812292708084,"[74, 0, 180]",180,l,1.0538423666730523,colour,0.5
177,28,0,1,1,16,16,74.5649224515073,75.88809244334698,"[23, 0, 231]",231,a,0.7998152859508991,colour,0.5
177,28,0,1,1,17,17,76.40864020539448,77.63205516990274,"[91, 0, 163]",163,l,0.7000752249732614,colour,0.5
177,28,0,1,1,18,18,78.14178436109796,79.2160539724864,"[32, 0, 222]",222,a,0.5510251824744046,colour,0.5
177,28,0,1,1,19,19,79.73555252701044,80.91209345171228,"[34, 0, 220]",220,a,0.6559581104665995,colour,0.5
177,28,0,1,1,20,20,81.42025198275223,82.67210384923965,"[68, 0, 186]",186,a,0.7286172835156322,colour,0.5
177,28,0,1,1,21,21,83.17414279282093,84.3840397624299,"[13, 0, 241]",241,a,0.6865674699656665,colour,0.5
177,28,0,1,1,22,22,84.89287019567564,86.01605397230014,"[42, 0, 212]",212,a,0.5997916548512876,colour,0.5
177,28,0,1,1,23,23,86.5334852267988,87.72836522152647,"[1, 0, 253]",253,a,0.6715528583154082,colour,0.5
177,28,0,1,1,24,24,88.23663048492745,89.52013422269374,"[17, 0, 237]",237,a,0.7602679734118283,colour,0.5
177,28,0,1,1,25,25,90.03359707910568,91.24008097453043,"[27, 0, 227]",227,a,0.6833186293952167,colour,0.5
177,28,0,1,1,26,26,91.75415823142976,93.24809535779059,"[9, 0, 245]",245,a,0.970784857403487,colour,0.5
177,28,0,1,1,27,27,93.76979000074789,94.77609115140513,"[92, 0, 162]",162,l,0.48326230933889747,colour,0.5
177,28,0,1,1,28,28,95.28553598560393,96.2401073621586,"[98, 0, 156]",156,l,0.4313974459655583,colour,0.5
177,28,0,1,1,29,29,96.75413578236476,97.64011326991022,"[39, 0, 215]",215,a,0.3627050956711173,colour,0.5
177,28,0,1,1,30,30,98.16037234244868,99.02414161106572,"[5, 0, 249]",249,a,0.34037754125893116,colour,0.5
177,28,0,1,1,31,31,99.54794490849599,100.32011216739193,"[33, 0, 221]",221,a,0.24881255300715566,colour,0.5
177,28,0,1,1,32,32,100.82918560411781,101.68819090491161,"[29, 0, 225]",225,a,0.3356277518905699,colour,0.5
177,28,0,1,1,33,33,102.19168077921495,103.01613668026403,"[2, 0, 252]",252,a,0.30111143505200744,colour,0.5
177,28,0,1,1,34,34,103.53546666866168,104.53609682293609,"[83, 0, 171]",171,l,0.47729592816904187,colour,0.5
177,28,0,1,1,35,35,105.05101454863325,105.95208778046072,"[37, 0, 217]",217,a,0.3776803226210177,colour,0.5
177,28,0,1,1,36,36,106.47291241632774,107.43223830824718,"[61, 0, 193]",193,a,0.435965278185904,colour,0.5
177,28,0,1,1,37,37,107.94164612097666,108.84009751630947,"[54, 0, 200]",200,a,0.37517624627798796,colour,0.5
177,28,0,1,1,38,38,109.347925609909,110.24810993019491,"[45, 0, 209]",209,a,0.376934377476573,colour,0.5
177,28,0,1,1,39,39,110.75423542549834,111.64010893786326,"[7, 0, 247]",247,a,0.36307294853031635,colour,0.5
177,28,0,1,1,40,40,112.16278150165454,113.02409828826785,"[43, 0, 211]",211,a,0.33803454833105206,colour,0.5
177,28,0,1,1,41,41,113.53475577570498,114.36810473166406,"[89, 0, 165]",165,l,0.3100348161533475,colour,0.5
177,28,0,1,1,42,42,114.88033090950921,115.8801079923287,"[59, 0, 195]",195,a,0.4765700688585639,colour,0.5
177,28,0,1,1,43,43,116.39595165103674,117.32035320159048,"[51, 0, 203]",203,a,0.4011996570043266,colour,0.5
177,28,0,1,1,44,44,117.83339700475335,118.63216111436486,"[90, 0, 164]",164,l,0.27551140962168574,colour,0.5
177,28,0,1,1,45,45,119.13350137416273,119.96010964689776,"[85, 0, 169]",169,l,0.30331973265856504,colour,0.5
177,28,0,1,1,46,46,120.4772943528369,121.23213039431721,"[3, 0, 251]",251,a,0.2318728188984096,colour,0.5
177,28,0,1,1,47,47,121.74282608507201,122.51211590087041,"[40, 0, 214]",214,a,0.24594613770022988,colour,0.5
177,28,0,1,1,48,48,123.02411719271913,123.83209849288687,"[80, 0, 174]",174,l,0.2760486165061593,colour,0.5
177,28,0,1,1,49,49,124.34717612015083,125.16811536531895,"[56, 0, 198]",198,a,0.29759517312049866,colour,0.5
177,28,0,1,1,50,50,125.67534678149968,126.48812473891303,"[94, 0, 160]",160,l,0.2901762858964503,colour,0.5
177,28,0,1,2,1,51,132.23700542701408,133.20011106459424,"[33, 0, 221]",221,a,0.43917000805959105,colour,0.5
177,28,0,1,2,2,52,133.70661386474967,134.55216970061883,"[72, 0, 182]",182,l,0.32000701082870364,colour,0.5
177,28,0,1,2,3,53,135.06808897759765,135.88015840481967,"[89, 0, 165]",165,l,0.2886682474054396,colour,0.5
177,28,0,1,2,4,54,136.3963699163869,137.27214441541582,"[6, 0, 248]",248,a,0.35253755329176784,colour,0.5
177,28,0,1,2,5,55,137.78693532245234,138.53612675517797,"[32, 0, 222]",222,a,0.22441966691985726,colour,0.5
177,28,0,1,2,6,56,139.0561447935179,139.84815994882956,"[99, 0, 155]",155,l,0.26866793213412166,colour,0.5
177,28,0,1,2,7,57,140.36864469526336,141.1361444783397,"[19, 0, 235]",235,a,0.2443593298085034,colour,0.5
177,28,0,1,2,8,58,141.6375449965708,142.76016242196783,"[67, 0, 187]",187,l,0.5976353450678289,colour,0.5
177,28,0,1,2,9,59,143.2799004353583,144.14410608634353,"[42, 0, 212]",212,a,0.3414133577607572,colour,0.5
177,28,0,1,2,10,60,144.6548962998204,145.608144746162,"[13, 0, 241]",241,a,0.43021118035539985,colour,0.5
177,28,0,1,2,11,61,146.12359849689528,146.94416004326195,"[49, 0, 205]",205,a,0.29717808961868286,colour,0.5
177,28,0,1,2,12,62,147.4517853059806,148.28018715558574,"[91, 0, 163]",163,l,0.30510070640593767,colour,0.5
177,28,0,1,2,13,63,148.79552944749594,149.64020976237953,"[81, 0, 173]",173,l,0.3213571161031723,colour,0.5
177,28,0,1,2,14,64,150.154891573824,150.92014209972695,"[31, 0, 223]",223,a,0.2421971126459539,colour,0.5
177,28,0,1,2,15,65,151.43616180773824,152.21613746788353,"[20, 0, 234]",234,a,0.25677022198215127,colour,0.5
177,28,0,1,2,16,66,152.7329964628443,153.6081624692306,"[44, 0, 210]",210,a,0.35185462329536676,colour,0.5
177,28,0,1,2,17,67,154.12366860173643,154.80816995259374,"[43, 0, 211]",211,a,0.16122698970139027,colour,0.5
177,28,0,1,2,18,68,155.32679101685062,156.32813875982538,"[7, 0, 247]",247,a,0.4780493569560349,colour,0.5
177,28,0,1,2,19,69,156.84238615864888,157.81614495115355,"[64, 0, 190]",190,l,0.4504647389985621,colour,0.5
177,28,0,1,2,20,70,158.3268504878506,159.36023055762053,"[93, 0, 161]",161,l,0.5100407237187028,colour,0.5
177,28,0,1,2,21,71,159.8736650571227,160.7841862733476,"[17, 0, 237]",237,a,0.3872838765382767,colour,0.5
177,28,0,1,2,22,72,161.29548730608076,162.22426173463464,"[88, 0, 166]",166,l,0.40543271927163005,colour,0.5
177,28,0,1,2,23,73,162.73298110300675,163.58428276563063,"[37, 0, 217]",217,a,0.328037541359663,colour,0.5
177,28,0,1,2,24,74,164.09245468769222,164.9282671539113,"[15, 0, 239]",239,a,0.31261648004874587,colour,0.5
177,28,0,1,2,25,75,165.43606334598735,166.25623065186664,"[98, 0, 156]",156,l,0.29679408902302384,colour,0.5
177,28,0,1,2,26,76,166.7693540127948,167.61615558480844,"[66, 0, 188]",188,l,0.3234693151898682,colour,0.5
177,28,0,1,2,27,77,168.12872480368242,168.90417556092143,"[29, 0, 225]",225,a,0.2524875346571207,colour,0.5
177,28,0,1,2,28,78,169.42572329891846,170.22415460832417,"[26, 0, 228]",228,a,0.27526604337617755,colour,0.5
177,28,0,1,2,29,79,170.73812513286248,173.06415642006323,"[50, 0, 204]",204,l,1.8029097383841872,colour,0.5
177,28,0,1,2,30,80,173.5818696678616,175.15219766367227,"[55, 0, 199]",199,l,1.0470008589327335,colour,0.5
177,28,0,1,2,31,81,175.66002851445228,176.54429276939481,"[23, 0, 231]",231,a,0.3612202941440046,colour,0.5
177,28,0,1,2,32,82,177.05058683129027,177.9201574595645,"[84, 0, 170]",170,l,0.3462832700461149,colour,0.5
177,28,0,1,2,33,83,178.44119359133765,179.28015998005867,"[68, 0, 186]",186,l,0.3156325565651059,colour,0.5
177,28,0,1,2,34,84,179.80063094198704,180.67213614471257,"[65, 0, 189]",189,l,0.34817964117974043,colour,0.5
177,28,0,1,2,35,85,181.19124006479979,183.06417886912823,"[9, 0, 245]",245,a,1.3499602214433253,colour,0.5
177,28,0,1,2,36,86,183.5818491880782,184.4321949854493,"[71, 0, 183]",183,l,0.32706513442099094,colour,0.5
177,28,0,1,2,37,87,184.94128496339545,185.80019062152132,"[79, 0, 175]",175,l,0.3357644169591367,colour,0.5
177,28,0,1,2,38,88,186.3161918190308,189.08819681266323,"[53, 0, 201]",201,l,2.248675887938589,colour,0.5
177,28,0,1,2,39,89,189.59165084687993,190.44820287823677,"[92, 0, 162]",162,l,0.33320086961612105,colour,0.5
177,28,0,1,2,40,90,190.9666805821471,192.01620914787054,"[24, 0, 230]",230,a,0.5263054040260613,colour,0.5
177,28,0,1,2,41,91,192.52921593002975,193.72821516590193,"[58, 0, 196]",196,l,0.6762305735610425,colour,0.5
177,28,0,1,2,42,92,194.24792915489525,195.21620875410736,"[0, 0, 254]",254,a,0.444998936727643,colour,0.5
177,28,0,1,2,43,93,195.73231038218364,196.9042027364485,"[12, 0, 242]",242,a,0.6485790018923581,colour,0.5
177,28,0,1,2,44,94,197.41987192071974,198.30423936387524,"[74, 0, 180]",180,l,0.3611478260718286,colour,0.5
177,28,0,1,2,45,95,198.81037785625085,199.6881983880885,"[36, 0, 218]",218,a,0.35456743836402893,colour,0.5
177,28,0,1,2,46,96,200.20101494248956,201.0642237677239,"[30, 0, 224]",224,a,0.3398052821867168,colour,0.5
177,28,0,1,2,47,97,201.57607145933434,202.4642233736813,"[57, 0, 197]",197,a,0.36521468544378877,colour,0.5
177,28,0,1,2,48,98,202.98226390825585,203.7602061391808,"[35, 0, 219]",219,a,0.25465684151276946,colour,0.5
177,28,0,1,2,49,99,204.27909423131496,205.0962033192627,"[85, 0, 169]",169,l,0.2938063694164157,colour,0.5
177,28,0,1,2,50,100,205.60729915788397,206.40051633259282,"[95, 0, 159]",159,l,0.27021653670817614,colour,0.5
177,28,0,1,3,1,101,211.62209715368226,212.37621836410835,"[52, 0, 202]",202,a,0.23003079881891608,colour,0.5
177,28,0,1,3,2,102,212.8886016868055,213.80836333101615,"[8, 0, 246]",246,a,0.39674367662519217,colour,0.5
177,28,0,1,3,3,103,214.32602616678923,215.1122427196242,"[33, 0, 221]",221,a,0.26290753297507763,colour,0.5
177,28,0,1,3,4,104,215.62289390526712,216.43221113318577,"[48, 0, 206]",206,a,0.28602908179163933,colour,0.5
177,28,0,1,3,5,105,216.9510279390961,217.6802186635323,"[91, 0, 163]",163,l,0.20579742128029466,colour,0.5
177,28,0,1,3,6,106,218.20097516383976,218.93637842312455,"[84, 0, 170]",170,l,0.21204422088339925,colour,0.5
177,28,0,1,3,7,107,219.45096098538488,220.2082128818147,"[83, 0, 171]",171,l,0.23385701794177294,colour,0.5
177,28,0,1,3,8,108,220.71661874838173,221.48819602513686,"[29, 0, 225]",225,a,0.2482934631407261,colour,0.5
177,28,0,1,3,9,109,221.99782045325264,222.74426441267133,"[18, 0, 236]",236,a,0.22315620770677924,colour,0.5
177,28,0,1,3,10,110,223.26357195153832,224.01623592944816,"[3, 0, 251]",251,a,0.2294341209344566,colour,0.5
177,28,0,1,3,11,111,224.52913952386007,225.32825455069542,"[46, 0, 208]",208,a,0.27588004991412163,colour,0.5
177,28,0,1,3,12,112,225.84248501388356,226.624498042278,"[74, 0, 180]",180,l,0.2595759849064052,colour,0.5
177,28,0,1,3,13,113,227.1385418223217,227.9442238463089,"[97, 0, 157]",157,l,0.2826829613186419,colour,0.5
177,28,0,1,3,14,114,228.45099170552567,229.3042444838211,"[72, 0, 182]",182,l,0.32980354921892285,colour,0.5
177,28,0,1,3,15,115,229.81055784411728,230.61624301876873,"[50, 0, 204]",204,a,0.2824966721236706,colour,0.5
177,28,0,1,3,16,116,231.12303647771478,231.88820823421702,"[39, 0, 215]",215,a,0.24191826907917857,colour,0.5
177,28,0,1,3,17,117,232.40438272431493,233.1521929372102,"[16, 0, 238]",238,a,0.22474143980070949,colour,0.5
177,28,0,1,3,18,118,233.66986049944535,234.52825573226437,"[60, 0, 194]",194,l,0.3350948775187135,colour,0.5
177,28,0,1,3,19,119,235.03873874573037,235.78423983650282,"[17, 0, 237]",237,a,0.22243704367429018,colour,0.5
177,28,0,1,3,20,120,236.30441383784637,237.09623285755515,"[82, 0, 172]",172,l,0.26858679996803403,colour,0.5
177,28,0,1,3,21,121,237.6177884726785,238.4802048788406,"[27, 0, 227]",227,a,0.3386548566631973,colour,0.5
177,28,0,1,3,22,122,238.9942888310179,239.8402712023817,"[42, 0, 212]",212,a,0.32271746220067143,colour,0.5
177,28,0,1,3,23,123,240.35066244984046,241.23224303452298,"[88, 0, 166]",166,l,0.3582400572486222,colour,0.5
177,28,0,1,3,24,124,241.7432526210323,242.60821721423417,"[40, 0, 214]",214,a,0.34241648484021425,colour,0.5
177,28,0,1,3,25,125,243.11819610372186,243.96824415307492,"[45, 0, 209]",209,a,0.3266137861646712,colour,0.5
177,28,0,1,3,26,126,244.47766653774306,245.34428764972836,"[54, 0, 200]",200,a,0.34370830189436674,colour,0.5
177,28,0,1,3,27,127,245.84953801799566,246.7125562215224,"[21, 0, 233]",233,a,0.33957724506035447,colour,0.5
177,28,0,1,3,28,128,247.224527974613,249.5202255952172,"[57, 0, 197]",197,l,1.7835565130226314,colour,0.5
177,28,0,1,3,29,129,250.04436169285327,251.55221617408097,"[59, 0, 195]",195,l,0.9845970552414656,colour,0.5
177,28,0,1,3,30,130,252.06003087759018,253.00034264614806,"[34, 0, 220]",220,a,0.4170181090012193,colour,0.5
177,28,0,1,3,31,131,253.51306073879823,254.6562231690623,"[31, 0, 223]",223,a,0.6199014596641064,colour,0.5
177,28,0,1,3,32,132,255.17120627313852,256.0482540782541,"[71, 0, 183]",183,l,0.3537561148405075,colour,0.5
177,28,0,1,3,33,133,256.56195599911734,257.8162485328503,"[25, 0, 229]",229,a,0.7407958065159619,colour,0.5
177,28,0,1,3,34,134,258.333532881923,259.4482725886628,"[0, 0, 254]",254,a,0.5914523485116661,colour,0.5
177,28,0,1,3,35,135,259.9584724265151,262.00031940918416,"[15, 0, 239]",239,a,1.518545445986092,colour,0.5
177,28,0,1,3,36,136,262.5209167958237,263.44830606598407,"[98, 0, 156]",156,l,0.40413657017052174,colour,0.5
177,28,0,1,3,37,137,263.95851417444646,265.2322355513461,"[23, 0, 231]",231,a,0.7504556803032756,colour,0.5
177,28,0,1,3,38,138,265.73979386035353,266.7122411439195,"[95, 0, 159]",159,l,0.44921073131263256,colour,0.5
177,28,0,1,3,39,139,267.22404787596315,268.40027214773,"[87, 0, 167]",167,l,0.6528183659538627,colour,0.5
177,28,0,1,3,40,140,268.91152198053896,269.8242262881249,"[12, 0, 242]",242,a,0.3893192755058408,colour,0.5
177,28,0,1,3,41,141,270.32408095896244,271.50426693307236,"[73, 0, 181]",181,l,0.6567658893764019,colour,0.5
177,28,0,1,3,42,142,272.0115345832892,273.41628358513117,"[66, 0, 188]",188,l,0.8812769292853773,colour,0.5
177,28,0,1,3,43,143,273.9335214602761,275.1603294131346,"[38, 0, 216]",216,a,0.7037616283632815,colour,0.5
177,28,0,1,3,44,144,275.6678499127738,277.0162394740619,"[93, 0, 161]",161,l,0.8249698705039918,colour,0.5
177,28,0,1,3,45,145,277.51482989732176,278.7762991026975,"[65, 0, 189]",189,l,0.7382283206097782,colour,0.5
177,28,0,1,3,46,146,279.29604696203023,280.2485959366895,"[2, 0, 252]",252,a,0.42932384414598346,colour,0.5
177,28,0,1,3,47,147,280.76473970664665,281.67226572008803,"[94, 0, 160]",160,l,0.384117744397372,colour,0.5
177,28,0,1,3,48,148,282.1867206757888,283.3122450825758,"[76, 0, 178]",178,l,0.6023264513351023,colour,0.5
177,28,0,1,3,49,149,283.8273183773272,285.0002898708917,"[36, 0, 218]",218,a,0.6504222033545375,colour,0.5
177,28,0,1,3,50,150,285.5147546730004,286.3843406611122,"[81, 0, 173]",173,l,0.34630453772842884,colour,0.5
177,28,0,1,4,1,151,290.99085488310084,292.4323505545035,"[66, 0, 188]",188,l,0.9169460348784924,colour,0.5
177,28,0,1,4,2,152,292.93274125037715,293.74429788952693,"[53, 0, 201]",201,a,0.2883350532501936,colour,0.5
177,28,0,1,4,3,153,294.2623919872567,295.0564681417309,"[85, 0, 169]",169,l,0.2708195159211755,colour,0.5
177,28,0,1,4,4,154,295.57483084267005,296.79227666929364,"[88, 0, 166]",166,l,0.6941182957962155,colour,0.5
177,28,0,1,4,5,155,297.31156097119674,298.1362649956718,"[7, 0, 247]",247,a,0.30131465988233685,colour,0.5
177,28,0,1,4,6,156,298.65526178944856,299.6243373528123,"[8, 0, 246]",246,a,0.44588115252554417,colour,0.5
177,28,0,1,4,7,157,300.139707214199,301.04837341373786,"[68, 0, 186]",186,l,0.3853296102024615,colour,0.5
177,28,0,1,4,8,158,301.56150701409206,302.36831701453775,"[39, 0, 215]",215,a,0.283289878629148,colour,0.5
177,28,0,1,4,9,159,302.8897966174409,303.8162977634929,"[93, 0, 161]",161,l,0.4033228834159672,colour,0.5
177,28,0,1,4,10,160,304.3272163714282,305.27234882162884,"[10, 0, 244]",244,a,0.42182539962232113,colour,0.5
177,28,0,1,4,11,161,305.77103573735803,306.6403353996575,"[21, 0, 233]",233,a,0.34606153471395373,colour,0.5
177,28,0,1,4,12,162,307.1616350142285,308.16032547457144,"[89, 0, 165]",165,l,0.47523020347580314,colour,0.5
177,28,0,1,4,13,163,308.67730222968385,309.6563338399865,"[41, 0, 213]",213,a,0.4557481901720166,colour,0.5
177,28,0,1,4,14,164,310.1773928143084,311.2083215834573,"[58, 0, 196]",196,l,0.5077256937511265,colour,0.5
177,28,0,1,4,15,165,311.724157365039,312.8162997327745,"[44, 0, 210]",210,a,0.568777815438807,colour,0.5
177,28,0,1,4,16,166,313.33361086342484,314.5763227334246,"[6, 0, 248]",248,a,0.7195131271146238,colour,0.5
177,28,0,1,4,17,167,315.0835466668941,316.31228958722204,"[9, 0, 245]",245,a,0.7054658024571836,colour,0.5
177,28,0,1,4,18,168,316.8335722666234,317.9683418269269,"[60, 0, 194]",194,a,0.6114695989526808,colour,0.5
177,28,0,1,4,19,169,318.4898312757723,319.75307357823476,"[34, 0, 220]",220,a,0.7399525810033083,colour,0.5
177,28,0,1,4,20,170,320.26548407645896,321.63232022849843,"[22, 0, 232]",232,a,0.8439355511218309,colour,0.5
177,28,0,1,4,21,171,322.1404228336178,323.60035958187655,"[64, 0, 190]",190,l,0.9366832608357072,colour,0.5
177,28,0,1,4,22,172,324.10912424279377,325.5763404564932,"[72, 0, 182]",182,l,0.9438930153846741,colour,0.5
177,28,0,1,4,23,173,326.094129323028,327.63235331187025,"[3, 0, 251]",251,a,1.0149275716394186,colour,0.5
177,28,0,1,4,24,174,328.141019904986,329.48832166194916,"[25, 0, 229]",229,a,0.8240396049804986,colour,0.5
177,28,0,1,4,25,175,329.987895520404,331.2723102248274,"[80, 0, 174]",174,l,0.7612458942458034,colour,0.5
177,28,0,1,4,26,176,331.78482194198295,333.28831732971594,"[73, 0, 181]",181,l,0.9932719194330275,colour,0.5
177,28,0,1,4,27,177,333.80368916038424,335.3043614565395,"[67, 0, 187]",187,l,0.9775188458152115,colour,0.5
177,28,0,1,4,28,178,335.81919686775655,337.35231699887663,"[81, 0, 173]",173,l,1.0098154433071613,colour,0.5
177,28,0,1,4,29,179,337.86606893874705,338.9683867255226,"[40, 0, 214]",214,a,0.5789741086773574,colour,0.5
177,28,0,1,4,30,180,339.4754704493098,341.0963939409703,"[26, 0, 228]",228,a,1.0978054869920015,colour,0.5
177,28,0,1,4,31,181,341.6160650001839,342.5285479663871,"[82, 0, 172]",172,l,0.3870073966681957,colour,0.5
177,28,0,1,4,32,182,343.0420643859543,344.0008672499098,"[45, 0, 209]",209,a,0.43562105670571327,colour,0.5
177,28,0,1,4,33,183,344.51083038561046,345.632417508401,"[94, 0, 160]",160,l,0.5984423365443945,colour,0.5
177,28,0,1,4,34,184,346.1520476080477,347.27266074810177,"[50, 0, 204]",204,a,0.5973852528259158,colour,0.5
177,28,0,1,4,35,185,347.79260671231896,348.80033831391484,"[51, 0, 203]",203,a,0.48288697376847267,colour,0.5
177,28,0,1,4,36,186,349.30983356013894,350.1203953428194,"[74, 0, 180]",180,l,0.28710940247401595,colour,0.5
177,28,0,1,4,37,187,350.63803691091016,351.5283372583799,"[19, 0, 235]",235,a,0.3672426017001271,colour,0.5
177,28,0,1,4,38,188,352.03173300344497,352.8244251809083,"[83, 0, 171]",171,l,0.26925830822438,colour,0.5
177,28,0,1,4,39,189,353.3459563772194,353.92035201983526,"[37, 0, 217]",217,a,0.051132702734321356,colour,0.5
177,28,0,1,4,40,190,354.43970485124737,355.26433168165386,"[13, 0, 241]",241,a,0.30132135516032577,colour,0.5
177,28,0,1,4,41,191,355.7834214232862,356.5366257587448,"[59, 0, 195]",195,a,0.22994297090917826,colour,0.5
177,28,0,1,4,42,192,357.04907249100506,357.76843359321356,"[98, 0, 156]",156,l,0.19604026665911078,colour,0.5
177,28,0,1,4,43,193,358.28344308491796,359.11230455338955,"[65, 0, 189]",189,a,0.30538348853588104,colour,0.5
177,28,0,1,4,44,194,359.62719313427806,360.60037454776466,"[11, 0, 243]",243,a,0.4498117412440479,colour,0.5
177,28,0,1,4,45,195,361.1115554571152,361.96043260069564,"[5, 0, 249]",249,a,0.3229210809804499,colour,0.5
177,28,0,1,4,46,196,362.4738210202195,363.23237536707893,"[49, 0, 205]",205,a,0.23535914858803153,colour,0.5
177,28,0,1,4,47,197,363.73950359551236,364.43232968077064,"[46, 0, 208]",208,a,0.16979787778109312,colour,0.5
177,28,0,1,4,48,198,364.94248540792614,365.6003154707141,"[97, 0, 157]",157,l,0.13521381933242083,colour,0.5
177,28,0,1,4,49,199,366.1144073000178,366.80834757722914,"[35, 0, 219]",219,a,0.1706411032937467,colour,0.5
177,28,0,1,4,50,200,367.3174749710597,368.0085074789822,"[33, 0, 221]",221,a,0.1677557835355401,colour,0.5
177,28,0,1,5,1,201,374.06922640651464,375.0563889783807,"[49, 0, 205]",205,a,0.4631001236848533,colour,0.5
177,28,0,1,5,2,202,375.57007199479267,376.6083629373461,"[34, 0, 220]",220,a,0.5150480889715254,colour,0.5
177,28,0,1,5,3,203,377.1169224041514,377.8483934998512,"[7, 0, 247]",247,a,0.2082132757641375,colour,0.5
177,28,0,1,5,4,204,378.3668964104727,379.01655809627846,"[85, 0, 169]",169,l,0.12641016766428947,colour,0.5
177,28,0,1,5,5,205,379.5231593581848,380.27233188645914,"[42, 0, 212]",212,a,0.22578513296321034,colour,0.5
177,28,0,1,5,6,206,380.7830197000876,381.5604723794386,"[17, 0, 237]",237,a,0.2541917087510228,colour,0.5
177,28,0,1,5,7,207,382.0799587247893,382.880352571141,"[27, 0, 227]",227,a,0.2772289742715657,colour,0.5
177,28,0,1,5,8,208,383.39352516271174,384.10445716092363,"[28, 0, 226]",226,a,0.18750285543501377,colour,0.5
177,28,0,1,5,9,209,384.61226910725236,385.35240600816905,"[64, 0, 190]",190,l,0.21672626864165068,colour,0.5
177,28,0,1,5,10,210,385.86230258410797,386.4643876077607,"[24, 0, 230]",230,a,0.07868423731997609,colour,0.5
177,28,0,1,5,11,211,386.9717170917429,387.744413680397,"[58, 0, 196]",196,l,0.24952265806496143,colour,0.5
177,28,0,1,5,12,212,388.2529896888882,388.97633494250476,"[59, 0, 195]",195,l,0.2000634092837572,colour,0.5
177,28,0,1,5,13,213,389.48726497171447,390.2163808653131,"[67, 0, 187]",187,l,0.20620347699150443,colour,0.5
177,28,0,1,5,14,214,390.73737761192024,391.3284152401611,"[13, 0, 241]",241,a,0.06785503309220076,colour,0.5
177,28,0,1,5,15,215,391.8466845997609,392.4964285995811,"[77, 0, 177]",177,l,0.12642395216971636,colour,0.5
177,28,0,1,5,16,216,393.0031409258954,393.74436641903594,"[47, 0, 207]",207,a,0.21789284236729145,colour,0.5
177,28,0,1,5,17,217,394.25310784298927,394.8643840630539,"[75, 0, 179]",179,l,0.08789827721193433,colour,0.5
177,28,0,1,5,18,218,395.37814387958497,396.0003505232744,"[12, 0, 242]",242,a,0.09881688514724374,colour,0.5
177,28,0,1,5,19,219,396.5208120327443,397.2564279693179,"[70, 0, 184]",184,l,0.21244712639600039,colour,0.5
177,28,0,1,5,20,220,397.770715540275,398.408360180445,"[89, 0, 165]",165,l,0.11432301718741655,colour,0.5
177,28,0,1,5,21,221,398.92703165719286,399.51243137195706,"[23, 0, 231]",231,a,0.06217064568772912,colour,0.5
177,28,0,1,5,22,222,400.0207624081522,400.6966491532512,"[29, 0, 225]",225,a,0.15264901146292686,colour,0.5
177,28,0,1,5,23,223,401.20829046936706,401.76059604715556,"[68, 0, 186]",186,l,0.029022157657891512,colour,0.5
177,28,0,1,5,24,224,402.270724598784,402.8643817002885,"[74, 0, 180]",180,l,0.07038943562656641,colour,0.5
177,28,0,1,5,25,225,403.3800733340904,403.99239639844745,"[96, 0, 158]",158,l,0.08897741697728634,colour,0.5
177,28,0,1,5,26,226,404.5053519802168,405.4963777931407,"[20, 0, 234]",234,a,0.4680818887427449,colour,0.5
177,28,0,1,5,27,227,406.00533740827814,406.6803545402363,"[88, 0, 166]",166,l,0.15644569229334593,colour,0.5
177,28,0,1,5,28,228,407.1881239512004,407.8803891991265,"[55, 0, 199]",199,a,0.16914212377741933,colour,0.5
177,28,0,1,5,29,229,408.39123573247343,409.0723669389263,"[84, 0, 170]",170,l,0.15789307886734605,colour,0.5
177,28,0,1,5,30,230,409.5787433143705,410.27237008931115,"[98, 0, 156]",156,l,0.17032681358978152,colour,0.5
177,28,0,1,5,31,231,410.7818188620731,411.4083936573006,"[0, 0, 254]",254,a,0.10325238481163979,colour,0.5
177,28,0,1,5,32,232,411.9224614617415,412.6725874929689,"[60, 0, 194]",194,a,0.22703914064913988,colour,0.5
177,28,0,1,5,33,233,413.1881759390235,413.8963951221667,"[5, 0, 249]",249,a,0.18481091409921646,colour,0.5
177,28,0,1,5,34,234,414.3964545931667,415.04048151662573,"[53, 0, 201]",201,a,0.12082936195656657,colour,0.5
177,28,0,1,5,35,235,415.5527073009871,416.3683918453753,"[11, 0, 243]",243,a,0.2923302324488759,colour,0.5
177,28,0,1,5,36,236,416.8808819008991,417.7363736969419,"[40, 0, 214]",214,a,0.33223909605294466,colour,0.5
177,28,0,1,5,37,237,418.25730191450566,419.0484911738895,"[1, 0, 253]",253,a,0.26785621466115117,colour,0.5
177,28,0,1,5,38,238,419.5698104808107,420.1604857700877,"[3, 0, 251]",251,a,0.06733397394418716,colour,0.5
177,28,0,1,5,39,239,420.67912061931565,421.4724965142086,"[6, 0, 248]",248,a,0.27068639593198895,colour,0.5
177,28,0,1,5,40,240,421.99163903156295,422.8403944764286,"[51, 0, 203]",203,l,0.3254090095870197,colour,0.5
177,28,0,1,5,41,241,423.3510767761618,423.984369806014,"[30, 0, 224]",224,a,0.11001748684793711,colour,0.5
177,28,0,1,5,42,242,424.49165321001783,425.0884851082228,"[21, 0, 233]",233,a,0.07379069412127137,colour,0.5
177,28,0,1,5,43,243,425.6010346347466,426.16050191782415,"[26, 0, 228]",228,a,0.03613857086747885,colour,0.5
177,28,0,1,5,44,244,426.67922262568027,427.96842611022294,"[52, 0, 202]",202,l,0.7660173447802663,colour,0.5
177,28,0,1,5,45,245,428.4760742164217,429.3605113700032,"[81, 0, 173]",173,l,0.3612990630790591,colour,0.5
177,28,0,1,5,46,246,429.86669791163877,430.632404117845,"[97, 0, 157]",157,l,0.24240742623806,colour,0.5
177,28,0,1,5,47,247,431.1479965024628,432.45642521232367,"[78, 0, 176]",176,l,0.7852075179107487,colour,0.5
177,28,0,1,5,48,248,432.97616677032784,433.6245567253791,"[31, 0, 223]",223,a,0.12579655461013317,colour,0.5
177,28,0,1,5,49,249,434.1323139271699,434.9924023062922,"[79, 0, 175]",175,l,0.3367951135151088,colour,0.5
177,28,0,1,5,50,250,435.50727946544066,436.2723925388418,"[93, 0, 161]",161,l,0.24185643531382084,colour,0.5
177,28,0,1,6,1,251,440.82867399742827,441.9206273187883,"[32, 0, 222]",222,a,0.5682677845470607,colour,0.5
177,28,0,1,6,2,252,442.4414106006734,443.0087170051411,"[83, 0, 171]",171,l,0.04398281220346689,colour,0.5
177,28,0,1,6,3,253,443.51962222205475,444.2086059404537,"[79, 0, 175]",175,l,0.16585350455716252,colour,0.5
177,28,0,1,6,4,254,444.7225949759595,445.3124821782112,"[82, 0, 172]",172,l,0.06667940085753798,colour,0.5
177,28,0,1,6,5,255,445.8318669111468,446.72844359697774,"[53, 0, 201]",201,a,0.3733066567219794,colour,0.5
177,28,0,1,6,6,256,447.2384579330683,448.1205012877472,"[64, 0, 190]",190,a,0.35921128280460835,colour,0.5
177,28,0,1,6,7,257,448.61639149906114,449.2565071322024,"[55, 0, 199]",199,a,0.1171366567723453,colour,0.5
177,28,0,1,6,8,258,449.77261269884184,450.5684359562583,"[16, 0, 238]",238,a,0.27248036675155163,colour,0.5
177,28,0,1,6,9,259,451.08526738220826,451.7764184381813,"[29, 0, 225]",225,a,0.16782628232613206,colour,0.5
177,28,0,1,6,10,260,452.28837837604806,453.2804530020803,"[47, 0, 207]",207,a,0.4687884491868317,colour,0.5
177,28,0,1,6,11,261,453.77804305497557,454.5684714023955,"[14, 0, 240]",240,a,0.267196127679199,colour,0.5
177,28,0,1,6,12,262,455.07486431952566,455.8244354208,"[60, 0, 194]",194,l,0.226279410533607,colour,0.5
177,28,0,1,6,13,263,456.34167880984023,457.1844926858321,"[25, 0, 229]",229,a,0.3194954036734998,colour,0.5
177,28,0,1,6,14,264,457.7012953609228,458.4564901967533,"[37, 0, 217]",217,a,0.23012256482616067,colour,0.5
177,28,0,1,6,15,265,458.96908934786916,459.5524406665936,"[90, 0, 164]",164,l,0.06017660070210695,colour,0.5
177,28,0,1,6,16,266,460.0627870154567,460.79243657086045,"[92, 0, 162]",162,l,0.20643348339945078,colour,0.5
177,28,0,1,6,17,267,461.3138184994459,461.90445243474096,"[75, 0, 179]",179,l,0.06731585692614317,colour,0.5
177,28,0,1,6,18,268,462.4232267057523,463.2964356886223,"[78, 0, 176]",176,l,0.3498818459920585,colour,0.5
177,28,0,1,6,19,269,463.8138118041679,464.6165155605413,"[98, 0, 156]",156,l,0.27943293983116746,colour,0.5
177,28,0,1,6,20,270,465.12636448116973,465.86445377394557,"[58, 0, 196]",196,a,0.21480626659467816,colour,0.5
177,28,0,1,6,21,271,466.37825258122757,467.26446558954194,"[72, 0, 182]",182,l,0.3628815389238298,colour,0.5
177,28,0,1,6,22,272,467.78445605840534,468.4564768061973,"[2, 0, 252]",252,a,0.1486770696938038,colour,0.5
177,28,0,1,6,23,273,468.97202311083674,469.85651500942186,"[86, 0, 168]",168,l,0.3614006759598851,colour,0.5
177,28,0,1,6,24,274,470.3626554706134,471.11246642423794,"[30, 0, 224]",224,a,0.2265168996527791,colour,0.5
177,28,0,1,6,25,275,471.6282380092889,472.55248950375244,"[15, 0, 239]",239,a,0.4008774901740253,colour,0.5
177,28,0,1,6,26,276,473.0658629569225,473.8324521672912,"[59, 0, 195]",195,l,0.24339086143299937,colour,0.5
177,28,0,1,6,27,277,474.3470788397826,475.2724831234664,"[27, 0, 227]",227,a,0.4021862419322133,colour,0.5
177,28,0,1,6,28,278,475.7845159228891,476.56049207178876,"[44, 0, 210]",210,a,0.25271320901811123,colour,0.5
177,28,0,1,6,29,279,477.081376966089,477.7925661462359,"[34, 0, 220]",220,a,0.19091632310301065,colour,0.5
177,28,0,1,6,30,280,478.31273620948195,479.0724969082512,"[1, 0, 253]",253,a,0.23656510701403022,colour,0.5
177,28,0,1,6,31,281,479.5937602892518,480.4964782241732,"[48, 0, 206]",206,a,0.3791655180975795,colour,0.5
177,28,0,1,6,32,282,481.0158755602315,481.7684367438778,"[84, 0, 170]",170,l,0.2292655548080802,colour,0.5
177,28,0,1,6,33,283,482.2814250155352,482.99259332194924,"[91, 0, 163]",163,l,0.18788055423647165,colour,0.5
177,28,0,1,6,34,284,483.5004730094224,484.2644817372784,"[49, 0, 205]",205,a,0.24068356025964022,colour,0.5
177,28,0,1,6,35,285,484.7816806216724,485.5204229122028,"[42, 0, 212]",212,a,0.21558962762355804,colour,0.5
177,28,0,1,6,36,286,486.03169716335833,486.7524442113936,"[99, 0, 155]",155,l,0.19746599113568664,colour,0.5
177,28,0,1,6,37,287,487.26603703713045,487.88058060826734,"[10, 0, 244]",244,a,0.09125581895932555,colour,0.5
177,28,0,1,6,38,288,488.3938563875854,489.13651390653104,"[31, 0, 223]",223,a,0.21932014217600226,colour,0.5
177,28,0,1,6,39,289,489.643865052145,490.3204804137349,"[74, 0, 180]",180,l,0.15333863720297813,colour,0.5
177,28,0,1,6,40,290,490.8312962274067,491.5525099840015,"[21, 0, 233]",233,a,0.19820012152194977,colour,0.5
177,28,0,1,6,41,291,492.0657577998936,492.7124837534502,"[77, 0, 177]",177,l,0.1235437523573637,colour,0.5
177,28,0,1,6,42,292,493.22190062422305,493.83246201323345,"[89, 0, 165]",165,l,0.08682307600975037,colour,0.5
177,28,0,1,6,43,293,494.34764637285843,494.9524989561178,"[7, 0, 247]",247,a,0.08154592663049698,colour,0.5
177,28,0,1,6,44,294,495.47263672342524,496.12048317072913,"[68, 0, 186]",186,l,0.12463903985917568,colour,0.5
177,28,0,1,6,45,295,496.6288878559135,497.20848542358726,"[8, 0, 246]",246,a,0.056256646290421486,colour,0.5
177,28,0,1,6,46,296,497.72262884676456,498.2884662039578,"[20, 0, 234]",234,a,0.042635463643819094,colour,0.5
177,28,0,1,6,47,297,498.8008211697452,499.4004867943004,"[0, 0, 254]",254,a,0.07637944770976901,colour,0.5
177,28,0,1,6,48,298,499.9102104716003,500.62447598716244,"[23, 0, 231]",231,a,0.190931289922446,colour,0.5
177,28,0,1,6,49,299,501.1444696066901,501.76050388719887,"[97, 0, 157]",157,l,0.09257441759109497,colour,0.5
177,28,0,1,6,50,300,502.2696308866143,503.04847896425053,"[71, 0, 183]",183,l,0.25564460828900337,colour,0.5
177,28,0,1,7,1,301,507.53438989212736,509.13652296504006,"[30, 0, 224]",224,a,1.0781139475293458,colour,0.5
177,28,0,1,7,2,302,509.64468740392476,510.608656746801,"[8, 0, 246]",246,a,0.4407505141571164,colour,0.5
177,28,0,1,7,3,303,511.1288898251951,511.8567012986168,"[36, 0, 218]",218,a,0.2043449147604406,colour,0.5
177,28,0,1,7,4,304,512.3632887760177,513.2885528500192,"[59, 0, 195]",195,l,0.40201294980943203,colour,0.5
177,28,0,1,7,5,305,513.8008010834455,514.6805967562832,"[56, 0, 198]",198,a,0.3565524253062904,colour,0.5
177,28,0,1,7,6,306,515.1914535299875,516.1685434766114,"[60, 0, 194]",194,a,0.45381046552211046,colour,0.5
177,28,0,1,7,7,307,516.6758520868607,517.4565370646305,"[51, 0, 203]",203,a,0.2573696565814316,colour,0.5
177,28,0,1,7,8,308,517.9727005269378,518.6085464698263,"[25, 0, 229]",229,a,0.11274841893464327,colour,0.5
177,28,0,1,7,9,309,519.1288575297222,519.9685615934432,"[23, 0, 231]",231,a,0.316375351510942,colour,0.5
177,28,0,1,7,10,310,520.4882933050394,521.192546847742,"[72, 0, 182]",182,l,0.1813092245720327,colour,0.5
177,28,0,1,7,11,311,521.7070766342804,522.4565457291901,"[93, 0, 161]",161,l,0.2264716075733304,colour,0.5
177,28,0,1,7,12,312,522.9726835913025,523.6965144579299,"[83, 0, 171]",171,l,0.20096059190109372,colour,0.5
177,28,0,1,7,13,313,524.207105779089,524.9205367336981,"[17, 0, 237]",237,a,0.19019794696941972,colour,0.5
177,28,0,1,7,14,314,525.4413479790092,526.064543964807,"[82, 0, 172]",172,l,0.09981055976822972,colour,0.5
177,28,0,1,7,15,315,526.5820468990132,527.1605153083801,"[7, 0, 247]",247,a,0.055102281738072634,colour,0.5
177,28,0,1,7,16,316,527.6759741790593,528.3845387659967,"[53, 0, 201]",201,a,0.18536741938441992,colour,0.5
177,28,0,1,7,17,317,528.8916717208922,529.5365497465245,"[73, 0, 181]",181,l,0.12149850744754076,colour,0.5
177,28,0,1,7,18,318,530.0480169826187,530.6324970657006,"[4, 0, 250]",250,a,0.06122580822557211,colour,0.5
177,28,0,1,7,19,319,531.1416693576612,531.8165439176373,"[37, 0, 217]",217,a,0.15154624171555042,colour,0.5
177,28,0,1,7,20,320,532.3296062322333,533.0089757624082,"[24, 0, 230]",230,a,0.15663670795038342,colour,0.5
177,28,0,1,7,21,321,533.5171488658525,534.1364741278812,"[10, 0, 244]",244,a,0.09605602081865072,colour,0.5
177,28,0,1,7,22,322,534.6578674782068,535.3125759135,"[86, 0, 168]",168,l,0.1315829479135573,colour,0.5
177,28,0,1,7,23,323,535.8296420718543,536.4245110391639,"[32, 0, 222]",222,a,0.07161508593708277,colour,0.5
177,28,0,1,7,24,324,536.9389919890091,537.6485368600115,"[2, 0, 252]",252,a,0.18652729783207178,colour,0.5
177,28,0,1,7,25,325,538.1580549492501,538.7925342447124,"[41, 0, 213]",213,a,0.11146290367469192,colour,0.5
177,28,0,1,7,26,326,539.3140693795867,539.8725524405017,"[88, 0, 166]",166,l,0.03475262504070997,colour,0.5
177,28,0,1,7,27,327,540.3920588721521,541.2965491162613,"[62, 0, 192]",192,l,0.3811406581662595,colour,0.5
177,28,0,1,7,28,328,541.813948075287,542.4885418224148,"[71, 0, 183]",183,l,0.15126149030402303,colour,0.5
177,28,0,1,7,29,329,543.0015411213972,543.7925539370626,"[54, 0, 200]",200,a,0.26804210990667343,colour,0.5
177,28,0,1,7,30,330,544.3141166414134,545.032524635084,"[31, 0, 223]",223,a,0.19507298013195395,colour,0.5
177,28,0,1,7,31,331,545.5484699062072,546.2250880245119,"[38, 0, 216]",216,a,0.1532374187372625,colour,0.5
177,28,0,1,7,32,332,546.7359818196855,547.7205741493963,"[58, 0, 196]",196,l,0.46130969747900963,colour,0.5
177,28,0,1,7,33,333,548.235966459848,548.8245492423885,"[39, 0, 215]",215,a,0.06320725008845329,colour,0.5
177,28,0,1,7,34,334,549.3319177175872,549.90453238599,"[29, 0, 225]",225,a,0.04930998105555773,colour,0.5
177,28,0,1,7,35,335,550.425656738691,551.0245835068636,"[74, 0, 180]",180,l,0.07571384683251381,colour,0.5
177,28,0,1,7,36,336,551.5346273817122,552.2405803720467,"[13, 0, 241]",241,a,0.1826731152832508,colour,0.5
177,28,0,1,7,37,337,552.7545977644622,553.6565799941309,"[16, 0, 238]",238,a,0.37901900708675385,colour,0.5
177,28,0,1,7,38,338,554.1764889364131,554.9205686352216,"[0, 0, 254]",254,a,0.2207529554143548,colour,0.5
177,28,0,1,7,39,339,555.4420635979623,556.1286015296355,"[12, 0, 242]",242,a,0.16320252371951938,colour,0.5
177,28,0,1,7,40,340,556.6452273675241,557.3045646813698,"[69, 0, 185]",185,l,0.13603892782703042,colour,0.5
177,28,0,1,7,41,341,557.8171149953268,558.4725670129992,"[79, 0, 175]",175,l,0.13216426596045494,colour,0.5
177,28,0,1,7,42,342,558.98902743496,559.7605735980906,"[55, 0, 199]",199,a,0.24852189421653748,colour,0.5
177,28,0,1,7,43,343,560.2702224440873,560.8805758822709,"[50, 0, 204]",204,a,0.08713145833462477,colour,0.5
177,28,0,1,7,44,344,561.3953277980909,562.0405811597593,"[6, 0, 248]",248,a,0.12195418775081635,colour,0.5
177,28,0,1,7,45,345,562.5515155214816,563.2245744485408,"[76, 0, 178]",178,l,0.14976251032203436,colour,0.5
177,28,0,1,7,46,346,563.7390069551766,564.3365564420819,"[1, 0, 253]",253,a,0.0747816120274365,colour,0.5
177,28,0,1,7,47,347,564.8483702628873,565.5685678948648,"[99, 0, 155]",155,l,0.1968787661753595,colour,0.5
177,28,0,1,7,48,348,566.0827613365836,566.7766846781597,"[89, 0, 165]",165,l,0.17990831239148974,colour,0.5
177,28,0,1,7,49,349,567.2826506658457,567.9685596241616,"[48, 0, 206]",206,a,0.16327144671231508,colour,0.5
177,28,0,1,7,50,350,568.4733550995588,569.2165742437355,"[64, 0, 190]",190,l,0.21987152704969049,colour,0.5
177,28,0,1,8,1,351,573.6789500839077,574.4645427833311,"[7, 0, 247]",247,a,0.27387576503679156,colour,0.5
177,28,0,1,8,2,352,574.9798988602124,575.6085374113172,"[17, 0, 237]",237,a,0.10549258394166827,colour,0.5
177,28,0,1,8,3,353,576.1204457553104,576.656619772315,"[96, 0, 158]",158,l,0.01289414195343852,colour,0.5
177,28,0,1,8,4,354,577.1674198321998,577.8966152826324,"[68, 0, 186]",186,l,0.20601088600233197,colour,0.5
177,28,0,1,8,5,355,578.4173453953117,579.0805479190312,"[62, 0, 192]",192,l,0.1399643961340189,colour,0.5
177,28,0,1,8,6,356,579.5784325692803,580.1765554966405,"[82, 0, 172]",172,l,0.0747725535184145,colour,0.5
177,28,0,1,8,7,357,580.6878218706697,581.336903814692,"[8, 0, 246]",246,a,0.12579104071483016,colour,0.5
177,28,0,1,8,8,358,581.8440926955082,584.9845734247938,"[20, 0, 234]",234,a,2.6171295680105686,colour,0.5
177,28,0,1,8,9,359,585.5002764798701,586.2249222151004,"[21, 0, 233]",233,a,0.20128827216103673,colour,0.5
177,28,0,1,8,10,360,586.7346963048913,587.416632139124,"[10, 0, 244]",244,a,0.15864217467606068,colour,0.5
177,28,0,1,8,11,361,587.9377182894386,588.5445924866945,"[70, 0, 184]",184,l,0.08355375612154603,colour,0.5
177,28,0,1,8,12,362,589.0630548312329,590.224589808844,"[48, 0, 206]",206,a,0.6384500567801297,colour,0.5
177,28,0,1,8,13,363,590.734656132292,591.2885587578639,"[18, 0, 236]",236,a,0.030539254657924175,colour,0.5
177,28,0,1,8,14,364,591.7972229877487,592.488593810238,"[36, 0, 218]",218,a,0.1681299381889403,colour,0.5
177,28,0,1,8,15,365,593.0002902648412,593.776544468943,"[49, 0, 205]",205,a,0.2529361257329583,colour,0.5
177,28,0,1,8,16,366,594.2971591847017,594.9685903443024,"[78, 0, 176]",176,l,0.14803943177685142,colour,0.5
177,28,0,1,8,17,367,595.4846045384184,596.0166703425348,"[3, 0, 251]",251,a,0.009088009130209684,colour,0.5
177,28,0,1,8,18,368,596.5242349528708,597.2645955588669,"[43, 0, 211]",211,a,0.21702007856220007,colour,0.5
177,28,0,1,8,19,369,597.7753463876434,598.4565669968724,"[28, 0, 226]",226,a,0.15789741091430187,colour,0.5
177,28,0,1,8,20,370,598.9629772431217,599.5286074373871,"[41, 0, 213]",213,a,0.04274967918172479,colour,0.5
177,28,0,1,8,21,371,600.0411691726185,600.7765937000513,"[11, 0, 243]",243,a,0.21223405515775084,colour,0.5
177,28,0,1,8,22,372,601.2909679170698,602.0246280115098,"[64, 0, 190]",190,l,0.2103361082263291,colour,0.5
177,28,0,1,8,23,373,602.5410163602792,603.1445901235566,"[30, 0, 224]",224,a,0.08067867625504732,colour,0.5
177,28,0,1,8,24,374,603.6659279414453,604.320582814049,"[12, 0, 242]",242,a,0.1316349357366562,colour,0.5
177,28,0,1,8,25,375,604.8379049724899,605.5365796787664,"[60, 0, 194]",194,l,0.17544169863685966,colour,0.5
177,28,0,1,8,26,376,606.0565744801424,606.7286164956167,"[34, 0, 220]",220,a,0.14881176501512527,colour,0.5
177,28,0,1,8,27,377,607.2441423200071,607.8325675642118,"[90, 0, 164]",164,l,0.06509023020043969,colour,0.5
177,28,0,1,8,28,378,608.3540975791402,609.3366214265116,"[89, 0, 165]",165,l,0.4591411780565977,colour,0.5
177,28,0,1,8,29,379,609.8541156961583,610.6006340929307,"[39, 0, 215]",215,a,0.22320701368153095,colour,0.5
177,28,0,1,8,30,380,611.1197045361623,611.8409320767969,"[73, 0, 181]",181,l,0.19794609025120735,colour,0.5
177,28,0,1,8,31,381,612.3541046683677,613.0486093275249,"[77, 0, 177]",177,l,0.17115192208439112,colour,0.5
177,28,0,1,8,32,382,613.5573129425757,614.2809492489323,"[19, 0, 235]",235,a,0.2006848994642496,colour,0.5
177,28,0,1,8,33,383,614.7921014074236,615.6406725323759,"[40, 0, 214]",214,a,0.32524083741009235,colour,0.5
177,28,0,1,8,34,384,616.1515706595965,617.1206127461046,"[57, 0, 197]",197,l,0.44651209469884634,colour,0.5
177,28,0,1,8,35,385,617.6235260292888,618.3845816953108,"[69, 0, 185]",185,l,0.2377171078696847,colour,0.5
177,28,0,1,8,36,386,618.9061006829143,619.5365914944559,"[15, 0, 239]",239,a,0.10743857966735959,colour,0.5
177,28,0,1,8,37,387,620.046696415171,620.7046375428326,"[66, 0, 188]",188,l,0.1345824832096696,colour,0.5
177,28,0,1,8,38,388,621.2186273657717,621.9046217887662,"[67, 0, 187]",187,l,0.16261766152456403,colour,0.5
177,28,0,1,8,39,389,622.4217415102758,623.176655927673,"[83, 0, 171]",171,l,0.23166447412222624,colour,0.5
177,28,0,1,8,40,390,623.6887162965722,624.3686250029132,"[84, 0, 170]",170,l,0.1567509239539504,colour,0.5
177,28,0,1,8,41,391,624.8762349057943,625.4966302486137,"[35, 0, 219]",219,a,0.09720447706058621,colour,0.5
177,28,0,1,8,42,392,626.0180117837153,626.6246319501661,"[85, 0, 169]",169,l,0.08327097445726395,colour,0.5
177,28,0,1,8,43,393,627.1450493489392,628.0246843318455,"[65, 0, 189]",189,l,0.35637558810412884,colour,0.5
177,28,0,1,8,44,394,628.5349156772718,629.5766374166124,"[58, 0, 196]",196,a,0.5187955382280052,colour,0.5
177,28,0,1,8,45,395,630.0974805634469,630.8969622612931,"[81, 0, 173]",173,l,0.27628886280581355,colour,0.5
177,28,0,1,8,46,396,631.4099402925931,632.0166770378128,"[91, 0, 163]",163,l,0.08345765760168433,colour,0.5
177,28,0,1,8,47,397,632.5348948035389,633.1366363926791,"[27, 0, 227]",227,a,0.07856962783262134,colour,0.5
177,28,0,1,8,48,398,633.6445204126649,634.2806479563005,"[53, 0, 201]",201,a,0.11331673944368958,colour,0.5
177,28,0,1,8,49,399,634.800506092608,635.4405988827348,"[47, 0, 207]",207,a,0.11675620079040527,colour,0.5
177,28,0,1,8,50,400,635.957294431515,636.5366675066762,"[93, 0, 161]",161,l,0.056142824701964855,colour,0.5
177,28,0,1,9,1,401,641.0874662273563,641.8246177718975,"[15, 0, 239]",239,a,0.21071971533820033,colour,0.5
177,28,0,1,9,2,402,642.3404771843925,642.9367600604892,"[73, 0, 181]",181,l,0.07292856415733695,colour,0.5
177,28,0,1,9,3,403,643.4499306827784,644.0726154558361,"[14, 0, 240]",240,a,0.09944270690903068,colour,0.5
177,28,0,1,9,4,404,644.5904535534792,646.6566272554919,"[95, 0, 159]",159,l,1.5428757099434733,colour,0.5
177,28,0,1,9,5,405,647.1686281533912,647.8166581331752,"[3, 0, 251]",251,a,0.12466818420216441,colour,0.5
177,28,0,1,9,6,406,648.3248674706556,649.0886422530748,"[71, 0, 183]",183,l,0.24049648270010948,colour,0.5
177,28,0,1,9,7,407,649.5985490689054,650.2085968819447,"[92, 0, 162]",162,l,0.08714209171012044,colour,0.5
177,28,0,1,9,8,408,650.7234862507321,651.3926453096792,"[84, 0, 170]",170,l,0.1458728821016848,colour,0.5
177,28,0,1,9,9,409,651.9110690569505,652.5766539582983,"[17, 0, 237]",237,a,0.1422880906611681,colour,0.5
177,28,0,1,9,10,410,653.0828554658219,653.8406307846308,"[37, 0, 217]",217,a,0.23444463731721044,colour,0.5
177,28,0,1,9,11,411,654.3484628167935,655.0486983368173,"[45, 0, 209]",209,a,0.1769556449726224,colour,0.5
177,28,0,1,9,12,412,655.5672886813991,656.2246607011184,"[19, 0, 235]",235,a,0.13411616906523705,colour,0.5
177,28,0,1,9,13,413,656.739127472043,657.6086358730681,"[67, 0, 187]",187,l,0.3463628273457289,colour,0.5
177,28,0,1,9,14,414,658.1297744046897,658.9847542000934,"[54, 0, 200]",200,a,0.3316471450962126,colour,0.5
177,28,0,1,9,15,415,659.504780115094,660.216979905963,"[64, 0, 190]",190,l,0.18891597678884864,colour,0.5
177,28,0,1,9,16,416,660.7235291800462,661.3846281692386,"[26, 0, 228]",228,a,0.13767772307619452,colour,0.5
177,28,0,1,9,17,417,661.8954266537912,663.0006301542744,"[55, 0, 199]",199,a,0.5821047946810722,colour,0.5
177,28,0,1,9,18,418,663.5204914417118,664.5686415443197,"[27, 0, 227]",227,a,0.5249017351306975,colour,0.5
177,28,0,1,9,19,419,665.0829964629374,665.720666309353,"[11, 0, 243]",243,a,0.1144006047397852,colour,0.5
177,28,0,1,9,20,420,666.239275558386,666.824642190244,"[43, 0, 211]",211,a,0.062263593543320894,colour,0.5
177,28,0,1,9,21,421,667.3329251767136,667.9447137913667,"[75, 0, 179]",179,l,0.1008235327899456,colour,0.5
177,28,0,1,9,22,422,668.4612848847173,669.2327006841078,"[99, 0, 155]",155,l,0.24819421349093318,colour,0.5
177,28,0,1,9,23,423,669.7424436602741,670.784721117001,"[66, 0, 188]",188,l,0.5189810399897397,colour,0.5
177,28,0,1,9,24,424,671.3063007569872,671.9447370283306,"[12, 0, 242]",242,a,0.1154313012957573,colour,0.5
177,28,0,1,9,25,425,672.4624955691397,673.0487054260448,"[39, 0, 215]",215,a,0.06280237529426813,colour,0.5
177,28,0,1,9,26,426,673.5562991811894,674.2566122892313,"[61, 0, 193]",193,a,0.17730971286073327,colour,0.5
177,28,0,1,9,27,427,674.7750576981343,675.9926331001334,"[56, 0, 198]",198,l,0.6943136435002089,colour,0.5
177,28,0,1,9,28,428,676.509465707466,677.3447366347536,"[29, 0, 225]",225,a,0.31199617218226194,colour,0.5
177,28,0,1,9,29,429,677.8531948830932,679.112682252191,"[86, 0, 168]",168,l,0.736247272696346,colour,0.5
177,28,0,1,9,30,430,679.634412735235,680.3526482237503,"[6, 0, 248]",248,a,0.1953585185110569,colour,0.5
177,28,0,1,9,31,431,680.8687687567435,681.5607035672292,"[51, 0, 203]",203,a,0.168830590788275,colour,0.5
177,28,0,1,9,32,432,682.0718746306375,682.8326802044176,"[97, 0, 157]",157,l,0.2375587816350162,colour,0.5
177,28,0,1,9,33,433,683.3531515598297,683.9926433400251,"[82, 0, 172]",172,l,0.11621072329580784,colour,0.5
177,28,0,1,9,34,434,684.5094637381844,685.2726780776866,"[70, 0, 184]",184,l,0.24066189862787724,colour,0.5
177,28,0,1,9,35,435,685.7906717443839,686.4326640567742,"[23, 0, 231]",231,a,0.11864823987707496,colour,0.5
177,28,0,1,9,36,436,686.9469339046627,687.6566831818782,"[38, 0, 216]",216,a,0.18653832515701652,colour,0.5
177,28,0,1,9,37,437,688.1657463782467,689.3927969401702,"[53, 0, 201]",201,a,0.7037970745004714,colour,0.5
177,28,0,1,9,38,438,689.9019739585929,690.6007731207646,"[50, 0, 204]",204,a,0.17554213013499975,colour,0.5
177,28,0,1,9,39,439,691.1223299172707,691.7690097908489,"[44, 0, 210]",210,a,0.1235776231624186,colour,0.5
177,28,0,1,9,40,440,692.2786255539395,692.9207049063407,"[83, 0, 171]",171,l,0.11886564316228032,colour,0.5
177,28,0,1,9,41,441,693.4346624338068,694.0007837545127,"[0, 0, 254]",254,a,0.042733531445264816,colour,0.5
177,28,0,1,9,42,442,694.5129122585058,695.185032649897,"[49, 0, 205]",205,a,0.14965026453137398,colour,0.5
177,28,0,1,9,43,443,695.7003658832982,696.2966857813299,"[8, 0, 246]",246,a,0.07334289094433188,colour,0.5
177,28,0,1,9,44,444,696.8097839355469,697.8646648759022,"[41, 0, 213]",213,a,0.53164596343413,colour,0.5
177,28,0,1,9,45,445,698.3722416954115,699.0726985577494,"[48, 0, 206]",206,a,0.17725930083543062,colour,0.5
177,28,0,1,9,46,446,699.5909836711362,700.2566922400147,"[87, 0, 167]",167,l,0.14276779582723975,colour,0.5
177,28,0,1,9,47,447,700.7635837672278,701.3286543050781,"[36, 0, 218]",218,a,0.04179420741274953,colour,0.5
177,28,0,1,9,48,448,701.8420313028619,702.5126385353506,"[98, 0, 156]",156,l,0.14767591143026948,colour,0.5
177,28,0,1,9,49,449,703.0291040777229,703.6726768957451,"[31, 0, 223]",223,a,0.12017675815150142,colour,0.5
177,28,0,1,9,50,450,704.1760781547055,704.8487160601653,"[93, 0, 161]",161,l,0.16181145794689655,colour,0.5
177,28,0,1,10,1,451,709.3190519325435,709.968689199537,"[34, 0, 220]",220,a,0.12548502162098885,colour,0.5
177,28,0,1,10,2,452,710.4761557425372,711.0567670711316,"[93, 0, 161]",161,l,0.05757445655763149,colour,0.5
177,28,0,1,10,3,453,711.5699936193414,712.2727139173076,"[99, 0, 155]",155,l,0.17957236105576158,colour,0.5
177,28,0,1,10,4,454,712.7885536379181,713.4087024331093,"[9, 0, 245]",245,a,0.0952797494828701,colour,0.5
177,28,0,1,10,5,455,713.9166734931059,714.6887194472365,"[6, 0, 248]",248,a,0.2487093647941947,colour,0.5
177,28,0,1,10,6,456,715.1979456963018,715.7927134451456,"[89, 0, 165]",165,l,0.0714768460020423,colour,0.5
177,28,0,1,10,7,457,716.3082376942039,717.2167321764864,"[87, 0, 167]",167,l,0.3861614144407213,colour,0.5
177,28,0,1,10,8,458,717.7291572471149,718.4486814015545,"[33, 0, 221]",221,a,0.19617929449304938,colour,0.5
177,28,0,1,10,9,459,718.9634664007463,720.1687305537052,"[55, 0, 199]",199,l,0.6819972745142877,colour,0.5
177,28,0,1,10,10,460,720.6821953793988,721.353008987382,"[88, 0, 166]",166,l,0.14981331676244736,colour,0.5
177,28,0,1,10,11,461,721.8673095554113,722.8407182181254,"[58, 0, 196]",196,l,0.4506002217531204,colour,0.5
177,28,0,1,10,12,462,723.3510125791654,724.1447961055674,"[26, 0, 228]",228,a,0.2707139649428427,colour,0.5
177,28,0,1,10,13,463,724.6636014902033,725.384741990827,"[20, 0, 234]",234,a,0.19780076062306762,colour,0.5
177,28,0,1,10,14,464,725.8979441206902,726.5126987937838,"[85, 0, 169]",169,l,0.09145156061276793,colour,0.5
177,28,0,1,10,15,465,727.0229667671956,727.7367435190827,"[38, 0, 216]",216,a,0.19062448292970657,colour,0.5
177,28,0,1,10,16,466,728.257334603928,729.024690633174,"[73, 0, 181]",181,l,0.24402298452332616,colour,0.5
177,28,0,1,10,17,467,729.5385575760156,730.3288303543814,"[40, 0, 214]",214,a,0.2669629706069827,colour,0.5
177,28,0,1,10,18,468,730.8355288961902,731.4567091758363,"[46, 0, 208]",208,a,0.0979449087753892,colour,0.5
177,28,0,1,10,19,469,731.9760777610354,732.6407249136828,"[15, 0, 239]",239,a,0.1412924467585981,colour,0.5
177,28,0,1,10,20,470,733.147901979275,733.8726709880866,"[35, 0, 219]",219,a,0.20135680120438337,colour,0.5
177,28,0,1,10,21,471,734.3823363762349,735.072688317392,"[60, 0, 194]",194,l,0.16704685986042023,colour,0.5
177,28,0,1,10,22,472,735.5854509146884,736.2327314042486,"[21, 0, 233]",233,a,0.12386985728517175,colour,0.5
177,28,0,1,10,23,473,736.7436956982128,737.4406997077167,"[29, 0, 225]",225,a,0.17368514370173216,colour,0.5
177,28,0,1,10,24,474,737.9468015721068,738.6807578392327,"[42, 0, 212]",212,a,0.21063149347901344,colour,0.5
177,28,0,1,10,25,475,739.1968511966988,739.8007081360556,"[68, 0, 186]",186,l,0.08069364260882139,colour,0.5
177,28,0,1,10,26,476,740.3218360333703,741.3687270088121,"[53, 0, 201]",201,l,0.5235153953544796,colour,0.5
177,28,0,1,10,27,477,741.8842681935057,742.8888273611665,"[45, 0, 209]",209,a,0.4813009537756443,colour,0.5
177,28,0,1,10,28,478,743.3999586459249,744.0728269512765,"[47, 0, 207]",207,a,0.14965341472998261,colour,0.5
177,28,0,1,10,29,479,744.5874173906632,745.1607602811418,"[12, 0, 242]",242,a,0.05073806829750538,colour,0.5
177,28,0,1,10,30,480,745.6811997350305,746.4007510649972,"[64, 0, 190]",190,l,0.19629272213205695,colour,0.5
177,28,0,1,10,31,481,746.9155210983008,747.6167073640972,"[52, 0, 202]",202,a,0.17778311669826508,colour,0.5
177,28,0,1,10,32,482,748.134314273484,748.7688447693363,"[72, 0, 182]",182,l,0.11117933411151171,colour,0.5
177,28,0,1,10,33,483,749.274957661517,749.9847171786241,"[62, 0, 192]",192,a,0.18646585755050182,colour,0.5
177,28,0,1,10,34,484,750.4938847445883,751.0807208176702,"[91, 0, 163]",163,l,0.061633439268916845,colour,0.5
177,28,0,1,10,35,485,751.5892330231145,752.1927425893955,"[3, 0, 251]",251,a,0.08039234997704625,colour,0.5
177,28,0,1,10,36,486,752.6986593459733,753.4327022596262,"[39, 0, 215]",215,a,0.21106866328045726,colour,0.5
177,28,0,1,10,37,487,753.9486487121321,754.5207332633436,"[75, 0, 179]",179,l,0.04871054645627737,colour,0.5
177,28,0,1,10,38,488,755.0267807771452,755.6807716237381,"[11, 0, 243]",243,a,0.13057824550196528,colour,0.5
177,28,0,1,10,39,489,756.1987475678325,756.8167983423918,"[13, 0, 241]",241,a,0.09484888100996614,colour,0.5
177,28,0,1,10,40,490,757.3236193708144,758.0167546253651,"[44, 0, 210]",210,a,0.16989043168723583,colour,0.5
177,28,0,1,10,41,491,758.5267981062643,759.2087520575151,"[66, 0, 188]",188,l,0.1585866422392428,colour,0.5
177,28,0,1,10,42,492,759.7298878324218,760.4247603439726,"[80, 0, 174]",174,l,0.1715725501999259,colour,0.5
177,28,0,1,10,43,493,760.9330567214638,762.0247260793112,"[86, 0, 168]",168,l,0.5683583687059581,colour,0.5
177,28,0,1,10,44,494,762.5423960047774,763.3047919305973,"[8, 0, 246]",246,a,0.24237394938245416,colour,0.5
177,28,0,1,10,45,495,763.8206544937566,764.4328361675143,"[24, 0, 230]",230,a,0.08885571826249361,colour,0.5
177,28,0,1,10,46,496,764.9456141246483,765.7127606277354,"[81, 0, 173]",173,l,0.24376422772184014,colour,0.5
177,28,0,1,10,47,497,766.226827644743,766.8887194469571,"[54, 0, 200]",200,a,0.13851228402927518,colour,0.5
177,28,0,1,10,48,498,767.3987444168888,768.1047923243605,"[76, 0, 178]",178,l,0.18299567559733987,colour,0.5
177,28,0,1,10,49,499,768.6174974199384,769.9847526247613,"[32, 0, 222]",222,a,0.8439859631471336,colour,0.5
177,28,0,1,10,50,500,770.4924739859998,771.2007585484535,"[57, 0, 197]",197,a,0.18491804087534547,colour,0.5
177,28,0,1,11,1,501,775.6110186446458,776.5289650498889,"[94, 0, 160]",160,l,0.39386544609442353,colour,0.5
177,28,0,1,11,2,502,777.0494202575646,777.8248032736592,"[30, 0, 224]",224,a,0.2521893931552768,colour,0.5
177,28,0,1,11,3,503,778.3461485742591,779.0407477566041,"[50, 0, 204]",204,a,0.17116373730823398,colour,0.5
177,28,0,1,11,4,504,779.5493414881639,780.2727383361198,"[75, 0, 179]",179,l,0.20004450483247638,colour,0.5
177,28,0,1,11,5,505,780.7768457615748,781.6327546411194,"[38, 0, 216]",216,a,0.3329448690637946,colour,0.5
177,28,0,1,11,6,506,782.1390171949752,782.9207470477559,"[81, 0, 173]",173,l,0.25841059256345034,colour,0.5
177,28,0,1,11,7,507,783.435830976814,784.3048096536659,"[44, 0, 210]",210,a,0.3455983707681298,colour,0.5
177,28,0,1,11,8,508,784.8109000967816,785.560752404388,"[95, 0, 159]",159,l,0.22652202006429434,colour,0.5
177,28,0,1,11,9,509,786.0765314721502,786.7047824785113,"[6, 0, 248]",248,a,0.10492977732792497,colour,0.5
177,28,0,1,11,10,510,787.2171386256814,787.8887816746719,"[33, 0, 221]",221,a,0.1482859794050455,colour,0.5
177,28,0,1,11,11,511,788.4044532226399,789.1288012098521,"[36, 0, 218]",218,a,0.20193654345348477,colour,0.5
177,28,0,1,11,12,512,789.6389522105455,790.3448272193782,"[10, 0, 244]",244,a,0.18259710306301713,colour,0.5
177,28,0,1,11,13,513,790.8578032813966,791.6007550037466,"[46, 0, 208]",208,a,0.21970453625544906,colour,0.5
177,28,0,1,11,14,514,792.1077918596566,792.7527494425885,"[77, 0, 177]",177,l,0.12454530410468578,colour,0.5
177,28,0,1,11,15,515,793.261260072235,794.7687975075096,"[68, 0, 186]",186,l,0.9837589501403272,colour,0.5
177,28,0,1,11,16,516,795.2773101069033,796.1368069285527,"[4, 0, 250]",250,a,0.3361555067822337,colour,0.5
177,28,0,1,11,17,517,796.6543098622933,797.4088134975173,"[14, 0, 240]",240,a,0.23120012879371643,colour,0.5
177,28,0,1,11,18,518,797.9199085487053,798.5767874722369,"[54, 0, 200]",200,a,0.14597725123167038,colour,0.5
177,28,0,1,11,19,519,799.0951426904649,799.7848124895245,"[74, 0, 180]",180,l,0.1664107977412641,colour,0.5
177,28,0,1,11,20,520,800.2981603424996,800.976800469216,"[52, 0, 202]",202,a,0.15459067514166236,colour,0.5
177,28,0,1,11,21,521,801.4873850950971,802.4407705999911,"[96, 0, 158]",158,l,0.4302895558066666,colour,0.5
177,28,0,1,11,22,522,802.9561676364392,803.6007802099921,"[22, 0, 232]",232,a,0.12148275366052985,colour,0.5
177,28,0,1,11,23,523,804.1123896241188,804.8167758933268,"[40, 0, 214]",214,a,0.18106464622542262,colour,0.5
177,28,0,1,11,24,524,805.3311709845439,806.1847801939584,"[64, 0, 190]",190,l,0.3302891622297466,colour,0.5
177,28,0,1,11,25,525,806.7062334092334,807.4007605174556,"[99, 0, 155]",155,l,0.1717895600013435,colour,0.5
177,28,0,1,11,26,526,807.909353855066,809.05681315111,"[62, 0, 192]",192,l,0.6242432240396738,colour,0.5
177,28,0,1,11,27,527,809.5655470918864,810.2010574778542,"[31, 0, 223]",223,a,0.11225453531369567,colour,0.5
177,28,0,1,11,28,528,810.7218041322194,811.440800532233,"[12, 0, 242]",242,a,0.19568659272044897,colour,0.5
177,28,0,1,11,29,529,811.9564618398435,812.5767858969048,"[67, 0, 187]",187,l,0.09727970184758306,colour,0.5
177,28,0,1,11,30,530,813.0970945940353,813.9048045338131,"[65, 0, 189]",189,l,0.2821630840189755,colour,0.5
177,28,0,1,11,31,531,814.3993615745567,815.4168180348352,"[97, 0, 157]",157,l,0.49413798796013,colour,0.5
177,28,0,1,11,32,532,815.9306617407128,816.697139098309,"[43, 0, 211]",211,a,0.24313958687707782,colour,0.5
177,28,0,1,11,33,533,817.2120099561289,818.2889860812575,"[66, 0, 188]",188,l,0.5537998313084245,colour,0.5
177,28,0,1,11,34,534,818.8056875378825,819.544840216171,"[13, 0, 241]",241,a,0.21596063114702702,colour,0.5
177,28,0,1,11,35,535,820.0557686700486,820.8888285425492,"[29, 0, 225]",225,a,0.3098926371894777,colour,0.5
177,28,0,1,11,36,536,821.3998345844448,822.3927874881774,"[70, 0, 184]",184,l,0.46966712083667517,colour,0.5
177,28,0,1,11,37,537,822.9028593255207,823.6168038565665,"[88, 0, 166]",166,l,0.1906622927635908,colour,0.5
177,28,0,1,11,38,538,824.1372311012819,824.9848180031404,"[26, 0, 228]",228,a,0.3242325899191201,colour,0.5
177,28,0,1,11,39,539,825.4964778302237,826.1847841325216,"[85, 0, 169]",169,l,0.16457980498671532,colour,0.5
177,28,0,1,11,40,540,826.6996482945979,827.424824540969,"[23, 0, 231]",231,a,0.20231739291921258,colour,0.5
177,28,0,1,11,41,541,827.9339755657129,829.0248028794304,"[20, 0, 234]",234,a,0.567412743344903,colour,0.5
177,28,0,1,11,42,542,829.5360846137628,830.4807881657034,"[49, 0, 205]",205,a,0.4213972887955606,colour,0.5
177,28,0,1,11,43,543,830.989253109321,833.5528368763626,"[60, 0, 194]",194,l,2.0407816278748214,colour,0.5
177,28,0,1,11,44,544,834.0673733586445,834.8488357895985,"[83, 0, 171]",171,l,0.2582085495814681,colour,0.5
177,28,0,1,11,45,545,835.3641414535232,836.2328389245085,"[57, 0, 197]",197,a,0.34543965104967356,colour,0.5
177,28,0,1,11,46,546,836.7391873369925,837.8568218159489,"[5, 0, 249]",249,a,0.5944664562121034,colour,0.5
177,28,0,1,11,47,547,838.3648255653679,839.3848369079642,"[32, 0, 222]",222,a,0.4966775104403496,colour,0.5
177,28,0,1,11,48,548,839.887730892282,840.9368813652545,"[8, 0, 246]",246,a,0.5258410591632128,colour,0.5
177,28,0,1,11,49,549,841.4500145721249,842.3608358995989,"[3, 0, 251]",251,a,0.38766590785235167,colour,0.5
177,28,0,1,11,50,550,842.8720219293609,843.5528731103987,"[98, 0, 156]",156,l,0.15761935524642467,colour,0.5
177,28,0,1,12,1,551,848.4824793427251,849.6169137395918,"[21, 0, 233]",233,a,0.6106275552883744,colour,0.5
177,28,0,1,12,2,552,850.1239722571336,850.7688298029825,"[26, 0, 228]",228,a,0.12167495070025325,colour,0.5
177,28,0,1,12,3,553,851.2801351677626,852.0409108093008,"[7, 0, 247]",247,a,0.2374638644978404,colour,0.5
177,28,0,1,12,4,554,852.5614782632329,853.2808551192284,"[1, 0, 253]",253,a,0.19606822961941361,colour,0.5
177,28,0,1,12,5,555,853.7957519711927,855.0808712672442,"[38, 0, 216]",216,a,0.7618004302494228,colour,0.5
177,28,0,1,12,6,556,855.594650382176,856.4728564899415,"[37, 0, 217]",217,a,0.35478641698136926,colour,0.5
177,28,0,1,12,7,557,856.9852721085772,857.8008483452722,"[4, 0, 250]",250,a,0.29226839868351817,colour,0.5
177,28,0,1,12,8,558,858.3153399289586,859.0491264481097,"[77, 0, 177]",177,l,0.21049601025879383,colour,0.5
177,28,0,1,12,9,559,859.5652891225182,860.3448981116526,"[5, 0, 249]",249,a,0.26867029536515474,colour,0.5
177,28,0,1,12,10,560,860.8654978610575,861.5449032317847,"[97, 0, 157]",157,l,0.15625585848465562,colour,0.5
177,28,0,1,12,11,561,862.0416732961312,862.8409017506056,"[87, 0, 167]",167,l,0.2759040743112564,colour,0.5
177,28,0,1,12,12,562,863.3541980101727,864.1848432095721,"[36, 0, 218]",218,a,0.30809039575979114,colour,0.5
177,28,0,1,12,13,563,864.6979382131249,865.384864476975,"[74, 0, 180]",180,l,0.16396816121414304,colour,0.5
177,28,0,1,12,14,564,865.9010811084881,866.904902995564,"[27, 0, 227]",227,a,0.4805156239308417,colour,0.5
177,28,0,1,12,15,565,867.4167565945536,868.1928623188287,"[33, 0, 221]",221,a,0.25286562740802765,colour,0.5
177,28,0,1,12,16,566,868.7135305977426,869.4968980643898,"[85, 0, 169]",169,l,0.2600576588883996,colour,0.5
177,28,0,1,12,17,567,870.0110572413541,871.1608721334487,"[24, 0, 230]",230,a,0.626494056545198,colour,0.5
177,28,0,1,12,18,568,871.667341850698,872.4808503934182,"[63, 0, 191]",191,l,0.2901967656798661,colour,0.5
177,28,0,1,12,19,569,872.9954813984223,873.7691889908165,"[94, 0, 160]",160,l,0.2505155447870493,colour,0.5
177,28,0,1,12,20,570,874.2767614782788,875.00106220413,"[44, 0, 210]",210,a,0.20103463530540466,colour,0.5
177,28,0,1,12,21,571,875.5149358422495,876.3848739294335,"[32, 0, 222]",222,a,0.3466542735695839,colour,0.5
177,28,0,1,12,22,572,876.9055555989034,877.6808905657381,"[47, 0, 207]",207,a,0.25207990361377597,colour,0.5
177,28,0,1,12,23,573,878.1867596665397,878.8328684628941,"[76, 0, 178]",178,l,0.12276354245841503,colour,0.5
177,28,0,1,12,24,574,879.3430076483637,879.9688857290894,"[11, 0, 243]",243,a,0.10259938705712557,colour,0.5
177,28,0,1,12,25,575,880.4836707282811,881.1211377438158,"[12, 0, 242]",242,a,0.11455656820908189,colour,0.5
177,28,0,1,12,26,576,881.6398887773976,882.7371688731946,"[55, 0, 199]",199,a,0.5741865099407732,colour,0.5
177,28,0,1,12,27,577,883.2510153362527,883.8648491958156,"[15, 0, 239]",239,a,0.09056658763438463,colour,0.5
177,28,0,1,12,28,578,884.3760927268304,885.2089623715729,"[57, 0, 197]",197,l,0.3219652152620256,colour,0.5
177,28,0,1,12,29,579,885.723063653335,886.5288461083546,"[70, 0, 184]",184,l,0.2826849306002259,colour,0.5
177,28,0,1,12,30,580,887.0355710377917,887.8969047600403,"[62, 0, 192]",192,l,0.33803336694836617,colour,0.5
177,28,0,1,12,31,581,888.4104983732104,889.1852157884277,"[73, 0, 181]",181,l,0.25135246897116303,colour,0.5
177,28,0,1,12,32,582,889.6917902687564,890.4008731576614,"[79, 0, 175]",175,l,0.1861373893916607,colour,0.5
177,28,0,1,12,33,583,890.9106374010444,891.9130520741455,"[67, 0, 187]",187,l,0.4790280656889081,colour,0.5
177,28,0,1,12,34,584,892.4261963088065,893.4408493693918,"[60, 0, 194]",194,l,0.49137279158458114,colour,0.5
177,28,0,1,12,35,585,893.9573869854212,894.9289260590449,"[41, 0, 213]",213,a,0.44811662565916777,colour,0.5
177,28,0,1,12,36,586,895.4436862459406,896.3129441603087,"[84, 0, 170]",170,l,0.34594495594501495,colour,0.5
177,28,0,1,12,37,587,896.8342764643021,897.5208971034735,"[78, 0, 176]",176,l,0.1636294536292553,colour,0.5
177,28,0,1,12,38,588,898.0374819813296,898.60888596531,"[72, 0, 182]",182,l,0.046928390860557556,colour,0.5
177,28,0,1,12,39,589,899.1168499365449,899.68087244872,"[96, 0, 158]",158,l,0.04074224317446351,colour,0.5
177,28,0,1,12,40,590,900.1950233550742,900.8008526777849,"[28, 0, 226]",226,a,0.08252857392653823,colour,0.5
177,28,0,1,12,41,591,901.3198959454894,902.0248607750982,"[29, 0, 225]",225,a,0.18694950127974153,colour,0.5
177,28,0,1,12,42,592,902.5356687116437,903.2968964888714,"[49, 0, 205]",205,a,0.2379545969888568,colour,0.5
177,28,0,1,12,43,593,903.8031684951857,904.5129512492567,"[14, 0, 240]",240,a,0.1864753095433116,colour,0.5
177,28,0,1,12,44,594,905.0230230870657,905.6568990098312,"[66, 0, 188]",188,l,0.11066654603928328,colour,0.5
177,28,0,1,12,45,595,906.1635593483225,906.8169275242835,"[10, 0, 244]",244,a,0.13057706411927938,colour,0.5
177,28,0,1,12,46,596,907.335430434905,908.120927429758,"[50, 0, 204]",204,a,0.26215686136856675,colour,0.5
177,28,0,1,12,47,597,908.6323249544948,909.3528900458477,"[51, 0, 203]",203,a,0.19720684038475156,colour,0.5
177,28,0,1,12,48,598,909.8667231178842,910.7608847366646,"[56, 0, 198]",198,a,0.3712019408121705,colour,0.5
177,28,0,1,12,49,599,911.2729695239104,911.8169420966879,"[53, 0, 201]",201,a,0.016363536473363638,colour,0.5
177,28,0,1,12,50,600,912.3240785957314,913.3848699908704,"[42, 0, 212]",212,a,0.5379538093693554,colour,0.5
177,28,0,1,13,1,601,917.8544587362558,918.5928690144792,"[34, 0, 220]",220,a,0.2143592513166368,colour,0.5
177,28,0,1,13,2,602,919.1053531621583,919.7929166695103,"[43, 0, 211]",211,a,0.164306475315243,colour,0.5
177,28,0,1,13,3,603,920.3084523403086,921.1208947403356,"[20, 0, 234]",234,a,0.2901455657556653,colour,0.5
177,28,0,1,13,4,604,921.6365584111772,922.208916685544,"[76, 0, 178]",178,l,0.04908115603029728,colour,0.5
177,28,0,1,13,5,605,922.7309197103605,923.2809441285208,"[10, 0, 244]",244,a,0.026774869300425053,colour,0.5
177,28,0,1,13,6,606,923.7934089777991,924.7288894313388,"[7, 0, 247]",247,a,0.4121340182609856,colour,0.5
177,28,0,1,13,7,607,925.2342075412162,925.8729218686931,"[4, 0, 250]",250,a,0.11415011854842305,colour,0.5
177,28,0,1,13,8,608,926.391727253329,927.0008916682564,"[14, 0, 240]",240,a,0.08878876408562064,colour,0.5
177,28,0,1,13,9,609,927.51576607069,928.1208990728483,"[17, 0, 237]",237,a,0.081929927226156,colour,0.5
177,28,0,1,13,10,610,928.6409261692315,929.2729230499826,"[58, 0, 196]",196,l,0.10891511011868715,colour,0.5
177,28,0,1,13,11,611,929.7814809414558,930.4409643723629,"[74, 0, 180]",180,l,0.13617401709780097,colour,0.5
177,28,0,1,13,12,612,930.9533090982586,931.6409305017442,"[25, 0, 229]",229,a,0.16427890630438924,colour,0.5
177,28,0,1,13,13,613,932.1565425787121,932.824906067457,"[66, 0, 188]",188,l,0.14535930613055825,colour,0.5
177,28,0,1,13,14,614,933.3446925235912,934.0569352433085,"[99, 0, 155]",155,l,0.18960205744951963,colour,0.5
177,28,0,1,13,15,615,934.5783990924247,935.1928808297962,"[38, 0, 216]",216,a,0.09109552344307303,colour,0.5
177,28,0,1,13,16,616,935.7033579354174,936.3688928182237,"[70, 0, 184]",184,l,0.14262404199689627,colour,0.5
177,28,0,1,13,17,617,936.8771608388051,937.513050892856,"[83, 0, 171]",171,l,0.1126464125700295,colour,0.5
177,28,0,1,13,18,618,938.0337337437086,938.5849377326667,"[48, 0, 206]",206,a,0.02803281508386135,colour,0.5
177,28,0,1,13,19,619,939.0961032821797,939.8409631908871,"[1, 0, 253]",253,a,0.22158987959846854,colour,0.5
177,28,0,1,13,20,620,940.3617169344798,941.0249281227589,"[82, 0, 172]",172,l,0.13985214987769723,colour,0.5
177,28,0,1,13,21,621,941.5362779926509,942.1609264845029,"[96, 0, 158]",158,l,0.10135758901014924,colour,0.5
177,28,0,1,13,22,622,942.6768839647993,943.5769477677532,"[18, 0, 236]",236,a,0.3770166910253465,colour,0.5
177,28,0,1,13,23,623,944.0831492752768,944.7289528404362,"[98, 0, 156]",156,l,0.1317140986211598,colour,0.5
177,28,0,1,13,24,624,945.2478992221877,945.9211464081891,"[27, 0, 227]",227,a,0.15005435049533844,colour,0.5
177,28,0,1,13,25,625,946.4353524530306,947.1689302339219,"[42, 0, 212]",212,a,0.2102667917497456,colour,0.5
177,28,0,1,13,26,626,947.6852945578285,948.3530444335192,"[92, 0, 162]",162,l,0.14441328682005405,colour,0.5
177,28,0,1,13,27,627,948.8728438867256,949.5369491069578,"[89, 0, 165]",165,l,0.14096712972968817,colour,0.5
177,28,0,1,13,28,628,950.0446811020374,950.7129796063527,"[86, 0, 168]",168,l,0.1448988993652165,colour,0.5
177,28,0,1,13,29,629,951.2322324006818,952.0889092809521,"[68, 0, 186]",186,l,0.33332414319738746,colour,0.5
177,28,0,1,13,30,630,952.6072318097576,953.344930013176,"[52, 0, 202]",202,a,0.2146317926235497,colour,0.5
177,28,0,1,13,31,631,953.8572589852847,954.5210073804483,"[73, 0, 181]",181,l,0.1406288151629269,colour,0.5
177,28,0,1,13,32,632,955.0291730007157,955.5849302494898,"[37, 0, 217]",217,a,0.03254629671573639,colour,0.5
177,28,0,1,13,33,633,956.079250194598,956.7289162129164,"[95, 0, 159]",159,l,0.1263952013105154,colour,0.5
177,28,0,1,13,34,634,957.2354761208408,957.8650559652597,"[9, 0, 245]",245,a,0.10629760613664985,colour,0.5
177,28,0,1,13,35,635,958.3781466367655,959.1129331323318,"[67, 0, 187]",187,l,0.21136404806748033,colour,0.5
177,28,0,1,13,36,636,959.6281793261878,960.5929434513673,"[26, 0, 228]",228,a,0.4413373451679945,colour,0.5
177,28,0,1,13,37,637,961.112735027913,962.1849546679296,"[28, 0, 226]",226,a,0.5487648970447481,colour,0.5
177,28,0,1,13,38,638,962.6793124224059,963.4249348184094,"[12, 0, 242]",242,a,0.22237402852624655,colour,0.5
177,28,0,1,13,39,639,963.9448347021826,964.6489523681812,"[88, 0, 166]",166,l,0.18080510152503848,colour,0.5
177,28,0,1,13,40,640,965.16352981003,966.2969799847342,"[60, 0, 194]",194,l,0.6099276901222765,colour,0.5
177,28,0,1,13,41,641,966.8042184901424,967.4089509500191,"[2, 0, 252]",252,a,0.0814057169482112,colour,0.5
177,28,0,1,13,42,642,967.9292860347778,968.5449197734706,"[75, 0, 179]",179,l,0.0924802883528173,colour,0.5
177,28,0,1,13,43,643,969.0573412994854,969.704947500024,"[3, 0, 251]",251,a,0.12265484081581235,colour,0.5
177,28,0,1,13,44,644,970.213656234555,970.8569372128695,"[87, 0, 167]",167,l,0.12032326916232705,colour,0.5
177,28,0,1,13,45,645,971.3697848808952,972.1450501363724,"[19, 0, 235]",235,a,0.25194205716252327,colour,0.5
177,28,0,1,13,46,646,972.6668235487305,973.2649413561448,"[84, 0, 170]",170,l,0.07483359985053539,colour,0.5
177,28,0,1,13,47,647,973.7679716111161,974.9209423959255,"[56, 0, 198]",198,a,0.6297850385308266,colour,0.5
177,28,0,1,13,48,648,975.4398076450452,976.0249356059358,"[36, 0, 218]",218,a,0.06194221507757902,colour,0.5
177,28,0,1,13,49,649,976.5363666079938,977.1929816543125,"[32, 0, 222]",222,a,0.13661985145881772,colour,0.5
177,28,0,1,13,50,650,977.7056690268219,978.4009814653546,"[69, 0, 185]",185,l,0.1723330682143569,colour,0.5
177,28,0,1,14,1,651,982.7986510754563,983.569081470836,"[42, 0, 212]",212,a,0.2463573133572936,colour,0.5
177,28,0,1,14,2,652,984.0806893100962,984.6889380319044,"[64, 0, 190]",190,l,0.08499759761616588,colour,0.5
177,28,0,1,14,3,653,985.2056654822081,985.8169649397023,"[68, 0, 186]",186,l,0.08815900376066566,colour,0.5
177,28,0,1,14,4,654,986.3306834022515,987.1849444280379,"[95, 0, 159]",159,l,0.3310674028471112,colour,0.5
177,28,0,1,14,5,655,987.705604435876,988.328995375894,"[43, 0, 211]",211,a,0.09877080470323563,colour,0.5
177,28,0,1,14,6,656,988.8478952837177,989.5209695710801,"[58, 0, 196]",196,a,0.14969791937619448,colour,0.5
177,28,0,1,14,7,657,990.0361594446003,990.5929410881363,"[35, 0, 219]",219,a,0.03414216265082359,colour,0.5
177,28,0,1,14,8,658,991.114115065895,991.7209372757934,"[79, 0, 175]",175,l,0.08403621800243855,colour,0.5
177,28,0,1,14,9,659,992.2385678160936,992.8650016146712,"[30, 0, 224]",224,a,0.10314447106793523,colour,0.5
177,28,0,1,14,10,660,993.3792080529965,994.072980158031,"[29, 0, 225]",225,a,0.1704319710843265,colour,0.5
177,28,0,1,14,11,661,994.582357250154,995.2490283804946,"[55, 0, 199]",199,a,0.1434089783579111,colour,0.5
177,28,0,1,14,12,662,995.758640205022,996.3449914534576,"[96, 0, 158]",158,l,0.06309776054695249,colour,0.5
177,28,0,1,14,13,663,996.8523650481366,997.3849716032855,"[28, 0, 226]",226,a,0.01054602861404419,colour,0.5
177,28,0,1,14,14,664,997.897992957849,998.4729785826057,"[37, 0, 217]",217,a,0.05191488191485405,colour,0.5
177,28,0,1,14,15,665,998.9917166191153,999.6170082627796,"[62, 0, 192]",192,l,0.10195544827729464,colour,0.5
177,28,0,1,14,16,666,1000.1323489793576,1000.6729805516079,"[98, 0, 156]",156,l,0.017247327603399754,colour,0.5
177,28,0,1,14,17,667,1001.1792009640485,1002.0890254657716,"[83, 0, 171]",171,l,0.3870337838307023,colour,0.5
177,28,0,1,14,18,668,1002.6011015884578,1003.4010314838961,"[63, 0, 191]",191,l,0.2766263894736767,colour,0.5
177,28,0,1,14,19,669,1003.9135699821636,1004.520986112766,"[16, 0, 238]",238,a,0.08410356566309929,colour,0.5
177,28,0,1,14,20,670,1005.0386040499434,1005.6329684997909,"[90, 0, 164]",164,l,0.07112474692985415,colour,0.5
177,28,0,1,14,21,671,1006.149853488896,1006.8489539432339,"[54, 0, 200]",200,a,0.17586429603397846,colour,0.5
177,28,0,1,14,22,672,1007.3685970394872,1007.9369940054603,"[85, 0, 169]",169,l,0.04505486274138093,colour,0.5
177,28,0,1,14,23,673,1008.4466558489949,1009.1211909130216,"[27, 0, 227]",227,a,0.15115475794300437,colour,0.5
177,28,0,1,14,24,674,1009.6341807595454,1010.2570167696103,"[21, 0, 233]",233,a,0.09968689177185297,colour,0.5
177,28,0,1,14,25,675,1010.7747792489827,1011.785055492539,"[3, 0, 251]",251,a,0.48690972244367003,colour,0.5
177,28,0,1,14,26,676,1012.3066445849836,1014.0170700964518,"[26, 0, 228]",228,a,1.1873051444999874,colour,0.5
177,28,0,1,14,27,677,1014.5253684432246,1015.1851220526733,"[9, 0, 245]",245,a,0.13644301425665617,colour,0.5
177,28,0,1,14,28,678,1015.6970863230526,1016.3929966203868,"[38, 0, 216]",216,a,0.1727186436764896,colour,0.5
177,28,0,1,14,29,679,1016.9003367386758,1017.7209569681436,"[80, 0, 174]",174,l,0.29723007744178176,colour,0.5
177,28,0,1,14,30,680,1018.2285444219597,1018.8329783459194,"[1, 0, 253]",253,a,0.08110521174967289,colour,0.5
177,28,0,1,14,31,681,1019.353484753985,1019.9449910596013,"[40, 0, 214]",214,a,0.06824179040268064,colour,0.5
177,28,0,1,14,32,682,1020.4627275448292,1021.0490043559112,"[6, 0, 248]",248,a,0.06291028996929526,colour,0.5
177,28,0,1,14,33,683,1021.5566382831894,1022.1851374129765,"[56, 0, 198]",198,a,0.10480217123404145,colour,0.5
177,28,0,1,14,34,684,1022.6972604030743,1023.4809870580211,"[53, 0, 201]",201,a,0.2607212904840708,colour,0.5
177,28,0,1,14,35,685,1023.9941222341731,1024.625000984408,"[0, 0, 254]",254,a,0.10760517651215196,colour,0.5
177,28,0,1,14,36,686,1025.134692366235,1025.7369912485592,"[13, 0, 241]",241,a,0.07897135149687529,colour,0.5
177,28,0,1,14,37,687,1026.2441269601695,1026.8970229136758,"[48, 0, 206]",206,a,0.12971414625644684,colour,0.5
177,28,0,1,14,38,688,1027.415942907799,1028.0730230868794,"[92, 0, 162]",162,l,0.13355218060314655,colour,0.5
177,28,0,1,14,39,689,1028.587799815461,1029.2330004014075,"[5, 0, 249]",249,a,0.1222011293284595,colour,0.5
177,28,0,1,14,40,690,1029.7440907261334,1030.321034555789,"[84, 0, 170]",170,l,0.05440950579941273,colour,0.5
177,28,0,1,14,41,691,1030.8377880002372,1031.4810398332775,"[47, 0, 207]",207,a,0.11988176731392741,colour,0.5
177,28,0,1,14,42,692,1031.9940619752742,1032.6410080892965,"[88, 0, 166]",166,l,0.1236319737508893,colour,0.5
177,28,0,1,14,43,693,1033.1503339814954,1033.7610273091123,"[44, 0, 210]",210,a,0.08741227071732283,colour,0.5
177,28,0,1,14,44,694,1034.275367261842,1034.880993753206,"[59, 0, 195]",195,a,0.08235252415761352,colour,0.5
177,28,0,1,14,45,695,1035.3898001620546,1036.0410415665247,"[89, 0, 165]",165,l,0.12789811985567212,colour,0.5
177,28,0,1,14,46,696,1036.5617488361895,1037.2890341305174,"[17, 0, 237]",237,a,0.20479862624779344,colour,0.5
177,28,0,1,14,47,697,1037.7961343959905,1038.392996226903,"[18, 0, 236]",236,a,0.07345277396962047,colour,0.5
177,28,0,1,14,48,698,1038.9054969158024,1039.7930139498785,"[75, 0, 179]",179,l,0.36419738037511706,colour,0.5
177,28,0,1,14,49,699,1040.3122777719982,1040.9210688206367,"[81, 0, 173]",173,l,0.0859625218436122,colour,0.5
177,28,0,1,14,50,700,1041.4370849840343,1042.2890605181456,"[65, 0, 189]",189,l,0.32862909883260727,colour,0.5
177,28,0,1,15,1,701,1046.790889147669,1047.4730301764794,"[35, 0, 219]",219,a,0.15805613109841943,colour,0.5
177,28,0,1,15,2,702,1047.9792084470391,1048.5770296878181,"[86, 0, 168]",168,l,0.07455278700217605,colour,0.5
177,28,0,1,15,3,703,1049.0885272501037,1049.6570470961742,"[3, 0, 251]",251,a,0.04517538007348776,colour,0.5
177,28,0,1,15,4,704,1050.1670606443658,1050.7610808722675,"[56, 0, 198]",198,a,0.07068639574572444,colour,0.5
177,28,0,1,15,5,705,1051.27637669025,1051.8330220631324,"[30, 0, 224]",224,a,0.03330405754968524,colour,0.5
177,28,0,1,15,6,706,1052.3452198845334,1053.2333379280753,"[70, 0, 184]",184,l,0.3648117808625102,colour,0.5
177,28,0,1,15,7,707,1053.7514359643683,1054.3290398805402,"[87, 0, 167]",167,l,0.054290170315653086,colour,0.5
177,28,0,1,15,8,708,1054.8451671088114,1055.5130087509751,"[48, 0, 206]",206,a,0.14444912690669298,colour,0.5
177,28,0,1,15,9,709,1056.0327790598385,1056.8810288058594,"[29, 0, 225]",225,a,0.3250482464209199,colour,0.5
177,28,0,1,15,10,710,1057.3920025518164,1057.9770864020102,"[80, 0, 174]",174,l,0.06086465064436197,colour,0.5
177,28,0,1,15,11,711,1058.486610005144,1059.4970197631046,"[73, 0, 181]",181,l,0.48732444318011403,colour,0.5
177,28,0,1,15,12,712,1060.0179275004193,1060.6811721660197,"[84, 0, 170]",170,l,0.14077493268996477,colour,0.5
177,28,0,1,15,13,713,1061.1897891345434,1061.7850491912104,"[27, 0, 227]",227,a,0.07262451434507966,colour,0.5
177,28,0,1,15,14,714,1062.2991843437776,1063.209098642692,"[31, 0, 223]",223,a,0.3869703747332096,colour,0.5
177,28,0,1,15,15,715,1063.7086658054031,1064.4570392188616,"[54, 0, 200]",200,a,0.22511126147583127,colour,0.5
177,28,0,1,15,16,716,1064.974313721992,1065.8570478837937,"[36, 0, 218]",218,a,0.35968704987317324,colour,0.5
177,28,0,1,15,17,717,1066.364836199209,1067.0650815656409,"[5, 0, 249]",249,a,0.17688002670183778,colour,0.5
177,28,0,1,15,18,718,1067.5835769926198,1068.4330366351642,"[32, 0, 222]",222,a,0.32685836451128125,colour,0.5
177,28,0,1,15,19,719,1068.9429875621572,1069.5370857715607,"[89, 0, 165]",165,l,0.0708699282258749,colour,0.5
177,28,0,1,15,20,720,1070.0524020697922,1070.6650260328315,"[81, 0, 173]",173,l,0.08933266624808311,colour,0.5
177,28,0,1,15,21,721,1071.1773987221532,1071.7690613847226,"[8, 0, 246]",246,a,0.0683552180416882,colour,0.5
177,28,0,1,15,22,722,1072.2867383989505,1072.8330527832732,"[98, 0, 156]",156,l,0.023177475202828646,colour,0.5
177,28,0,1,15,23,723,1073.3492446020246,1073.9050526572391,"[1, 0, 253]",253,a,0.03254550928249955,colour,0.5
177,28,0,1,15,24,724,1074.4117259928025,1075.0890861181542,"[33, 0, 221]",221,a,0.154032988473773,colour,0.5
177,28,0,1,15,25,725,1075.5992351500317,1076.2090273564681,"[58, 0, 196]",196,a,0.0864745220169425,colour,0.5
177,28,0,1,15,26,726,1076.724266460631,1077.3610434569418,"[90, 0, 164]",164,l,0.11404102295637131,colour,0.5
177,28,0,1,15,27,727,1077.8804636360146,1078.7930419128388,"[55, 0, 199]",199,a,0.38911171862855554,colour,0.5
177,28,0,1,15,28,728,1079.3023898606189,1080.34511709027,"[59, 0, 195]",195,a,0.5194316003471613,colour,0.5
177,28,0,1,15,29,729,1080.8648747960106,1081.5130686159246,"[96, 0, 158]",158,l,0.12489937245845795,colour,0.5
177,28,0,1,15,30,730,1082.0211271098815,1082.713042228017,"[9, 0, 245]",245,a,0.16846707044169307,colour,0.5
177,28,0,1,15,31,731,1083.224210140761,1084.2410679538734,"[65, 0, 189]",189,l,0.49373705219477415,colour,0.5
177,28,0,1,15,32,732,1084.7554531991482,1085.4410325079225,"[25, 0, 229]",229,a,0.16228407388553023,colour,0.5
177,28,0,1,15,33,733,1085.958545288071,1086.625060455408,"[21, 0, 233]",233,a,0.1432608920149505,colour,0.5
177,28,0,1,15,34,734,1087.1461198236793,1087.7530373441987,"[95, 0, 159]",159,l,0.08362110378220677,colour,0.5
177,28,0,1,15,35,735,1088.2711507407948,1089.3691106154583,"[91, 0, 163]",163,l,0.5746874827891588,colour,0.5
177,28,0,1,15,36,736,1089.8804297652096,1090.417054736521,"[22, 0, 232]",232,a,0.013275779318064451,colour,0.5
177,28,0,1,15,37,737,1090.9272931711748,1091.5770749803632,"[43, 0, 211]",211,a,0.12649051239714026,colour,0.5
177,28,0,1,15,38,738,1092.083580931183,1092.6570801790804,"[10, 0, 244]",244,a,0.05020046792924404,colour,0.5
177,28,0,1,15,39,739,1093.1772943530232,1093.8331843279302,"[41, 0, 213]",213,a,0.13251990918070078,colour,0.5
177,28,0,1,15,40,740,1094.3395024142228,1095.313072160352,"[83, 0, 171]",171,l,0.45021425234153867,colour,0.5
177,28,0,1,15,41,741,1095.8239159369841,1096.6250486397184,"[24, 0, 230]",230,a,0.2780076088383794,colour,0.5
177,28,0,1,15,42,742,1097.1364028416574,1097.7450788873248,"[82, 0, 172]",172,l,0.0853658439591527,colour,0.5
177,28,0,1,15,43,743,1098.2620257101953,1099.0490858820267,"[85, 0, 169]",169,l,0.2640118785202503,colour,0.5
177,28,0,1,15,44,744,1099.5589162916876,1100.2330523892306,"[79, 0, 175]",175,l,0.16235614754259586,colour,0.5
177,28,0,1,15,45,745,1100.7504674955271,1101.433060660027,"[14, 0, 240]",240,a,0.1591754429973662,colour,0.5
177,28,0,1,15,46,746,1101.9536789203994,1102.6251356797293,"[93, 0, 161]",161,l,0.14815010270103812,colour,0.5
177,28,0,1,15,47,747,1103.141158144921,1104.1130898832344,"[39, 0, 215]",215,a,0.4487920724786818,colour,0.5
177,28,0,1,15,48,748,1104.6256405911408,1105.4010878037661,"[62, 0, 192]",192,a,0.252067300491035,colour,0.5
177,28,0,1,15,49,749,1105.9225256587379,1106.537038904149,"[13, 0, 241]",241,a,0.09124794229865074,colour,0.5
177,28,0,1,15,50,750,1107.0474734744057,1107.6011244314723,"[40, 0, 214]",214,a,0.030336029827594757,colour,0.5
177,28,0,1,16,1,751,1112.062281316612,1112.8091183351353,"[9, 0, 245]",245,a,0.2216174490749836,colour,0.5
177,28,0,1,16,2,752,1113.329825998284,1114.0732204043306,"[70, 0, 184]",184,l,0.2198565611615777,colour,0.5
177,28,0,1,16,3,753,1114.5807279068977,1115.409044291824,"[58, 0, 196]",196,a,0.30533346999436617,colour,0.5
177,28,0,1,16,4,754,1115.924506707117,1116.6410974925384,"[79, 0, 175]",175,l,0.19347593188285828,colour,0.5
177,28,0,1,16,5,755,1117.1588930548169,1117.8571573728696,"[57, 0, 197]",197,a,0.17493875697255135,colour,0.5
177,28,0,1,16,6,756,1118.3776436946355,1119.057135711424,"[25, 0, 229]",229,a,0.15613376582041383,colour,0.5
177,28,0,1,16,7,757,1119.5651583652943,1120.2332784570754,"[6, 0, 248]",248,a,0.14485833328217268,colour,0.5
177,28,0,1,16,8,758,1120.7526049008593,1121.5691003752872,"[17, 0, 237]",237,a,0.293248288333416,colour,0.5
177,28,0,1,16,9,759,1122.0807397225872,1122.913077280391,"[63, 0, 191]",191,l,0.30899781826883554,colour,0.5
177,28,0,1,16,10,760,1123.4224752467126,1124.1130961850286,"[3, 0, 251]",251,a,0.16736508812755346,colour,0.5
177,28,0,1,16,11,761,1124.6255594589747,1125.2892042724416,"[21, 0, 233]",233,a,0.14079580642282963,colour,0.5
177,28,0,1,16,12,762,1125.7976696100086,1126.6250703013502,"[43, 0, 211]",211,a,0.3040798562578857,colour,0.5
177,28,0,1,16,13,763,1127.129761801567,1127.8011523946188,"[74, 0, 180]",180,l,0.1484171305783093,colour,0.5
177,28,0,1,16,14,764,1128.3178302203305,1129.0971217690967,"[65, 0, 189]",189,l,0.25592857180163264,colour,0.5
177,28,0,1,16,15,765,1129.6147306482308,1130.249087851029,"[84, 0, 170]",170,l,0.1111454633064568,colour,0.5
177,28,0,1,16,16,766,1130.757277496159,1131.4170760042034,"[93, 0, 161]",161,l,0.13670964818447828,colour,0.5
177,28,0,1,16,17,767,1131.9292336530052,1132.6411282126792,"[50, 0, 204]",204,a,0.18865446280688047,colour,0.5
177,28,0,1,16,18,768,1133.1479571177624,1133.7852291790769,"[16, 0, 238]",238,a,0.11400557681918144,colour,0.5
177,28,0,1,16,19,769,1134.3041779240593,1134.9051054324955,"[2, 0, 252]",252,a,0.07761770114302635,colour,0.5
177,28,0,1,16,20,770,1135.413516419474,1136.0170791549608,"[76, 0, 178]",178,l,0.08021708810701966,colour,0.5
177,28,0,1,16,21,771,1136.5385004682466,1137.4090872211382,"[56, 0, 198]",198,a,0.3472316525876522,colour,0.5
177,28,0,1,16,22,772,1137.9292895793915,1138.5611261646263,"[83, 0, 171]",171,l,0.10857482673600316,colour,0.5
177,28,0,1,16,23,773,1139.0699152438901,1139.7851441083476,"[13, 0, 241]",241,a,0.191943081561476,colour,0.5
177,28,0,1,16,24,774,1140.3042488163337,1141.0490894266404,"[60, 0, 194]",194,a,0.22154222428798676,colour,0.5
177,28,0,1,16,25,775,1141.5699109118432,1142.185127960518,"[62, 0, 192]",192,a,0.09270005440339446,colour,0.5
177,28,0,1,16,26,776,1142.6948551824316,1143.3451682901941,"[45, 0, 209]",209,a,0.12738848198205233,colour,0.5
177,28,0,1,16,27,777,1143.8539928160608,1144.4331276137382,"[86, 0, 168]",168,l,0.0551806571893394,colour,0.5
177,28,0,1,16,28,778,1144.9443766586483,1145.561112380121,"[33, 0, 221]",221,a,0.0938918343745172,colour,0.5
177,28,0,1,16,29,779,1146.0700688441284,1146.6651087407954,"[29, 0, 225]",225,a,0.0718340645544231,colour,0.5
177,28,0,1,16,30,780,1147.17957866285,1147.9292025393806,"[14, 0, 240]",240,a,0.22646294301375747,colour,0.5
177,28,0,1,16,31,781,1148.445035958197,1149.2411412093788,"[42, 0, 212]",212,a,0.2727576345205307,colour,0.5
177,28,0,1,16,32,782,1149.7575685488991,1150.5772675713524,"[20, 0, 234]",234,a,0.2965766857378185,colour,0.5
177,28,0,1,16,33,783,1151.0857246378437,1151.8334119711071,"[19, 0, 235]",235,a,0.22439721785485744,colour,0.5
177,28,0,1,16,34,784,1152.3513934286311,1153.513122966513,"[96, 0, 158]",158,l,0.6385142533108592,colour,0.5
177,28,0,1,16,35,785,1154.0231995303184,1154.761185635347,"[77, 0, 177]",177,l,0.21478027291595936,colour,0.5
177,28,0,1,16,36,786,1155.2732274932787,1156.057364929933,"[28, 0, 226]",226,a,0.26101785665377975,colour,0.5
177,28,0,1,16,37,787,1156.5699853487313,1157.329171425663,"[53, 0, 201]",201,a,0.23594164801761508,colour,0.5
177,28,0,1,16,38,788,1157.825001378078,1158.7531117810868,"[47, 0, 207]",207,a,0.40474900137633085,colour,0.5
177,28,0,1,16,39,789,1159.262622387614,1159.9211905188859,"[78, 0, 176]",176,l,0.13532094517722726,colour,0.5
177,28,0,1,16,40,790,1160.4344103722833,1161.3211393188685,"[37, 0, 217]",217,a,0.3633301299996674,colour,0.5
177,28,0,1,16,41,791,1161.8406508704647,1162.5611238013953,"[90, 0, 164]",164,l,0.19742621295154095,colour,0.5
177,28,0,1,16,42,792,1163.0749808982946,1163.913113514427,"[55, 0, 199]",199,a,0.3147404948249459,colour,0.5
177,28,0,1,16,43,793,1164.434400131926,1165.3131245421246,"[71, 0, 183]",183,l,0.3553342577069998,colour,0.5
177,28,0,1,16,44,794,1165.8258256991394,1166.6491264482029,"[38, 0, 216]",216,a,0.3000271753408015,colour,0.5
177,28,0,1,16,45,795,1167.1695922897197,1167.9611198632047,"[10, 0, 244]",244,a,0.26860452303662896,colour,0.5
177,28,0,1,16,46,796,1168.4819693113677,1169.3211790975183,"[24, 0, 230]",230,a,0.3158779232762754,colour,0.5
177,28,0,1,16,47,797,1169.8416736898944,1170.649143777322,"[67, 0, 187]",187,l,0.28412877209484577,colour,0.5
177,28,0,1,16,48,798,1171.1700609670952,1171.9451422966085,"[1, 0, 253]",253,a,0.25202043261379004,colour,0.5
177,28,0,1,16,49,799,1172.4665758190677,1173.313154868316,"[8, 0, 246]",246,a,0.3232920845039189,colour,0.5
177,28,0,1,16,50,800,1173.826020652894,1174.4971048338339,"[81, 0, 173]",173,l,0.14798626257106662,colour,0.5
