id,age,condition,counterbalance,block,trialinblock,trial,tstart,tend,trialstim,trialintensity,response,RT,trialtype,colourfreq
180,20,0,1,Practice,1,NA,4.170404281467199e-06,0.8441751631035004,"[82, 0, 172]",172,a,0.31512845240649767,colour,0.5
180,20,0,1,Practice,2,NA,1.3461092793149874,1.908062913134927,"[20, 0, 234]",234,a,0.029056013969238847,colour,0.5
180,20,0,1,Practice,3,NA,2.4130748052848503,3.4521927789901383,"[87, 0, 167]",167,l,0.5065283239528071,colour,0.5
180,20,0,1,Practice,4,NA,3.9632148995879106,5.660080277535599,"[7, 0, 247]",247,a,1.164425542781828,colour,0.5
180,20,0,1,Practice,5,NA,6.166687839606311,7.108093325194204,"[44, 0, 210]",210,a,0.4124498826859053,colour,0.5
180,20,0,1,Practice,6,NA,7.612576535379048,8.468095583637478,"[29, 0, 225]",225,a,0.32245910255005583,colour,0.5
180,20,0,1,Practice,7,NA,8.979656651848927,9.684093923162436,"[78, 0, 176]",176,l,0.1717642129806336,colour,0.5
180,20,0,1,Practice,8,NA,10.197439292998752,11.0282758231333,"[73, 0, 181]",181,l,0.2993193219881505,colour,0.5
180,20,0,1,Practice,9,NA,11.54623721522512,12.332129362825071,"[30, 0, 224]",224,a,0.2531712897471152,colour,0.5
180,20,0,1,Practice,10,NA,12.845800667651929,13.436118024401367,"[50, 0, 204]",204,a,0.05717496486613527,colour,0.5
180,20,0,1,1,1,1,4.536410724278539,5.367909390071873,"[27, 0, 227]",227,a,0.2986032915650867,colour,0.5
180,20,0,1,1,2,2,5.869661932258168,6.727837543206988,"[69, 0, 185]",185,l,0.32517565521993674,colour,0.5
180,20,0,1,1,3,3,7.236484123801347,8.047904424049193,"[17, 0, 237]",237,a,0.27862277068197727,colour,0.5
180,20,0,1,1,4,4,8.552608025289373,9.375976281153271,"[23, 0, 231]",231,a,0.2900150969508104,colour,0.5
180,20,0,1,1,5,5,9.886651614622679,10.663925091386773,"[82, 0, 172]",172,l,0.24460715529858135,colour,0.5
180,20,0,1,1,6,6,11.169404071464669,11.96798266127007,"[53, 0, 201]",201,a,0.26534958131378517,colour,0.5
180,20,0,1,1,7,7,12.486676765518496,13.303920587350149,"[10, 0, 244]",244,a,0.2842368084820919,colour,0.5
180,20,0,1,1,8,8,13.819947221607435,14.583832020289265,"[71, 0, 183]",183,l,0.23123515889164992,colour,0.5
180,20,0,1,1,9,9,15.086204673047177,15.847857651097002,"[50, 0, 204]",204,a,0.22859720274573192,colour,0.5
180,20,0,1,1,10,10,16.35301165858982,17.160029590770137,"[1, 0, 253]",253,a,0.2741103674925398,colour,0.5
180,20,0,1,1,11,11,17.669301414774964,18.43997759517515,"[13, 0, 241]",241,a,0.23738621949451044,colour,0.5
180,20,0,1,1,12,12,18.952535395685118,19.735997146141017,"[51, 0, 203]",203,l,0.25010410029790364,colour,0.5
180,20,0,1,1,13,13,20.252949615445687,20.95998570503434,"[6, 0, 248]",248,a,0.1740871414076537,colour,0.5
180,20,0,1,1,14,14,21.469488506612834,22.255981195834465,"[80, 0, 174]",174,l,0.253416061779717,colour,0.5
180,20,0,1,1,15,15,22.769748099701246,23.5359940022754,"[26, 0, 228]",228,a,0.23343457849114202,colour,0.5
180,20,0,1,1,16,16,24.053324697335484,24.855865835386794,"[70, 0, 184]",184,l,0.26950685650808737,colour,0.5
180,20,0,1,1,17,17,25.369311937101884,26.22394236337277,"[76, 0, 178]",178,l,0.32141360829700716,colour,0.5
180,20,0,1,1,18,18,26.73655919151497,27.535891345585696,"[42, 0, 212]",212,a,0.26664048922248185,colour,0.5
180,20,0,1,1,19,19,28.05288808559999,28.831840640865266,"[84, 0, 170]",170,l,0.24596671483595856,colour,0.5
180,20,0,1,1,20,20,29.336394106736407,30.095873008540366,"[92, 0, 162]",162,l,0.2266884298878722,colour,0.5
180,20,0,1,1,21,21,30.603108701237943,31.3439377695031,"[22, 0, 232]",232,a,0.20808639586903155,colour,0.5
180,20,0,1,1,22,22,31.852880129707046,32.63192058476852,"[33, 0, 221]",221,a,0.2460757875815034,colour,0.5
180,20,0,1,1,23,23,33.13634605056723,33.928027714719065,"[59, 0, 195]",195,l,0.2588568664214108,colour,0.5
180,20,0,1,1,24,24,34.43678561368142,35.14389612938976,"[19, 0, 235]",235,a,0.17473323698504828,colour,0.5
180,20,0,1,1,25,25,35.65300723150722,36.40794293311774,"[31, 0, 223]",223,a,0.22162200137972832,colour,0.5
180,20,0,1,1,26,26,36.920150738500524,37.72787668107776,"[49, 0, 205]",205,a,0.27539197212900035,colour,0.5
180,20,0,1,1,27,27,38.23600612860173,38.97603928670287,"[21, 0, 233]",233,a,0.2068933326518163,colour,0.5
180,20,0,1,1,28,28,39.48634088563267,40.22386889968766,"[57, 0, 197]",197,l,0.20473722132737748,colour,0.5
180,20,0,1,1,29,29,40.735964745108504,41.4718662922096,"[83, 0, 171]",171,l,0.2027318870241288,colour,0.5
180,20,0,1,1,30,30,41.98622218883247,42.68786174451816,"[96, 0, 158]",158,l,0.1687332741857972,colour,0.5
180,20,0,1,1,31,31,43.204159135813825,43.87987210258143,"[45, 0, 209]",209,a,0.1440796282258816,colour,0.5
180,20,0,1,1,32,32,44.38643699797103,44.92795168462908,"[28, 0, 226]",226,a,0.008815001754555851,colour,0.5
180,20,0,1,1,33,33,45.43585272098426,46.1918627890409,"[32, 0, 222]",222,a,0.22274769615614787,colour,0.5
180,20,0,1,1,34,34,46.702595866896445,47.455871096550254,"[14, 0, 240]",240,a,0.21965516335330904,colour,0.5
180,20,0,1,1,35,35,47.97000563968322,48.735925928049255,"[39, 0, 215]",215,a,0.2334583178453613,colour,0.5
180,20,0,1,1,36,36,49.25265832708101,49.935955698485486,"[73, 0, 181]",181,l,0.15019187176949345,colour,0.5
180,20,0,1,1,37,37,50.45262425788678,51.031971463991795,"[55, 0, 199]",199,a,0.046211230248445645,colour,0.5
180,20,0,1,1,38,38,51.53605495468946,52.22386152125546,"[88, 0, 166]",166,l,0.15477453064522706,colour,0.5
180,20,0,1,1,39,39,52.736465196474455,53.47985426598461,"[35, 0, 219]",219,a,0.21073782572057098,colour,0.5
180,20,0,1,1,40,40,53.9867662693141,54.663975778152235,"[79, 0, 175]",175,l,0.14489703215076588,colour,0.5
180,20,0,1,1,41,41,55.169680923747364,55.9198588085419,"[9, 0, 245]",245,a,0.21745093169738539,colour,0.5
180,20,0,1,1,42,42,56.43607984893606,57.15986694407184,"[56, 0, 198]",198,a,0.19079900908400305,colour,0.5
180,20,0,1,1,43,43,57.67041106946999,58.3998696259805,"[75, 0, 179]",179,l,0.19702353340107948,colour,0.5
180,20,0,1,1,44,44,58.90271193312947,59.61587341915583,"[66, 0, 188]",188,l,0.18014933983795345,colour,0.5
180,20,0,1,1,45,45,60.11992001760518,60.8399534066848,"[90, 0, 164]",164,l,0.187575589021435,colour,0.5
180,20,0,1,1,46,46,61.35249452549033,62.07194886668003,"[12, 0, 242]",242,a,0.18624682645895518,colour,0.5
180,20,0,1,1,47,47,62.58608276821906,63.27203381509753,"[18, 0, 236]",236,a,0.1529915122082457,colour,0.5
180,20,0,1,1,48,48,63.786215195344994,64.48797120220843,"[43, 0, 211]",211,a,0.1689466075913515,colour,0.5
180,20,0,1,1,49,49,65.0030684726371,65.69590104662348,"[64, 0, 190]",190,l,0.16020186155219562,colour,0.5
180,20,0,1,1,50,50,66.20277968654409,66.90388221939793,"[63, 0, 191]",191,l,0.1681907977326773,colour,0.5
180,20,0,1,2,1,51,76.1525087049522,76.79200663673691,"[33, 0, 221]",221,a,0.10632185568101704,colour,0.5
180,20,0,1,2,2,52,77.30395812119241,77.96800832543522,"[47, 0, 207]",207,a,0.13236168774892576,colour,0.5
180,20,0,1,2,3,53,78.4696052786021,79.11986580202938,"[15, 0, 239]",239,a,0.11755666809040122,colour,0.5
180,20,0,1,2,4,54,79.63637524354272,80.31187455606414,"[54, 0, 200]",200,l,0.14290613392950036,colour,0.5
180,20,0,1,2,5,55,80.81925268494524,81.5198852426256,"[77, 0, 177]",177,l,0.16759057686431333,colour,0.5
180,20,0,1,2,6,56,82.03579799213912,82.65600384448771,"[95, 0, 159]",159,l,0.08704485392081551,colour,0.5
180,20,0,1,2,7,57,83.1707732550858,83.78407255772618,"[89, 0, 165]",165,l,0.08178498171037063,colour,0.5
180,20,0,1,2,8,58,84.30297133376007,85.0079218885221,"[79, 0, 175]",175,a,0.17230604783981107,colour,0.5
180,20,0,1,2,9,59,85.51962058086065,86.12787591115921,"[44, 0, 210]",210,a,0.07559510404826142,colour,0.5
180,20,0,1,2,10,60,86.63578368438175,87.21598454500781,"[20, 0, 234]",234,a,0.04703729579341598,colour,0.5
180,20,0,1,2,11,61,87.71956405552919,88.33589365534135,"[92, 0, 162]",162,l,0.08358981466153637,colour,0.5
180,20,0,1,2,12,62,88.85319387420896,89.43990156505606,"[19, 0, 235]",235,a,0.05430346474167891,colour,0.5
180,20,0,1,2,13,63,89.95294634325546,90.51200634159613,"[12, 0, 242]",242,a,0.026427040284033865,colour,0.5
180,20,0,1,2,14,64,91.01912879114388,91.76788167274208,"[40, 0, 214]",214,a,0.21562364260898903,colour,0.5
180,20,0,1,2,15,65,92.2688418336038,92.976036720298,"[86, 0, 168]",168,l,0.17378687061136588,colour,0.5
180,20,0,1,2,16,66,93.48588823378668,94.14402188383974,"[82, 0, 172]",172,l,0.12510418050806038,colour,0.5
180,20,0,1,2,17,67,94.65279999331688,95.32803656885517,"[35, 0, 219]",219,a,0.1424602189217694,colour,0.5
180,20,0,1,2,18,68,95.83637389619253,96.45598113167216,"[51, 0, 203]",203,a,0.0870798213290982,colour,0.5
180,20,0,1,2,19,69,96.96959725854686,97.56788269930985,"[52, 0, 202]",202,a,0.06564895389601588,colour,0.5
180,20,0,1,2,20,70,98.06962529665907,98.76804560265737,"[60, 0, 194]",194,a,0.16581589935231023,colour,0.5
180,20,0,1,2,21,71,99.2697458541079,100.68797177966917,"[91, 0, 163]",163,l,0.8857139099272899,colour,0.5
180,20,0,1,2,22,72,101.20334975197329,101.91990340003395,"[98, 0, 156]",156,l,0.1843650009832345,colour,0.5
180,20,0,1,2,23,73,102.4368805711274,103.11186692098272,"[50, 0, 204]",204,a,0.14298890088684857,colour,0.5
180,20,0,1,2,24,74,103.61958927055821,104.26388126981328,"[69, 0, 185]",185,l,0.11168598858057521,colour,0.5
180,20,0,1,2,25,75,104.76930603434448,105.34393167425878,"[27, 0, 227]",227,a,0.04172320803627372,colour,0.5
180,20,0,1,2,26,76,105.85265492656617,106.44796300251619,"[14, 0, 240]",240,a,0.06242874183226377,colour,0.5
180,20,0,1,2,27,77,106.95263516515843,107.62394833032158,"[64, 0, 190]",190,l,0.13841811174643226,colour,0.5
180,20,0,1,2,28,78,108.13572754399502,108.73600035413983,"[7, 0, 247]",247,a,0.06714260875014588,colour,0.5
180,20,0,1,2,29,79,109.25257010647329,109.9679201048566,"[39, 0, 215]",215,a,0.18240040857926942,colour,0.5
180,20,0,1,2,30,80,110.46984716341831,112.16002734517679,"[73, 0, 181]",181,l,1.1578497401205823,colour,0.5
180,20,0,1,2,31,81,112.66882502357475,113.53589712001849,"[80, 0, 174]",174,l,0.3337221455585677,colour,0.5
180,20,0,1,2,32,82,114.05272191006225,114.81598018211662,"[61, 0, 193]",193,l,0.23049121868098155,colour,0.5
180,20,0,1,2,33,83,115.31877404812258,116.05597837278037,"[72, 0, 182]",182,l,0.20381587752490304,colour,0.5
180,20,0,1,2,34,84,116.5687495067541,117.35189077584073,"[66, 0, 188]",188,l,0.24973293222137727,colour,0.5
180,20,0,1,2,35,85,117.86948196223238,118.5359352954838,"[5, 0, 249]",249,a,0.1337302297761198,colour,0.5
180,20,0,1,2,36,86,119.0530157648318,119.64789941953495,"[26, 0, 228]",228,a,0.062413343315711245,colour,0.5
180,20,0,1,2,37,87,120.1526816173282,120.87194059000467,"[8, 0, 246]",246,a,0.18646497195004486,colour,0.5
180,20,0,1,2,38,88,121.38615565447253,122.08789497963153,"[28, 0, 226]",226,a,0.16909032699186355,colour,0.5
180,20,0,1,2,39,89,122.60292327759089,123.31201057619182,"[97, 0, 157]",157,l,0.176544806745369,colour,0.5
180,20,0,1,2,40,90,123.81952440435998,124.47995948907919,"[10, 0, 244]",244,a,0.1278322820435278,colour,0.5
180,20,0,1,2,41,91,124.9868057279673,125.71201975113945,"[36, 0, 218]",218,a,0.1932290854747407,colour,0.5
180,20,0,1,2,42,92,126.22013668736327,126.77589723549318,"[22, 0, 232]",232,a,0.023789725732058287,colour,0.5
180,20,0,1,2,43,93,127.28624631316052,128.06401446688687,"[0, 0, 254]",254,a,0.24523913554730825,colour,0.5
180,20,0,1,2,44,94,128.56913126131985,129.3679010492051,"[96, 0, 158]",158,l,0.2657906842941884,colour,0.5
180,20,0,1,2,45,95,129.8690909044235,130.58398023087648,"[2, 0, 252]",252,a,0.18187782185850665,colour,0.5
180,20,0,1,2,46,96,131.08593359522638,132.20799849607283,"[37, 0, 217]",217,a,0.589223421382485,colour,0.5
180,20,0,1,2,47,97,132.71957945401664,133.52794411368086,"[46, 0, 208]",208,a,0.27584590716287494,colour,0.5
180,20,0,1,2,48,98,134.0360453306057,134.73591309596668,"[63, 0, 191]",191,l,0.167156852374319,colour,0.5
180,20,0,1,2,49,99,135.25280300885788,135.95993790551438,"[75, 0, 179]",179,l,0.17451380827696994,colour,0.5
180,20,0,1,2,50,100,136.46909488236997,137.17600489669712,"[34, 0, 220]",220,a,0.17392641952028498,colour,0.5
180,20,0,1,3,1,101,141.81862583750626,142.8800751703384,"[10, 0, 244]",244,a,0.5280153317726217,colour,0.5
180,20,0,1,3,2,102,143.38611651660176,144.17597987415502,"[84, 0, 170]",170,l,0.2572361739294138,colour,0.5
180,20,0,1,3,3,103,144.68598697669222,145.53610884945374,"[6, 0, 248]",248,a,0.3173939572589006,colour,0.5
180,20,0,1,3,4,104,146.05255188493175,146.76802603373653,"[78, 0, 176]",176,l,0.18265544628957286,colour,0.5
180,20,0,1,3,5,105,147.2860557566746,148.01591146629653,"[56, 0, 198]",198,l,0.19720446583232842,colour,0.5
180,20,0,1,3,6,106,148.519435477996,149.16790143417893,"[63, 0, 191]",191,l,0.11583524371962994,colour,0.5
180,20,0,1,3,7,107,149.66922987590078,150.26391431243974,"[12, 0, 242]",242,a,0.061884661350632086,colour,0.5
180,20,0,1,3,8,108,150.7690558086615,151.35991211302462,"[34, 0, 220]",220,a,0.05788618323276751,colour,0.5
180,20,0,1,3,9,109,151.86935684940545,152.46394247887656,"[87, 0, 167]",167,l,0.06190358867752366,colour,0.5
180,20,0,1,3,10,110,152.96865955382236,153.54393257250194,"[52, 0, 202]",202,a,0.041913443710654974,colour,0.5
180,20,0,1,3,11,111,154.05275174466078,154.59190115699312,"[81, 0, 173]",173,l,0.006535381602589041,colour,0.5
180,20,0,1,3,12,112,155.10207026463468,155.65605902243988,"[11, 0, 243]",243,a,0.02071355382213369,colour,0.5
180,20,0,1,3,13,113,156.16986827220535,156.79196429086733,"[1, 0, 253]",253,a,0.08995869994396344,colour,0.5
180,20,0,1,3,14,114,157.30279040132882,157.9759545949346,"[90, 0, 164]",164,l,0.140596999990521,colour,0.5
180,20,0,1,3,15,115,158.48578782271943,159.12807865810464,"[71, 0, 183]",183,l,0.10940508521161973,colour,0.5
180,20,0,1,3,16,116,159.63596397518995,160.36004588752985,"[30, 0, 224]",224,a,0.19138447305886075,colour,0.5
180,20,0,1,3,17,117,160.86946688452736,161.6079114303575,"[44, 0, 210]",210,a,0.20592033967841417,colour,0.5
180,20,0,1,3,18,118,162.1193942228565,162.8719514972763,"[31, 0, 223]",223,a,0.21996537904487923,colour,0.5
180,20,0,1,3,19,119,163.38564012540155,164.2079028970329,"[50, 0, 204]",204,l,0.289257041469682,colour,0.5
180,20,0,1,3,20,120,164.71897730836645,165.4320066239161,"[70, 0, 184]",184,l,0.18003288863110356,colour,0.5
180,20,0,1,3,21,121,165.93624923247262,166.6479058355617,"[77, 0, 177]",177,l,0.17928092836518772,colour,0.5
180,20,0,1,3,22,122,167.15268578773248,167.8399373665743,"[88, 0, 166]",166,l,0.15463177365018055,colour,0.5
180,20,0,1,3,23,123,168.35344313748647,169.14391698152758,"[66, 0, 188]",188,l,0.25862139763194136,colour,0.5
180,20,0,1,3,24,124,169.652063110756,170.3679466031026,"[22, 0, 232]",232,a,0.18263363174628466,colour,0.5
180,20,0,1,3,25,125,170.88585377964773,171.60793388652382,"[57, 0, 197]",197,a,0.18930086304317228,colour,0.5
180,20,0,1,3,26,126,172.11894542063237,172.74395881412784,"[14, 0, 240]",240,a,0.092001247277949,colour,0.5
180,20,0,1,3,27,127,173.2525819761795,173.991978662787,"[33, 0, 221]",221,a,0.2067002097319346,colour,0.5
180,20,0,1,3,28,128,174.50203003606293,175.09591920403182,"[72, 0, 182]",182,l,0.060647969017736614,colour,0.5
180,20,0,1,3,29,129,175.6021013824502,176.25591671461007,"[41, 0, 213]",213,a,0.12064535127137788,colour,0.5
180,20,0,1,3,30,130,176.76909783374867,178.14406840014271,"[80, 0, 174]",174,l,0.8421387110138312,colour,0.5
180,20,0,1,3,31,131,178.65273968249676,179.19993320899084,"[75, 0, 179]",179,l,0.014676698803668842,colour,0.5
180,20,0,1,3,32,132,179.70224394692923,180.48004867209238,"[89, 0, 165]",165,l,0.24479450375656597,colour,0.5
180,20,0,1,3,33,133,180.9859485446068,181.87194861005992,"[59, 0, 195]",195,l,0.3533674282080028,colour,0.5
180,20,0,1,3,34,134,182.38517881190637,183.23205160038196,"[68, 0, 186]",186,a,0.3134464866889175,colour,0.5
180,20,0,1,3,35,135,183.73595415864838,184.41594373897533,"[46, 0, 208]",208,a,0.14737266238080338,colour,0.5
180,20,0,1,3,36,136,184.91874434184865,185.4639357420383,"[3, 0, 251]",251,a,0.012036817817715928,colour,0.5
180,20,0,1,3,37,137,185.9693354839692,186.69602776347892,"[23, 0, 231]",231,a,0.19412668989389203,colour,0.5
180,20,0,1,3,38,138,187.20210375639726,187.89592536343844,"[60, 0, 194]",194,l,0.16070006729569286,colour,0.5
180,20,0,1,3,39,139,188.40304973779712,189.20805880686385,"[40, 0, 214]",214,a,0.27283485810039565,colour,0.5
180,20,0,1,3,40,140,189.71965131370234,190.50399687408935,"[54, 0, 200]",200,l,0.2521110386005603,colour,0.5
180,20,0,1,3,41,141,191.01931678122492,191.7519548079581,"[4, 0, 250]",250,a,0.20007436195737682,colour,0.5
180,20,0,1,3,42,142,192.26985043560853,192.9600408830156,"[85, 0, 169]",169,l,0.15816348462249152,colour,0.5
180,20,0,1,3,43,143,193.46889919304522,194.62392747815466,"[49, 0, 205]",205,l,0.6220568807912059,colour,0.5
180,20,0,1,3,44,144,195.13528451620368,195.92804535885807,"[42, 0, 212]",212,a,0.25950905721401796,colour,0.5
180,20,0,1,3,45,145,196.43617159835412,197.1600613501796,"[36, 0, 218]",218,a,0.1914836009091232,colour,0.5
180,20,0,1,3,46,146,197.6694614950684,198.39207188790897,"[37, 0, 217]",217,a,0.1902000714908354,colour,0.5
180,20,0,1,3,47,147,198.90258746189647,199.7521306075214,"[47, 0, 207]",207,l,0.31691499962471426,colour,0.5
180,20,0,1,3,48,148,200.26900704673608,200.87192519148812,"[16, 0, 238]",238,a,0.07008821418276057,colour,0.5
180,20,0,1,3,49,149,201.38601033110172,201.96794448580476,"[98, 0, 156]",156,l,0.04941347739077173,colour,0.5
180,20,0,1,3,50,150,202.48501693512662,203.23201919934945,"[17, 0, 237]",237,a,0.21351404758752324,colour,0.5
180,20,0,1,4,1,151,207.83467139911954,208.6161133791611,"[62, 0, 192]",192,l,0.24760729708941653,colour,0.5
180,20,0,1,4,2,152,209.11866856837878,209.87996192718856,"[55, 0, 199]",199,l,0.22814840052160434,colour,0.5
180,20,0,1,4,3,153,210.38560066674836,211.19209633301944,"[71, 0, 183]",183,a,0.2736201817751862,colour,0.5
180,20,0,1,4,4,154,211.70284031814663,214.12803952023387,"[52, 0, 202]",202,l,1.8929130311589688,colour,0.5
180,20,0,1,4,5,155,214.63568968934123,215.46394632849842,"[27, 0, 227]",227,a,0.29548509456799366,colour,0.5
180,20,0,1,4,6,156,215.9694221005484,216.6399679069291,"[13, 0, 241]",241,a,0.13766711385687813,colour,0.5
180,20,0,1,4,7,157,217.15172530608834,217.92807904307847,"[56, 0, 198]",198,l,0.24294572093640454,colour,0.5
180,20,0,1,4,8,158,218.43593741278164,219.39200131141115,"[84, 0, 170]",170,l,0.4235518829955254,colour,0.5
180,20,0,1,4,9,159,219.90249635407235,220.59994527112576,"[19, 0, 235]",235,a,0.16484803921775892,colour,0.5
180,20,0,1,4,10,160,221.10211196891032,221.7921060853987,"[93, 0, 161]",161,l,0.15700121838017367,colour,0.5
180,20,0,1,4,11,161,222.30217927321792,222.92806973980623,"[28, 0, 226]",226,a,0.09296589935547672,colour,0.5
180,20,0,1,4,12,162,223.43524736733525,224.1760424305685,"[75, 0, 179]",179,l,0.2076077590463683,colour,0.5
180,20,0,1,4,13,163,224.68588913202984,225.23195022688014,"[26, 0, 228]",228,a,0.013523735833587125,colour,0.5
180,20,0,1,4,14,164,225.73568981766584,226.35993168194545,"[44, 0, 210]",210,a,0.09150913674966432,colour,0.5
180,20,0,1,4,15,165,226.8688358666841,227.5999385342875,"[82, 0, 172]",172,l,0.1977902505605016,colour,0.5
180,20,0,1,4,16,166,228.1024911570712,228.84795100451447,"[23, 0, 231]",231,a,0.21286634803982452,colour,0.5
180,20,0,1,4,17,167,229.3521554376057,230.000013152865,"[98, 0, 156]",156,l,0.11493443124345504,colour,0.5
180,20,0,1,4,18,168,230.50229822666734,231.19211878918577,"[1, 0, 253]",253,a,0.15704805552377366,colour,0.5
180,20,0,1,4,19,169,231.70267831304227,232.48795644531492,"[50, 0, 204]",204,a,0.25286171564948745,colour,0.5
180,20,0,1,4,20,170,233.001979670109,233.6400487490755,"[8, 0, 246]",246,a,0.10499373471247964,colour,0.5
180,20,0,1,4,21,171,234.15222030380392,234.86396673152922,"[95, 0, 159]",159,l,0.1789132890990004,colour,0.5
180,20,0,1,4,22,172,235.36899370135507,236.0960581113759,"[58, 0, 196]",196,l,0.1943384193291422,colour,0.5
180,20,0,1,4,23,173,236.60162980327732,237.25598632867332,"[40, 0, 214]",214,a,0.12086734638432972,colour,0.5
180,20,0,1,4,24,174,237.7685781342443,238.49595949679497,"[91, 0, 163]",163,l,0.19377926117158495,colour,0.5
180,20,0,1,4,25,175,239.00242718911613,239.63196036423324,"[6, 0, 248]",248,a,0.09689123459975235,colour,0.5
180,20,0,1,4,26,176,240.13571471191244,240.67206608780543,"[32, 0, 222]",222,a,0.0036949992936570197,colour,0.5
180,20,0,1,4,27,177,241.18571654049447,241.95209204711136,"[45, 0, 209]",209,a,0.23372169642243534,colour,0.5
180,20,0,1,4,28,178,242.46826785439043,243.1279782470374,"[2, 0, 252]",252,a,0.1262789580214303,colour,0.5
180,20,0,1,4,29,179,243.63561398003367,244.39203499566065,"[15, 0, 239]",239,a,0.22367417279747315,colour,0.5
180,20,0,1,4,30,180,244.90181881989702,245.57609170576325,"[16, 0, 238]",238,a,0.1410448397800792,colour,0.5
180,20,0,1,4,31,181,246.08572667781846,246.831959658477,"[10, 0, 244]",244,a,0.21362183714518324,colour,0.5
180,20,0,1,4,32,182,247.3354515899846,248.00802839483367,"[89, 0, 165]",165,l,0.13967982662143186,colour,0.5
180,20,0,1,4,33,183,248.51848814924597,249.22404020803515,"[94, 0, 160]",160,l,0.17184633831493556,colour,0.5
180,20,0,1,4,34,184,249.7355120932625,250.53612488956423,"[65, 0, 189]",189,l,0.26778928175917827,colour,0.5
180,20,0,1,4,35,185,251.05244473699713,251.8159580467618,"[69, 0, 185]",185,l,0.23094675774336793,colour,0.5
180,20,0,1,4,36,186,252.3184461883211,253.05609033274231,"[54, 0, 200]",200,l,0.20442443923093379,colour,0.5
180,20,0,1,4,37,187,253.56883804814424,254.26409813208738,"[81, 0, 173]",173,l,0.16240865961299278,colour,0.5
180,20,0,1,4,38,188,254.76901153795188,255.4480069524143,"[9, 0, 245]",245,a,0.1463525115395896,colour,0.5
180,20,0,1,4,39,189,255.95235093444353,256.6159626021399,"[21, 0, 233]",233,a,0.1309562534734141,colour,0.5
180,20,0,1,4,40,190,257.11845427253866,257.80002701151534,"[90, 0, 164]",164,l,0.14837420673575252,colour,0.5
180,20,0,1,4,41,191,258.3018664911215,259.02398862305563,"[57, 0, 197]",197,l,0.189013424271252,colour,0.5
180,20,0,1,4,42,192,259.53485066336,260.2480631569633,"[67, 0, 187]",187,l,0.17929183566593565,colour,0.5
180,20,0,1,4,43,193,260.7519285021699,261.44003181072185,"[33, 0, 221]",221,a,0.15506613976322114,colour,0.5
180,20,0,1,4,44,194,261.95164164088783,262.6399682277406,"[41, 0, 213]",213,a,0.15500550816068426,colour,0.5
180,20,0,1,4,45,195,263.1525192914123,263.84010642929934,"[5, 0, 249]",249,a,0.1551213177444879,colour,0.5
180,20,0,1,4,46,196,264.3517877983395,264.9281031032442,"[0, 0, 254]",254,a,0.04315174007206224,colour,0.5
180,20,0,1,4,47,197,265.4357430066739,266.0160885490768,"[29, 0, 225]",225,a,0.047791180899366736,colour,0.5
180,20,0,1,4,48,198,266.5191907059634,267.2719670882507,"[59, 0, 195]",195,l,0.22034681279910728,colour,0.5
180,20,0,1,4,49,199,267.7855854607187,268.6319863492099,"[35, 0, 219]",219,a,0.313676501828013,colour,0.5
180,20,0,1,4,50,200,269.1355562356475,269.83195324242115,"[85, 0, 169]",169,l,0.1636492015386466,colour,0.5
180,20,0,1,5,1,201,274.4018021381926,276.7839984524471,"[59, 0, 195]",195,l,1.849076699319994,colour,0.5
180,20,0,1,5,2,202,277.28580392699223,278.01600257409154,"[99, 0, 155]",155,l,0.19773507257923484,colour,0.5
180,20,0,1,5,3,203,278.5186469462933,279.128067750833,"[27, 0, 227]",227,a,0.07649270849651657,colour,0.5
180,20,0,1,5,4,204,279.6353611879167,280.17610081654857,"[32, 0, 222]",222,a,0.007864785729907453,colour,0.5
180,20,0,1,5,5,205,280.6856292822922,281.5681207345333,"[47, 0, 207]",207,l,0.34986170221236534,colour,0.5
180,20,0,1,5,6,206,282.085603810614,282.7121243326401,"[21, 0, 233]",233,a,0.09390232089208439,colour,0.5
180,20,0,1,5,7,207,283.2181852478243,283.84809568629134,"[76, 0, 178]",178,l,0.0965191040886566,colour,0.5
180,20,0,1,5,8,208,284.3518490715651,285.0400094829092,"[84, 0, 170]",170,l,0.15512645061244257,colour,0.5
180,20,0,1,5,9,209,285.5522724662442,286.2161468709237,"[79, 0, 175]",175,l,0.13125331629998982,colour,0.5
180,20,0,1,5,10,210,286.71836746347253,287.36015560186934,"[36, 0, 218]",218,a,0.10861077907611616,colour,0.5
180,20,0,1,5,11,211,287.86844128003577,288.4881627210998,"[4, 0, 250]",250,a,0.08662267826730385,colour,0.5
180,20,0,1,5,12,212,289.0017528629978,289.71211085893447,"[55, 0, 199]",199,l,0.17724094743607566,colour,0.5
180,20,0,1,5,13,213,290.2188403258333,290.85596624645405,"[3, 0, 251]",251,a,0.10441949884989299,colour,0.5
180,20,0,1,5,14,214,291.3692214709008,291.9919914948696,"[6, 0, 248]",248,a,0.09047262498643249,colour,0.5
180,20,0,1,5,15,215,292.50243617157685,293.20012825669255,"[41, 0, 213]",213,a,0.16526476122089662,colour,0.5
180,20,0,1,5,16,216,293.7015413902118,294.8159638211946,"[40, 0, 214]",214,a,0.5811132219678257,colour,0.5
180,20,0,1,5,17,217,295.3185542986321,295.89597508776933,"[31, 0, 223]",223,a,0.04446157527854666,colour,0.5
180,20,0,1,5,18,218,296.40267183285323,296.9680830723373,"[18, 0, 236]",236,a,0.03323382048984058,colour,0.5
180,20,0,1,5,19,219,297.48487514056615,298.1039854535193,"[86, 0, 168]",168,l,0.08581040718127042,colour,0.5
180,20,0,1,5,20,220,298.6182479967247,299.2159697881143,"[77, 0, 177]",177,l,0.0644661563273985,colour,0.5
180,20,0,1,5,21,221,299.71924421575386,300.51215615621186,"[30, 0, 224]",224,a,0.2606536793173291,colour,0.5
180,20,0,1,5,22,222,301.01859369315207,301.7359981085465,"[15, 0, 239]",239,a,0.18448722662287764,colour,0.5
180,20,0,1,5,23,223,302.2518685121613,302.87198838952463,"[68, 0, 186]",186,l,0.08716451312648132,colour,0.5
180,20,0,1,5,24,224,303.3849930674478,304.0480141383887,"[14, 0, 240]",240,a,0.12984306999715045,colour,0.5
180,20,0,1,5,25,225,304.5518188519927,305.3599849351158,"[53, 0, 201]",201,a,0.2751680522051174,colour,0.5
180,20,0,1,5,26,226,305.8685163477494,306.52800121647306,"[74, 0, 180]",180,l,0.1265157099987846,colour,0.5
180,20,0,1,5,27,227,307.03601838322356,307.6639931014506,"[81, 0, 173]",173,l,0.09585183559102006,colour,0.5
180,20,0,1,5,28,228,308.1682074794371,308.7840921266761,"[83, 0, 171]",171,l,0.08260719766258262,colour,0.5
180,20,0,1,5,29,229,309.28549627770553,309.9439789605094,"[46, 0, 208]",208,a,0.1258465167193208,colour,0.5
180,20,0,1,5,30,230,310.45220015742234,310.9921483671351,"[25, 0, 229]",229,a,0.0073470110655762255,colour,0.5
180,20,0,1,5,31,231,311.5021750386222,312.5919694878394,"[22, 0, 232]",232,a,0.5571627743483987,colour,0.5
180,20,0,1,5,32,232,313.1020003297599,313.6639927806682,"[63, 0, 191]",191,l,0.029181768448324874,colour,0.5
180,20,0,1,5,33,233,314.16850550464005,314.77609035841306,"[94, 0, 160]",160,l,0.07462820634827949,colour,0.5
180,20,0,1,5,34,234,315.2850988038408,315.8800148595474,"[70, 0, 184]",184,l,0.061902626272058114,colour,0.5
180,20,0,1,5,35,235,316.38537193479715,316.9600068779837,"[43, 0, 211]",211,a,0.04186307778581977,colour,0.5
180,20,0,1,5,36,236,317.46877953383955,318.1120350213023,"[45, 0, 209]",209,a,0.11056638901936822,colour,0.5
180,20,0,1,5,37,237,318.6193813907739,319.18399575768854,"[78, 0, 176]",176,l,0.03255724874907173,colour,0.5
180,20,0,1,5,38,238,319.6849421240622,320.3360771541775,"[28, 0, 226]",226,a,0.11797659812145866,colour,0.5
180,20,0,1,5,39,239,320.8520556681324,321.5201168617932,"[62, 0, 192]",192,l,0.13535573429544456,colour,0.5
180,20,0,1,5,40,240,322.0355307639402,322.63202933670254,"[2, 0, 252]",252,a,0.06394196560722776,colour,0.5
180,20,0,1,5,41,241,323.1354295187921,323.7279854330118,"[67, 0, 187]",187,l,0.05990755764651112,colour,0.5
180,20,0,1,5,42,242,324.2353051758837,324.8559935146477,"[97, 0, 157]",157,l,0.08792096460820176,colour,0.5
180,20,0,1,5,43,243,325.3689410898078,326.0400049916643,"[93, 0, 161]",161,l,0.138601931364974,colour,0.5
180,20,0,1,5,44,244,326.55214607020025,327.1202542934334,"[95, 0, 159]",159,l,0.035506382992025465,colour,0.5
180,20,0,1,5,45,245,327.63632584002335,328.25599434872856,"[88, 0, 166]",166,l,0.08789818765944801,colour,0.5
180,20,0,1,5,46,246,328.768072229228,329.9201167334686,"[80, 0, 174]",174,l,0.6187170094926842,colour,0.5
180,20,0,1,5,47,247,330.43537023453973,331.0000808421173,"[24, 0, 230]",230,a,0.032018621917814016,colour,0.5
180,20,0,1,5,48,248,331.5015446623729,332.0881683030748,"[8, 0, 246]",246,a,0.053449168597580865,colour,0.5
180,20,0,1,5,49,249,332.601577833324,333.5681239425321,"[17, 0, 237]",237,a,0.4334040381072555,colour,0.5
180,20,0,1,5,50,250,334.08488393056905,335.1280632596172,"[64, 0, 190]",190,l,0.5100103105942253,colour,0.5
180,20,0,1,6,1,251,341.4349753270799,343.01597402271,"[29, 0, 225]",225,a,1.0479137273214292,colour,0.5
180,20,0,1,6,2,252,343.5181445701164,344.63999357112334,"[77, 0, 177]",177,l,0.5886523935478181,colour,0.5
180,20,0,1,6,3,253,345.15323050980805,345.76009099232033,"[90, 0, 164]",164,l,0.07540807640179992,colour,0.5
180,20,0,1,6,4,254,346.26840458027436,346.86400651099393,"[23, 0, 231]",231,a,0.06266356899868697,colour,0.5
180,20,0,1,6,5,255,347.3683520970517,347.99202774552396,"[2, 0, 252]",252,a,0.09065419901162386,colour,0.5
180,20,0,1,6,6,256,348.5020149583579,349.2400020402856,"[56, 0, 198]",198,l,0.20530343713471666,colour,0.5
180,20,0,1,6,7,257,349.7531594200409,350.39202152195503,"[75, 0, 179]",179,a,0.10735483863390982,colour,0.5
180,20,0,1,6,8,258,350.9013713008899,351.8726518083713,"[32, 0, 222]",222,a,0.43799471700913273,colour,0.5
180,20,0,1,6,9,259,352.38472102722153,352.97601233932073,"[22, 0, 232]",232,l,0.058027336199302226,colour,0.5
180,20,0,1,6,10,260,353.4849024087598,354.1999983318092,"[33, 0, 221]",221,a,0.18201769157894887,colour,0.5
180,20,0,1,6,11,261,354.7019664530526,355.4320329296752,"[70, 0, 184]",184,l,0.1973886062623933,colour,0.5
180,20,0,1,6,12,262,355.93596660575713,356.6000206596509,"[26, 0, 228]",228,a,0.13204890565248206,colour,0.5
180,20,0,1,6,13,263,357.10184538233443,357.7760646942188,"[88, 0, 166]",166,l,0.1414269151573535,colour,0.5
180,20,0,1,6,14,264,358.28489284886746,358.8241612787824,"[18, 0, 236]",236,a,0.00619340650155209,colour,0.5
180,20,0,1,6,15,265,359.3353678606218,359.992105700454,"[1, 0, 253]",253,a,0.12414177402388304,colour,0.5
180,20,0,1,6,16,266,360.5016511687136,361.12802155531244,"[86, 0, 168]",168,l,0.0933954534411896,colour,0.5
180,20,0,1,6,17,267,361.635415082681,362.3200181188877,"[28, 0, 226]",226,a,0.15207145162275992,colour,0.5
180,20,0,1,6,18,268,362.83577816656907,363.5040020069282,"[40, 0, 214]",214,a,0.13604962939280085,colour,0.5
180,20,0,1,6,19,269,364.01842623442644,364.7120130143012,"[21, 0, 233]",233,a,0.16073920516646467,colour,0.5
180,20,0,1,6,20,270,365.2186542605923,365.9440094367019,"[55, 0, 199]",199,l,0.1927340877300594,colour,0.5
180,20,0,1,6,21,271,366.452010563371,367.1680169229512,"[43, 0, 211]",211,a,0.18340836896095425,colour,0.5
180,20,0,1,6,22,272,367.686292701168,368.68801989997155,"[67, 0, 187]",187,l,0.47008519861265086,colour,0.5
180,20,0,1,6,23,273,369.2013800267014,370.08802586692036,"[64, 0, 190]",190,a,0.3534299846214708,colour,0.5
180,20,0,1,6,24,274,370.6020205403038,371.5119909431087,"[12, 0, 242]",242,a,0.37736888334620744,colour,0.5
180,20,0,1,6,25,275,372.01833961784723,373.09614986079396,"[41, 0, 213]",213,a,0.5448805429041386,colour,0.5
180,20,0,1,6,26,276,373.602686204802,374.4001567439118,"[24, 0, 230]",230,a,0.2655744636140298,colour,0.5
180,20,0,1,6,27,277,374.9186516300251,375.63204730162397,"[14, 0, 240]",240,a,0.18076175113674253,colour,0.5
180,20,0,1,6,28,278,376.13613817075384,376.832022535702,"[36, 0, 218]",218,a,0.1641156479017809,colour,0.5
180,20,0,1,6,29,279,377.33537331424304,378.04004797915695,"[19, 0, 235]",235,a,0.17214436354697682,colour,0.5
180,20,0,1,6,30,280,378.5523565164185,379.28017737792106,"[6, 0, 248]",248,a,0.1956103999109473,colour,0.5
180,20,0,1,6,31,281,379.7851706635265,380.3920122187119,"[17, 0, 237]",237,a,0.07408380508422852,colour,0.5
180,20,0,1,6,32,282,380.9015474212938,381.77612564663286,"[31, 0, 223]",223,a,0.3415657583391294,colour,0.5
180,20,0,1,6,33,283,382.28545521505293,383.02405599152553,"[99, 0, 155]",155,l,0.2061683197680395,colour,0.5
180,20,0,1,6,34,284,383.53475763075403,384.2240219223313,"[8, 0, 246]",246,a,0.15614082702086307,colour,0.5
180,20,0,1,6,35,285,384.7350953712594,385.4801577448379,"[83, 0, 171]",171,l,0.21227992171770893,colour,0.5
180,20,0,1,6,36,286,385.9846191404504,386.7040256821201,"[9, 0, 245]",245,a,0.186153473041486,colour,0.5
180,20,0,1,6,37,287,387.21834564890014,388.00017964918516,"[69, 0, 185]",185,l,0.24898065111483447,colour,0.5
180,20,0,1,6,38,288,388.5019623467815,389.1920713104482,"[84, 0, 170]",170,l,0.15753824121202342,colour,0.5
180,20,0,1,6,39,289,389.70152150047943,390.40816556982463,"[80, 0, 174]",174,l,0.1736158830462955,colour,0.5
180,20,0,1,6,40,290,390.9183497551712,391.60018234394374,"[53, 0, 201]",201,a,0.14899527971283533,colour,0.5
180,20,0,1,6,41,291,392.1013644998893,392.8001219689613,"[97, 0, 157]",157,l,0.16558043056284077,colour,0.5
180,20,0,1,6,42,292,393.3014532979287,394.3602062886057,"[50, 0, 204]",204,a,0.5256927241280209,colour,0.5
180,20,0,1,6,43,293,394.8684297311702,395.72803611974814,"[71, 0, 183]",183,l,0.326859545748448,colour,0.5
180,20,0,1,6,44,294,396.2355306997779,396.9921615200292,"[74, 0, 180]",180,l,0.22432540118461475,colour,0.5
180,20,0,1,6,45,295,397.50180034170626,398.81604658815195,"[60, 0, 194]",194,a,0.7815311630256474,colour,0.5
180,20,0,1,6,46,296,399.31824889499694,399.98403111009975,"[58, 0, 196]",196,a,0.13283390854485333,colour,0.5
180,20,0,1,6,47,297,400.5016190884926,401.19217428794946,"[0, 0, 254]",254,a,0.15768677261075936,colour,0.5
180,20,0,1,6,48,298,401.70323618801194,402.4161429571395,"[94, 0, 160]",160,l,0.18163946585264057,colour,0.5
180,20,0,1,6,49,299,402.9177982962574,404.0400826257828,"[57, 0, 197]",197,l,0.5889138472848572,colour,0.5
180,20,0,1,6,50,300,404.5526789225696,405.2560476018989,"[87, 0, 167]",167,l,0.17156788206193596,colour,0.5
180,20,0,1,7,1,301,409.783845750615,410.4640335867007,"[8, 0, 246]",246,a,0.14624183479463682,colour,0.5
180,20,0,1,7,2,302,410.9692020302755,412.736120334157,"[74, 0, 180]",180,l,1.2349943185981829,colour,0.5
180,20,0,1,7,3,303,413.25185728407814,414.59203364828136,"[55, 0, 199]",199,a,0.8075860728276893,colour,0.5
180,20,0,1,7,4,304,415.10141069540987,416.184077241458,"[97, 0, 157]",157,l,0.5496030715003144,colour,0.5
180,20,0,1,7,5,305,416.70176049807924,418.37606706816587,"[69, 0, 185]",185,l,1.1411240779270884,colour,0.5
180,20,0,1,7,6,306,418.8849333982507,419.79208170445054,"[79, 0, 175]",175,l,0.37431869641295634,colour,0.5
180,20,0,1,7,7,307,420.30104555838625,420.92002658807905,"[90, 0, 164]",164,l,0.085600602615159,colour,0.5
180,20,0,1,7,8,308,421.43442803859944,422.0641100659268,"[23, 0, 231]",231,a,0.09635709901340306,colour,0.5
180,20,0,1,7,9,309,422.56793851888506,423.38405022991356,"[49, 0, 205]",205,a,0.28296482790028676,colour,0.5
180,20,0,1,7,10,310,423.90109990225756,424.560030424851,"[6, 0, 248]",248,a,0.1256254840118345,colour,0.5
180,20,0,1,7,11,311,425.0688829604478,425.77608458398026,"[71, 0, 183]",183,l,0.17501907169935293,colour,0.5
180,20,0,1,7,12,312,426.28482804683154,427.1440684001427,"[43, 0, 211]",211,a,0.32633246781188063,colour,0.5
180,20,0,1,7,13,313,427.65126078456524,428.36005294517963,"[66, 0, 188]",188,l,0.17565297675901093,colour,0.5
180,20,0,1,7,14,314,428.86804958060384,429.4880613476271,"[16, 0, 238]",238,a,0.08656332988175564,colour,0.5
180,20,0,1,7,15,315,430.00103362454684,430.6720423484512,"[91, 0, 163]",163,l,0.13765171536942944,colour,0.5
180,20,0,1,7,16,316,431.18506884091767,431.92003813694464,"[20, 0, 234]",234,a,0.20231644823797978,colour,0.5
180,20,0,1,7,17,317,432.43507734217565,433.152078188461,"[93, 0, 161]",161,l,0.18436275538988411,colour,0.5
180,20,0,1,7,18,318,433.66820362978615,435.1520470706455,"[63, 0, 191]",191,l,0.9510032445832621,colour,0.5
180,20,0,1,7,19,319,435.66797521867556,436.48018725862494,"[75, 0, 179]",179,l,0.27914792380761355,colour,0.5
180,20,0,1,7,20,320,436.9848963135155,437.6320752114116,"[19, 0, 235]",235,a,0.11437206505797803,colour,0.5
180,20,0,1,7,21,321,438.1352261302236,439.24818345776293,"[68, 0, 186]",186,a,0.5804542943660636,colour,0.5
180,20,0,1,7,22,322,439.7517514193896,440.50406295934226,"[81, 0, 173]",173,l,0.2197026420617476,colour,0.5
180,20,0,1,7,23,323,441.01844708656427,441.67215687481803,"[25, 0, 229]",229,a,0.12063091518939473,colour,0.5
180,20,0,1,7,24,324,442.18491325186915,442.92004840262234,"[1, 0, 253]",253,a,0.20236392694641836,colour,0.5
180,20,0,1,7,25,325,443.4350455827662,444.1520358425623,"[4, 0, 250]",250,a,0.18435730173951015,colour,0.5
180,20,0,1,7,26,326,444.6691143871285,445.42405457998393,"[52, 0, 202]",202,a,0.22304475895361975,colour,0.5
180,20,0,1,7,27,327,445.93503948752186,446.68819569956395,"[5, 0, 249]",249,a,0.2205274244188331,colour,0.5
180,20,0,1,7,28,328,447.2014756257704,447.86416819528677,"[94, 0, 160]",160,l,0.1298437116201967,colour,0.5
180,20,0,1,7,29,329,448.36771145512466,449.00806464545894,"[24, 0, 230]",230,a,0.10703884848044254,colour,0.5
180,20,0,1,7,30,330,449.5183858133387,450.27205627126386,"[32, 0, 222]",222,a,0.2210435951128602,colour,0.5
180,20,0,1,7,31,331,450.78501860331744,451.69605471086106,"[67, 0, 187]",187,a,0.37840122467605397,colour,0.5
180,20,0,1,7,32,332,452.20120101911016,453.05607300941483,"[59, 0, 195]",195,l,0.3212641144928057,colour,0.5
180,20,0,1,7,33,333,453.56881013835664,454.2320596204372,"[33, 0, 221]",221,a,0.13108040395309217,colour,0.5
180,20,0,1,7,34,334,454.7347569249687,455.4400648533483,"[45, 0, 209]",209,a,0.17242506542243063,colour,0.5
180,20,0,1,7,35,335,455.9521587739582,456.58406909307814,"[35, 0, 219]",219,a,0.09977396280737594,colour,0.5
180,20,0,1,7,36,336,457.1019563798618,457.784219805937,"[83, 0, 171]",171,l,0.14990507464972325,colour,0.5
180,20,0,1,7,37,337,458.3027560754854,458.9681805962173,"[27, 0, 227]",227,a,0.13388581882463768,colour,0.5
180,20,0,1,7,38,338,459.4849989702052,460.04004797915695,"[34, 0, 220]",220,a,0.022421183733968064,colour,0.5
180,20,0,1,7,39,339,460.5516222002625,461.26412251303555,"[46, 0, 208]",208,a,0.17983463290147483,colour,0.5
180,20,0,1,7,40,340,461.76808955255547,462.4561739337805,"[18, 0, 236]",236,a,0.15522076640627347,colour,0.5
180,20,0,1,7,41,341,462.96810809490853,463.6160633340187,"[88, 0, 166]",166,l,0.11473264667438343,colour,0.5
180,20,0,1,7,42,342,464.11832980127656,464.75216236693086,"[21, 0, 233]",233,a,0.1012214221409522,colour,0.5
180,20,0,1,7,43,343,465.2679467955895,465.8640543105139,"[28, 0, 226]",226,a,0.06311525843921117,colour,0.5
180,20,0,1,7,44,344,466.3682863325812,467.1202308748907,"[53, 0, 201]",201,l,0.21929490251932293,colour,0.5
180,20,0,1,7,45,345,467.6343320546148,468.24807117698947,"[89, 0, 165]",165,l,0.08048412893549539,colour,0.5
180,20,0,1,7,46,346,468.75210526416777,469.4960666447005,"[76, 0, 178]",178,l,0.2118022472714074,colour,0.5
180,20,0,1,7,47,347,470.0016222965205,471.0801662140002,"[61, 0, 193]",193,a,0.5458785584196448,colour,0.5
180,20,0,1,7,48,348,471.58488425135147,472.18420556231285,"[13, 0, 241]",241,a,0.06662611727369949,colour,0.5
180,20,0,1,7,49,349,472.7009318661003,473.360057115613,"[92, 0, 162]",162,l,0.12580994525342248,colour,0.5
180,20,0,1,7,50,350,473.86735793115804,474.5840508073452,"[47, 0, 207]",207,a,0.18268367688870057,colour,0.5
180,20,0,1,8,1,351,480.2684591166326,481.184106755245,"[70, 0, 184]",184,l,0.3832167859072797,colour,0.5
180,20,0,1,8,2,352,481.70104254284524,482.31220754870446,"[20, 0, 234]",234,a,0.07798636332154274,colour,0.5
180,20,0,1,8,3,353,482.8181706192554,483.4880751421151,"[27, 0, 227]",227,a,0.13719264746760018,colour,0.5
180,20,0,1,8,4,354,484.0013483314542,484.62407376396004,"[63, 0, 191]",191,l,0.08986342168645933,colour,0.5
180,20,0,1,8,5,355,485.1342646861449,485.73607381785405,"[87, 0, 167]",167,l,0.06853264450910501,colour,0.5
180,20,0,1,8,6,356,486.2514973440557,486.93609011458466,"[11, 0, 243]",243,a,0.1518449652940035,colour,0.5
180,20,0,1,8,7,357,487.4516531897534,488.2962341675884,"[61, 0, 193]",193,a,0.31201699224766344,colour,0.5
180,20,0,1,8,8,358,488.8015386312909,489.5121978604875,"[31, 0, 223]",223,a,0.17800509819062427,colour,0.5
180,20,0,1,8,9,359,490.0180508958874,490.70405968715204,"[67, 0, 187]",187,l,0.15321158251026645,colour,0.5
180,20,0,1,8,10,360,491.21803350842674,491.8720961790532,"[83, 0, 171]",171,l,0.12124525132821873,colour,0.5
180,20,0,1,8,11,361,492.3849462303333,492.98408532567555,"[28, 0, 226]",226,a,0.06658152578165755,colour,0.5
180,20,0,1,8,12,362,493.5010214340582,494.1601136409445,"[18, 0, 236]",236,a,0.12593666210887022,colour,0.5
180,20,0,1,8,13,363,494.668132732535,495.8880676353583,"[66, 0, 188]",188,a,0.6872233482426964,colour,0.5
180,20,0,1,8,14,364,496.4016779877711,496.976080670167,"[79, 0, 175]",175,l,0.04191248130518943,colour,0.5
180,20,0,1,8,15,365,497.4848831606214,498.4080828028673,"[95, 0, 159]",159,l,0.3905894611380063,colour,0.5
180,20,0,1,8,16,366,498.9180328026414,499.6802558461204,"[75, 0, 179]",179,l,0.22942134347977117,colour,0.5
180,20,0,1,8,17,367,500.1857290517655,500.90408015434514,"[45, 0, 209]",209,a,0.1865916888054926,colour,0.5
180,20,0,1,8,18,368,501.418015479343,502.13618500786833,"[86, 0, 168]",168,l,0.18537360298796557,colour,0.5
180,20,0,1,8,19,369,502.65153667441336,503.4080709331902,"[64, 0, 190]",190,l,0.22392119045252912,colour,0.5
180,20,0,1,8,20,370,503.9181322513323,504.6241539644834,"[47, 0, 207]",207,l,0.17333967238664627,colour,0.5
180,20,0,1,8,21,371,505.13500413513975,506.096040467266,"[19, 0, 235]",235,a,0.4285605671466328,colour,0.5
180,20,0,1,8,22,372,506.6012679384439,507.35217115693376,"[40, 0, 214]",214,a,0.2180412076995708,colour,0.5
180,20,0,1,8,23,373,507.8687097914517,508.55208447616315,"[72, 0, 182]",182,l,0.15128869435284287,colour,0.5
180,20,0,1,8,24,374,509.06808512547286,509.80018677099724,"[92, 0, 162]",162,l,0.1993297801236622,colour,0.5
180,20,0,1,8,25,375,510.3179287344392,511.0562218616251,"[0, 0, 254]",254,a,0.20544041966786608,colour,0.5
180,20,0,1,8,26,376,511.5679654662672,512.2642075256153,"[41, 0, 213]",213,a,0.16339769266778603,colour,0.5
180,20,0,1,8,27,377,512.7681572418078,513.4160858543473,"[23, 0, 231]",231,a,0.11530816575395875,colour,0.5
180,20,0,1,8,28,378,513.9190712392447,514.6641313672008,"[49, 0, 205]",205,a,0.2133584585681092,colour,0.5
180,20,0,1,8,29,379,515.167973614647,516.0242455855769,"[73, 0, 181]",181,l,0.32346738371415995,colour,0.5
180,20,0,1,8,30,380,516.5344871945272,517.3200986402226,"[51, 0, 203]",203,a,0.2526666679477785,colour,0.5
180,20,0,1,8,31,381,517.8344975243672,518.6880952884967,"[44, 0, 210]",210,a,0.3206651768705342,colour,0.5
180,20,0,1,8,32,382,519.2008927282295,520.1841019432177,"[97, 0, 157]",157,l,0.4500206275843084,colour,0.5
180,20,0,1,8,33,383,520.7011442371295,521.4081822515291,"[85, 0, 169]",169,l,0.1740980486792978,colour,0.5
180,20,0,1,8,34,384,521.9181348177372,522.5841233086248,"[39, 0, 215]",215,a,0.1333808762137778,colour,0.5
180,20,0,1,8,35,385,523.1014475876582,524.1761832627235,"[81, 0, 173]",173,l,0.5420889225206338,colour,0.5
180,20,0,1,8,36,386,524.6845622943074,525.5442068583507,"[77, 0, 177]",177,l,0.32680212217383087,colour,0.5
180,20,0,1,8,37,387,526.0516728869989,526.6880898348463,"[52, 0, 202]",202,a,0.10402972422889434,colour,0.5
180,20,0,1,8,38,388,527.2014422623324,528.0880768744391,"[62, 0, 192]",192,a,0.3540122405102011,colour,0.5
180,20,0,1,8,39,389,528.6008695021446,529.2480856131006,"[29, 0, 225]",225,a,0.11406473658280447,colour,0.5
180,20,0,1,8,40,390,529.7510039503395,530.3841012374614,"[9, 0, 245]",245,a,0.10005562711739913,colour,0.5
180,20,0,1,8,41,391,530.9012298271409,531.5601969211712,"[34, 0, 220]",220,a,0.1261471082980279,colour,0.5
180,20,0,1,8,42,392,532.0679038722592,532.8320899041428,"[54, 0, 200]",200,a,0.2313756702351384,colour,0.5
180,20,0,1,8,43,393,533.3342203513021,533.9360878689913,"[33, 0, 221]",221,a,0.06871550175128505,colour,0.5
180,20,0,1,8,44,394,534.4511690993095,535.0880983682,"[6, 0, 248]",248,a,0.10405891723348759,colour,0.5
180,20,0,1,8,45,395,535.6011158782057,536.2241046892887,"[30, 0, 224]",224,a,0.09006616866099648,colour,0.5
180,20,0,1,8,46,396,536.7347132958821,537.288132629852,"[35, 0, 219]",219,a,0.020768410991877317,colour,0.5
180,20,0,1,8,47,397,537.8008408866008,538.3921536924609,"[82, 0, 172]",172,l,0.05812486005015671,colour,0.5
180,20,0,1,8,48,398,538.9008605838462,539.5921000543167,"[46, 0, 208]",208,a,0.15807526401476935,colour,0.5
180,20,0,1,8,49,399,540.1011091413675,540.872116389568,"[37, 0, 217]",217,a,0.23809487145626917,colour,0.5
180,20,0,1,8,50,400,541.3838221395563,542.1520977573819,"[50, 0, 204]",204,a,0.23474409291520715,colour,0.5
180,20,0,1,9,1,401,546.6673159702332,547.6162009581458,"[55, 0, 199]",199,a,0.4155369618383702,colour,0.5
180,20,0,1,9,2,402,548.1185235657904,548.8002050567302,"[28, 0, 226]",226,a,0.14954417222179472,colour,0.5
180,20,0,1,9,3,403,549.3172184784489,549.9440960532811,"[99, 0, 155]",155,l,0.09340603993041441,colour,0.5
180,20,0,1,9,4,404,550.4514427435352,551.088222839433,"[81, 0, 173]",173,l,0.10423760404228233,colour,0.5
180,20,0,1,9,5,405,551.6012772417162,552.232177354832,"[53, 0, 201]",201,a,0.09819625777890906,colour,0.5
180,20,0,1,9,6,406,552.734717787127,553.3440984913905,"[46, 0, 208]",208,a,0.07678495926666074,colour,0.5
180,20,0,1,9,7,407,553.8512113168545,554.4801137949398,"[54, 0, 200]",200,a,0.09614184076781385,colour,0.5
180,20,0,1,9,8,408,554.9840625486977,555.6881094037963,"[41, 0, 213]",213,a,0.17081592179602012,colour,0.5
180,20,0,1,9,9,409,556.2010374100064,556.8082116370206,"[83, 0, 171]",171,l,0.07422335402225144,colour,0.5
180,20,0,1,9,10,410,557.3179255264113,557.8960989174084,"[43, 0, 211]",211,a,0.04545734517159872,colour,0.5
180,20,0,1,9,11,411,558.4017055767472,559.0481017173734,"[56, 0, 198]",198,a,0.11414397472981364,colour,0.5
180,20,0,1,9,12,412,559.5507695081178,560.1842575322662,"[93, 0, 161]",161,l,0.10030585277127102,colour,0.5
180,20,0,1,9,13,413,560.7008734801202,561.2881217225804,"[4, 0, 250]",250,a,0.05416904861340299,colour,0.5
180,20,0,1,9,14,414,561.8011828617018,562.4160990072414,"[26, 0, 228]",228,a,0.08215390419354662,colour,0.5
180,20,0,1,9,15,415,562.9172631982656,563.5761744727206,"[34, 0, 220]",220,a,0.12556292756926268,colour,0.5
180,20,0,1,9,16,416,564.0840947572433,564.7120938564185,"[27, 0, 227]",227,a,0.0948304015037138,colour,0.5
180,20,0,1,9,17,417,565.217932776548,565.8482086086588,"[31, 0, 223]",223,a,0.09759988656151108,colour,0.5
180,20,0,1,9,18,418,566.3510207603686,567.0321318650676,"[8, 0, 246]",246,a,0.148165364516899,colour,0.5
180,20,0,1,9,19,419,567.5345536005625,568.4561046405288,"[97, 0, 157]",157,l,0.3888138211914338,colour,0.5
180,20,0,1,9,20,420,568.9693980404118,569.5921026207507,"[15, 0, 239]",239,a,0.09149694629013538,colour,0.5
180,20,0,1,9,21,421,570.1012669760385,571.016099135566,"[66, 0, 188]",188,l,0.3821504395455122,colour,0.5
180,20,0,1,9,22,422,571.517611076124,572.4000358015182,"[25, 0, 229]",229,a,0.34945781229180284,colour,0.5
180,20,0,1,9,23,423,572.9183279406279,573.5841409527638,"[11, 0, 243]",243,a,0.13356212942744605,colour,0.5
180,20,0,1,9,24,424,574.1013099635311,574.8721025950799,"[45, 0, 209]",209,a,0.23818020484759472,colour,0.5
180,20,0,1,9,25,425,575.3846135585045,576.0961181013845,"[98, 0, 156]",156,l,0.1788828129065223,colour,0.5
180,20,0,1,9,26,426,576.6010289408441,577.248118014104,"[84, 0, 170]",170,l,0.11422770406352356,colour,0.5
180,20,0,1,9,27,427,577.7511402912496,578.3842231422605,"[13, 0, 241]",241,a,0.10032927131396718,colour,0.5
180,20,0,1,9,28,428,578.9015127746388,579.6482045023877,"[69, 0, 185]",185,l,0.2143163738073781,colour,0.5
180,20,0,1,9,29,429,580.151518067898,580.7681405601033,"[22, 0, 232]",232,a,0.08425676234764978,colour,0.5
180,20,0,1,9,30,430,581.284641019156,581.9043111318897,"[49, 0, 205]",205,a,0.08706795168109238,colour,0.5
180,20,0,1,9,31,431,582.417592982878,583.0641119907377,"[39, 0, 215]",215,a,0.11353669624077156,colour,0.5
180,20,0,1,9,32,432,583.5677027293132,584.2162620388845,"[17, 0, 237]",237,a,0.1157239253516309,colour,0.5
180,20,0,1,9,33,433,584.7175689868745,585.3921838478418,"[32, 0, 222]",222,a,0.14164891024120152,colour,0.5
180,20,0,1,9,34,434,585.9012837219052,586.5281224796781,"[20, 0, 234]",234,a,0.09425841126358137,colour,0.5
180,20,0,1,9,35,435,587.0341577306972,587.7202415896754,"[65, 0, 189]",189,l,0.15305503105628304,colour,0.5
180,20,0,1,9,36,436,588.2341990500281,588.896327970142,"[95, 0, 159]",159,a,0.1291382676572539,colour,0.5
180,20,0,1,9,37,437,589.4010594811989,590.7441506538016,"[86, 0, 168]",168,l,0.8102763197093736,colour,0.5
180,20,0,1,9,38,438,591.251878136216,592.1922791902616,"[50, 0, 204]",204,a,0.4084433845127933,colour,0.5
180,20,0,1,9,39,439,592.7013084878272,593.3441196643107,"[74, 0, 180]",180,l,0.1102532861114014,colour,0.5
180,20,0,1,9,40,440,593.8511664045509,594.488346861559,"[0, 0, 254]",254,a,0.10450739867519587,colour,0.5
180,20,0,1,9,41,441,595.001043569413,595.680191364896,"[73, 0, 181]",181,l,0.14635347394505516,colour,0.5
180,20,0,1,9,42,442,596.1840692214028,596.8241067424242,"[70, 0, 184]",184,l,0.10694164547021501,colour,0.5
180,20,0,1,9,43,443,597.3340471181145,597.96815621524,"[5, 0, 249]",249,a,0.1009975022461731,colour,0.5
180,20,0,1,9,44,444,598.4838642929681,599.1201349550392,"[2, 0, 252]",252,a,0.10298487159889191,colour,0.5
180,20,0,1,9,45,445,599.6348889671499,600.2722500357486,"[77, 0, 177]",177,l,0.10509799543069676,colour,0.5
180,20,0,1,9,46,446,600.7843089889211,601.4162369521509,"[6, 0, 248]",248,a,0.09907429327722639,colour,0.5
180,20,0,1,9,47,447,601.9178496246168,602.5441196001775,"[94, 0, 160]",160,l,0.09364952877513133,colour,0.5
180,20,0,1,9,48,448,603.0504695581039,603.6801137307775,"[91, 0, 163]",163,l,0.09630448746611364,colour,0.5
180,20,0,1,9,49,449,604.1845375925477,605.1683245722088,"[71, 0, 183]",183,l,0.45117551533621736,colour,0.5
180,20,0,1,9,50,450,605.684544329386,606.2882895021176,"[90, 0, 164]",164,l,0.07113370840670541,colour,0.5
180,20,0,1,10,1,451,610.6673291230982,611.360336855083,"[55, 0, 199]",199,a,0.15986341526149772,colour,0.5
180,20,0,1,10,2,452,611.8678927083383,612.4161163305398,"[98, 0, 156]",156,l,0.01567407269612886,colour,0.5
180,20,0,1,10,3,453,612.9170652633475,613.5202971526014,"[56, 0, 198]",198,a,0.06984472533804365,colour,0.5
180,20,0,1,10,4,454,614.0341035151505,614.6161412889487,"[20, 0, 234]",234,a,0.04903653485234827,colour,0.5
180,20,0,1,10,5,455,615.1186775508395,615.8963157796534,"[67, 0, 187]",187,a,0.245876248634886,colour,0.5
180,20,0,1,10,6,456,616.4010286841949,616.9921461215126,"[11, 0, 243]",243,a,0.0583766897325404,colour,0.5
180,20,0,1,10,7,457,617.5010846320947,618.1362793237204,"[42, 0, 212]",212,a,0.10251842529396527,colour,0.5
180,20,0,1,10,8,458,618.6512617469707,619.2562561233062,"[89, 0, 165]",165,l,0.07250289202784188,colour,0.5
180,20,0,1,10,9,459,619.7676269558433,620.3842789618357,"[81, 0, 173]",173,l,0.0838493435876444,colour,0.5
180,20,0,1,10,10,460,620.9009507292649,621.4802462862281,"[14, 0, 240]",240,a,0.04649898980278522,colour,0.5
180,20,0,1,10,11,461,621.9851106093556,622.9762632065977,"[68, 0, 186]",186,a,0.4591888324939646,colour,0.5
180,20,0,1,10,12,462,623.4847657470382,624.0481257775391,"[60, 0, 194]",194,a,0.0310539698402863,colour,0.5
180,20,0,1,10,13,463,624.5510235834226,625.1521468401188,"[29, 0, 225]",225,a,0.068419722141698,colour,0.5
180,20,0,1,10,14,464,625.6672976845002,626.2081460650661,"[19, 0, 235]",235,a,0.007757637824397534,colour,0.5
180,20,0,1,10,15,465,626.717662981915,627.3761459855014,"[47, 0, 207]",207,a,0.12574899283936247,colour,0.5
180,20,0,1,10,16,466,627.8837624703592,628.6481268682692,"[61, 0, 193]",193,a,0.23108181546558626,colour,0.5
180,20,0,1,10,17,467,629.1504626287788,629.8402912113525,"[54, 0, 200]",200,a,0.1565713435120415,colour,0.5
180,20,0,1,10,18,468,630.3510056826635,631.040169242362,"[17, 0, 237]",237,a,0.1564289073285181,colour,0.5
180,20,0,1,10,19,469,631.5510540596442,632.4802758000151,"[83, 0, 171]",171,l,0.39651531862909906,colour,0.5
180,20,0,1,10,20,470,632.9843875212828,634.8482496713114,"[33, 0, 221]",221,a,1.3312073773995508,colour,0.5
180,20,0,1,10,21,471,635.3508414319658,635.9522104231,"[2, 0, 252]",252,a,0.06851852920954116,colour,0.5
180,20,0,1,10,22,472,636.4681173981808,637.1761919243727,"[97, 0, 157]",157,l,0.1758278139459435,colour,0.5
180,20,0,1,10,23,473,637.6846081690164,638.3121472379135,"[1, 0, 253]",253,a,0.09512233149143867,colour,0.5
180,20,0,1,10,24,474,638.8180920227314,639.464255260973,"[40, 0, 214]",214,a,0.11389759866870008,colour,0.5
180,20,0,1,10,25,475,639.9679739996209,640.6401655210648,"[94, 0, 160]",160,l,0.1398001274210401,colour,0.5
180,20,0,1,10,26,476,641.1517708599858,641.8801637117576,"[57, 0, 197]",197,a,0.19648394419346005,colour,0.5
180,20,0,1,10,27,477,642.384688626189,645.0321450179617,"[65, 0, 189]",189,l,2.115134611784015,colour,0.5
180,20,0,1,10,28,478,645.534401861165,646.1202597470838,"[41, 0, 213]",213,a,0.053246421623043716,colour,0.5
180,20,0,1,10,29,479,646.6340154228674,647.3281571904663,"[12, 0, 242]",242,a,0.16116009760298766,colour,0.5
180,20,0,1,10,30,480,647.8349123215594,648.47218164074,"[72, 0, 182]",182,l,0.1051919904712122,colour,0.5
180,20,0,1,10,31,481,648.9840872504865,649.744185621239,"[73, 0, 181]",181,l,0.22674072062363848,colour,0.5
180,20,0,1,10,32,482,650.251207980531,650.9681818794052,"[70, 0, 184]",184,l,0.18453117652097717,colour,0.5
180,20,0,1,10,33,483,651.4851333863044,652.1763231324439,"[92, 0, 162]",162,l,0.15934467816259712,colour,0.5
180,20,0,1,10,34,484,652.6838449806964,653.3921488804044,"[82, 0, 172]",172,l,0.17514161809231155,colour,0.5
180,20,0,1,10,35,485,653.9009497668594,654.5521637143102,"[8, 0, 246]",246,a,0.11849084397545084,colour,0.5
180,20,0,1,10,36,486,655.0676382480597,655.6961618587957,"[22, 0, 232]",232,a,0.09583419148111716,colour,0.5
180,20,0,1,10,37,487,656.200486913498,656.8802493659314,"[23, 0, 231]",231,a,0.14662070214399137,colour,0.5
180,20,0,1,10,38,488,657.3838208563684,658.1202478774067,"[79, 0, 175]",175,l,0.20328976199380122,colour,0.5
180,20,0,1,10,39,489,658.6342233026808,659.3281751553877,"[93, 0, 161]",161,l,0.16122104998794384,colour,0.5
180,20,0,1,10,40,490,659.8340143962996,660.4641400930122,"[6, 0, 248]",248,a,0.09672056784620509,colour,0.5
180,20,0,1,10,41,491,660.9676554430625,661.9442455470853,"[71, 0, 183]",183,a,0.4439632412104402,colour,0.5
180,20,0,1,10,42,492,662.450869470078,663.0642377451877,"[31, 0, 223]",223,a,0.08063875560765155,colour,0.5
180,20,0,1,10,43,493,663.5670778067142,664.1921450949449,"[13, 0, 241]",241,a,0.09188447528867982,colour,0.5
180,20,0,1,10,44,494,664.7003156051505,665.3521740441502,"[39, 0, 215]",215,a,0.1185742525558453,colour,0.5
180,20,0,1,10,45,495,665.8683745531889,666.5841788074176,"[44, 0, 210]",210,a,0.1839287100592628,colour,0.5
180,20,0,1,10,46,496,667.1003311961249,667.928108236054,"[7, 0, 247]",247,a,0.2945143472170457,colour,0.5
180,20,0,1,10,47,497,668.4340539832774,669.1441877385369,"[43, 0, 211]",211,a,0.17726500760181807,colour,0.5
180,20,0,1,10,48,498,669.6504831601051,670.2801719242707,"[48, 0, 206]",206,a,0.09658743493491784,colour,0.5
180,20,0,1,10,49,499,670.7841550039011,671.4402627882955,"[80, 0, 174]",174,l,0.1229573724558577,colour,0.5
180,20,0,1,10,50,500,671.9509621819016,672.6241879695153,"[74, 0, 180]",180,l,0.1406213809386827,colour,0.5
180,20,0,1,11,1,501,677.4670638838725,678.2002552943304,"[13, 0, 241]",241,a,0.20002977043623105,colour,0.5
180,20,0,1,11,2,502,678.7169661996304,679.3201714623137,"[85, 0, 169]",169,l,0.06994674040470272,colour,0.5
180,20,0,1,11,3,503,679.8337109174754,680.4802411533892,"[92, 0, 162]",162,l,0.11335672624409199,colour,0.5
180,20,0,1,11,4,504,680.9837638819008,681.560278725723,"[2, 0, 252]",252,a,0.04339811610407196,colour,0.5
180,20,0,1,11,5,505,682.0669491650478,682.7202508929477,"[0, 0, 254]",254,a,0.12005154648795724,colour,0.5
180,20,0,1,11,6,506,683.2350722734991,684.0002608121431,"[47, 0, 207]",207,a,0.23335758596658707,colour,0.5
180,20,0,1,11,7,507,684.5184191767767,685.120189812209,"[36, 0, 218]",218,a,0.06951782794203609,colour,0.5
180,20,0,1,11,8,508,685.6348918543663,686.3282219925022,"[34, 0, 220]",220,a,0.1613541828992311,colour,0.5
180,20,0,1,11,9,509,686.834034927655,687.5123008379887,"[52, 0, 202]",202,a,0.1454427166027017,colour,0.5
180,20,0,1,11,10,510,688.0170015520416,688.6322115523217,"[70, 0, 184]",184,l,0.08201948809437454,colour,0.5
180,20,0,1,11,11,511,689.1340953026083,689.8322057137266,"[67, 0, 187]",187,l,0.1653533026110381,colour,0.5
180,20,0,1,11,12,512,690.3341170529893,690.9761881389131,"[22, 0, 232]",232,a,0.1093383583938703,colour,0.5
180,20,0,1,11,13,513,691.4839663080638,692.1602320169332,"[96, 0, 158]",158,l,0.1433889411855489,colour,0.5
180,20,0,1,11,14,514,692.6677962110552,693.2562811458774,"[18, 0, 236]",236,a,0.05610861847526394,colour,0.5
180,20,0,1,11,15,515,693.7678649910376,694.3921710157592,"[99, 0, 155]",155,l,0.09200220968341455,colour,0.5
180,20,0,1,11,16,516,694.9017328449409,695.5041819769249,"[60, 0, 194]",194,a,0.07017450995044783,colour,0.5
180,20,0,1,11,17,517,696.0177811012836,696.7281846511469,"[31, 0, 223]",223,a,0.17802883754484355,colour,0.5
180,20,0,1,11,18,518,697.2335048341483,697.960185885604,"[14, 0, 240]",240,a,0.19336446397937834,colour,0.5
180,20,0,1,11,19,519,698.4671508212632,699.2161760638992,"[49, 0, 205]",205,l,0.21602207887917757,colour,0.5
180,20,0,1,11,20,520,699.7338086338132,700.376173895289,"[24, 0, 230]",230,a,0.10935888972016983,colour,0.5
180,20,0,1,11,21,521,700.8839632925228,701.5842169828538,"[6, 0, 248]",248,a,0.16739873719052412,colour,0.5
180,20,0,1,11,22,522,702.1007886600273,702.7441715059394,"[64, 0, 190]",190,l,0.11070369236404076,colour,0.5
180,20,0,1,11,23,523,703.2506860354042,703.9121884289198,"[21, 0, 233]",233,a,0.12871609203284606,colour,0.5
180,20,0,1,11,24,524,704.4172814839985,705.1121912519739,"[40, 0, 214]",214,a,0.1620554564287886,colour,0.5
180,20,0,1,11,25,525,705.6166927478625,706.2961876512854,"[63, 0, 191]",191,l,0.1456226866284851,colour,0.5
180,20,0,1,11,26,526,706.8007616484829,707.7921721706516,"[9, 0, 245]",245,a,0.45871981972595677,colour,0.5
180,20,0,1,11,27,527,708.3009236535581,708.9681834834337,"[39, 0, 215]",215,a,0.1347285661031492,colour,0.5
180,20,0,1,11,28,528,709.4840930249193,710.1522735569743,"[74, 0, 180]",180,l,0.13549784966744483,colour,0.5
180,20,0,1,11,29,529,710.667633564357,711.2322495353001,"[59, 0, 195]",195,a,0.032137318718014285,colour,0.5
180,20,0,1,11,30,530,711.7340578970907,712.4002555509796,"[81, 0, 173]",173,l,0.13348032487556338,colour,0.5
180,20,0,1,11,31,531,712.9168721404276,713.544365013804,"[42, 0, 212]",212,a,0.09425744885811582,colour,0.5
180,20,0,1,11,32,532,714.0515593230375,714.6961984302325,"[72, 0, 182]",182,l,0.11277222467469983,colour,0.5
180,20,0,1,11,33,533,715.2003903520526,715.7921843611402,"[17, 0, 237]",237,a,0.058757481921929866,colour,0.5
180,20,0,1,11,34,534,716.3039407978649,716.9921708232723,"[86, 0, 168]",168,l,0.1583046375599224,colour,0.5
180,20,0,1,11,35,535,717.5010798200674,718.1603061222413,"[15, 0, 239]",239,a,0.12689553975360468,colour,0.5
180,20,0,1,11,36,536,718.6667179949873,719.4003636613197,"[53, 0, 201]",201,a,0.2002867329865694,colour,0.5
180,20,0,1,11,37,537,719.9168185664748,720.5922014278185,"[38, 0, 216]",216,a,0.14212369747110642,colour,0.5
180,20,0,1,11,38,538,721.1005660233204,721.7921840403287,"[62, 0, 192]",192,l,0.1587794247607235,colour,0.5
180,20,0,1,11,39,539,722.3008335081686,722.9602737853711,"[25, 0, 229]",229,a,0.12687757483217865,colour,0.5
180,20,0,1,11,40,540,723.4674068214081,724.1201702432882,"[43, 0, 211]",211,a,0.12011153649655171,colour,0.5
180,20,0,1,11,41,541,724.6340475030884,725.3042814897781,"[73, 0, 181]",181,l,0.1375532291131094,colour,0.5
180,20,0,1,11,42,542,725.8171892854443,726.4882053877809,"[68, 0, 186]",186,l,0.13812778575811535,colour,0.5
180,20,0,1,11,43,543,727.0006047120551,727.7361867401924,"[30, 0, 224]",224,a,0.2023324883193709,colour,0.5
180,20,0,1,11,44,544,728.2505330127606,728.9361914880865,"[76, 0, 178]",178,l,0.15281667505041696,colour,0.5
180,20,0,1,11,45,545,729.450872678106,730.0162954664847,"[79, 0, 175]",175,l,0.032915263960603625,colour,0.5
180,20,0,1,11,46,546,730.533370803023,731.2003197755839,"[78, 0, 176]",176,l,0.13360511692008004,colour,0.5
180,20,0,1,11,47,547,731.7182532578881,732.4002164131089,"[58, 0, 196]",196,a,0.15018417249666527,colour,0.5
180,20,0,1,11,48,548,732.9171024763782,733.5442912293074,"[80, 0, 174]",174,l,0.09425359923625365,colour,0.5
180,20,0,1,11,49,549,734.0502462798031,734.7201838452893,"[51, 0, 203]",203,a,0.13681827136315405,colour,0.5
180,20,0,1,11,50,550,735.2340954309329,735.9361764103814,"[19, 0, 235]",235,a,0.16949004647904076,colour,0.5
180,20,0,1,12,1,551,741.9499997754174,743.4963248904387,"[53, 0, 201]",201,a,1.012629660195671,colour,0.5
180,20,0,1,12,2,552,744.0008915091748,744.560326525243,"[88, 0, 166]",166,l,0.02697368714143522,colour,0.5
180,20,0,1,12,3,553,745.0670887139859,745.6402123581793,"[40, 0, 214]",214,a,0.04021960831596516,colour,0.5
180,20,0,1,12,4,554,746.150426057342,746.7282176937733,"[93, 0, 161]",161,l,0.04489080858184025,colour,0.5
180,20,0,1,12,5,555,747.2340835612558,749.3362192695495,"[87, 0, 167]",167,l,1.5695550410018768,colour,0.5
180,20,0,1,12,6,556,749.8503425845993,750.4082069533179,"[76, 0, 178]",178,l,0.024895851587643847,colour,0.5
180,20,0,1,12,7,557,750.9172802007815,751.5283168857859,"[85, 0, 169]",169,l,0.07834084972273558,colour,0.5
180,20,0,1,12,8,558,752.0339825727278,752.672187030199,"[55, 0, 199]",199,a,0.10554679765482433,colour,0.5
180,20,0,1,12,9,559,753.1839813216066,753.84821406228,"[99, 0, 155]",155,l,0.13157540166866966,colour,0.5
180,20,0,1,12,10,560,754.3506377225858,755.0163387747598,"[62, 0, 192]",192,a,0.13303729708422907,colour,0.5
180,20,0,1,12,11,561,755.5337252893951,756.3042429935012,"[17, 0, 237]",237,a,0.23760789376683533,colour,0.5
180,20,0,1,12,12,562,756.8176785087562,757.4402079311258,"[83, 0, 171]",171,l,0.09025447952444665,colour,0.5
180,20,0,1,12,13,563,757.950621169206,758.5601943547663,"[79, 0, 175]",175,l,0.0769081472826656,colour,0.5
180,20,0,1,12,14,564,759.0667066386086,759.6481900662766,"[75, 0, 179]",179,l,0.04824222871684469,colour,0.5
180,20,0,1,12,15,565,760.1504969546222,760.7522794597317,"[57, 0, 197]",197,a,0.06900294046499766,colour,0.5
180,20,0,1,12,16,566,761.2666417724104,761.8242953740701,"[1, 0, 253]",253,a,0.024354016728466377,colour,0.5
180,20,0,1,12,17,567,762.3342261257349,762.9203002323047,"[32, 0, 222]",222,a,0.05369586544111371,colour,0.5
180,20,0,1,12,18,568,763.4334252110566,764.0162194363656,"[82, 0, 172]",172,l,0.049622961232671514,colour,0.5
180,20,0,1,12,19,569,764.5340672644961,765.1042000701709,"[42, 0, 212]",212,a,0.037602825119392946,colour,0.5
180,20,0,1,12,20,570,765.6182707737025,766.5121401161014,"[12, 0, 242]",242,a,0.36221707655931823,colour,0.5
180,20,0,1,12,21,571,767.0172787251067,767.744296939607,"[67, 0, 187]",187,a,0.1943727451725863,colour,0.5
180,20,0,1,12,22,572,768.2499982355803,768.9043380792718,"[43, 0, 211]",211,a,0.12108517106389627,colour,0.5
180,20,0,1,12,23,573,769.417014576582,770.0722773681046,"[95, 0, 159]",159,l,0.122375758131966,colour,0.5
180,20,0,1,12,24,574,770.5842076796107,771.2321953197534,"[38, 0, 216]",216,a,0.11558598044211976,colour,0.5
180,20,0,1,12,25,575,771.7344261779508,772.336298186885,"[28, 0, 226]",226,a,0.06971223404980265,colour,0.5
180,20,0,1,12,26,576,772.8506127000437,773.4722814102133,"[13, 0, 241]",241,a,0.08903222330263816,colour,0.5
180,20,0,1,12,27,577,773.9837561826571,774.5922851571813,"[33, 0, 221]",221,a,0.07569198630517349,colour,0.5
180,20,0,1,12,28,578,775.1007280283957,776.0562285984633,"[48, 0, 206]",206,a,0.42300234889262356,colour,0.5
180,20,0,1,12,29,579,776.5665395006654,777.1521846947726,"[0, 0, 254]",254,a,0.052295884815976024,colour,0.5
180,20,0,1,12,30,580,777.6672168423538,778.3202898383315,"[84, 0, 170]",170,l,0.12040571207762696,colour,0.5
180,20,0,1,12,31,581,778.8338280102471,779.7362435222021,"[50, 0, 204]",204,l,0.3696956165076699,colour,0.5
180,20,0,1,12,32,582,780.2500097844459,780.9443276724487,"[7, 0, 247]",247,a,0.16111550611094572,colour,0.5
180,20,0,1,12,33,583,781.4505143420829,782.3282075564202,"[61, 0, 193]",193,l,0.3449893590004649,colour,0.5
180,20,0,1,12,34,584,782.8339316293423,783.4722271946375,"[22, 0, 232]",232,a,0.10569115862017497,colour,0.5
180,20,0,1,12,35,585,783.983741746546,784.576208798564,"[98, 0, 156]",156,l,0.059679467318346724,colour,0.5
180,20,0,1,12,36,586,785.0833684611425,785.8083460531197,"[90, 0, 164]",164,l,0.19182365119922906,colour,0.5
180,20,0,1,12,37,587,786.3170754006715,787.0002146166225,"[30, 0, 224]",224,a,0.150353876844747,colour,0.5
180,20,0,1,12,38,588,787.5169823039032,788.2083298846846,"[23, 0, 231]",231,a,0.15848717399057932,colour,0.5
180,20,0,1,12,39,589,788.7168622597237,789.3202513420547,"[78, 0, 176]",176,l,0.0704038834956009,colour,0.5
180,20,0,1,12,40,590,789.8339191180712,790.592246981716,"[56, 0, 198]",198,l,0.22573660986381583,colour,0.5
180,20,0,1,12,41,591,791.0998098926211,791.8242308928457,"[86, 0, 168]",168,l,0.19106848290539347,colour,0.5
180,20,0,1,12,42,592,792.3340583461977,792.9762067454285,"[2, 0, 252]",252,a,0.10971080968738534,colour,0.5
180,20,0,1,12,43,593,793.4841972856084,794.0963692894729,"[46, 0, 208]",208,a,0.07987107604276389,colour,0.5
180,20,0,1,12,44,594,794.6004540633585,795.26437305953,"[72, 0, 182]",182,l,0.13121225361828692,colour,0.5
180,20,0,1,12,45,595,795.7670857626072,796.3522295429138,"[35, 0, 219]",219,a,0.05240912796580233,colour,0.5
180,20,0,1,12,46,596,796.8671587129938,797.5762347835407,"[25, 0, 229]",229,a,0.176416165108094,colour,0.5
180,20,0,1,12,47,597,798.0837457244925,798.9202206733753,"[29, 0, 225]",225,a,0.30373708851402625,colour,0.5
180,20,0,1,12,48,598,799.4334977123362,800.1202706543554,"[19, 0, 235]",235,a,0.1537967256444972,colour,0.5
180,20,0,1,12,49,599,800.633744024235,801.2322338160011,"[6, 0, 248]",248,a,0.06576187626342289,colour,0.5
180,20,0,1,12,50,600,801.7373669713561,802.7282468867488,"[31, 0, 223]",223,a,0.46176134498091415,colour,0.5
180,20,0,1,13,1,601,807.8673787832959,808.5522208171024,"[81, 0, 173]",173,l,0.1524374868895393,colour,0.5
180,20,0,1,13,2,602,809.0666257964622,809.7762308697565,"[38, 0, 216]",216,a,0.1764530573564116,colour,0.5
180,20,0,1,13,3,603,810.2838534498587,810.8962602808897,"[17, 0, 237]",237,a,0.07982295571127906,colour,0.5
180,20,0,1,13,4,604,811.4000146285689,812.0082853573549,"[79, 0, 175]",175,l,0.07518383566639386,colour,0.5
180,20,0,1,13,5,605,812.5169194266782,813.1202530102455,"[62, 0, 192]",192,l,0.0704815176432021,colour,0.5
180,20,0,1,13,6,606,813.6336038337031,814.2483117786178,"[94, 0, 160]",160,l,0.08187993915635161,colour,0.5
180,20,0,1,13,7,607,814.7508550981293,815.3602479928813,"[96, 0, 158]",158,l,0.07714489926001988,colour,0.5
180,20,0,1,13,8,608,815.866904637689,816.5123621111852,"[16, 0, 238]",238,a,0.11261471081525087,colour,0.5
180,20,0,1,13,9,609,817.0167481183307,817.6883102259308,"[67, 0, 187]",187,l,0.13855830224929377,colour,0.5
180,20,0,1,13,10,610,818.2000227127864,818.7843949639064,"[84, 0, 170]",170,l,0.05131262619397603,colour,0.5
180,20,0,1,13,11,611,819.3007064705016,819.8562985975004,"[24, 0, 230]",230,a,0.023225113924127072,colour,0.5
180,20,0,1,13,12,612,820.3669684773195,820.9203579766909,"[86, 0, 168]",168,l,0.02060480188811198,colour,0.5
180,20,0,1,13,13,613,821.4330736119009,822.1124023397861,"[1, 0, 253]",253,a,0.14600123316631652,colour,0.5
180,20,0,1,13,14,614,822.6174447081285,823.2962181274779,"[45, 0, 209]",209,a,0.1464830779877957,colour,0.5
180,20,0,1,13,15,615,823.8003205455025,824.4483235841326,"[72, 0, 182]",182,l,0.11523630606825463,colour,0.5
180,20,0,1,13,16,616,824.9501887279039,825.5043536060839,"[95, 0, 159]",159,a,0.02129452652297914,colour,0.5
180,20,0,1,13,17,617,826.0164699828601,827.0402401396423,"[37, 0, 217]",217,a,0.49051805055933073,colour,0.5
180,20,0,1,13,18,618,827.5503800543083,828.1443609716953,"[2, 0, 252]",252,a,0.061309463082579896,colour,0.5
180,20,0,1,13,19,619,828.6500478315866,829.312299618934,"[73, 0, 181]",181,l,0.12925471883499995,colour,0.5
180,20,0,1,13,20,620,829.8169980873645,830.5443980564305,"[34, 0, 220]",220,a,0.1946451061812695,colour,0.5
180,20,0,1,13,21,621,831.0504207961785,831.7122625983611,"[87, 0, 167]",167,l,0.12922873385832645,colour,0.5
180,20,0,1,13,22,622,832.2174570269417,832.8482419720676,"[91, 0, 163]",163,l,0.09855042336857878,colour,0.5
180,20,0,1,13,23,623,833.3505138929759,834.3763314091484,"[56, 0, 198]",198,l,0.4932955556723755,colour,0.5
180,20,0,1,13,24,624,834.8833008360525,835.5282844847825,"[32, 0, 222]",222,a,0.11192177818156779,colour,0.5
180,20,0,1,13,25,625,836.0335026526882,836.6562312932219,"[22, 0, 232]",232,a,0.08987657458055764,colour,0.5
180,20,0,1,13,26,626,837.1666073182423,837.8003773274831,"[13, 0, 241]",241,a,0.10069658979773521,colour,0.5
180,20,0,1,13,27,627,838.31699904977,838.9922359461198,"[0, 0, 254]",254,a,0.14255806358414702,colour,0.5
180,20,0,1,13,28,628,839.5007548474532,840.1442207811633,"[98, 0, 156]",156,l,0.11116693069925532,colour,0.5
180,20,0,1,13,29,629,840.6503849946603,841.2802335183078,"[71, 0, 183]",183,l,0.09721588640240952,colour,0.5
180,20,0,1,13,30,630,841.7836696302111,842.6242777941225,"[8, 0, 246]",246,a,0.3079476168495603,colour,0.5
180,20,0,1,13,31,631,843.1339365055319,843.7842326380196,"[31, 0, 223]",223,a,0.11790281362482347,colour,0.5
180,20,0,1,13,32,632,844.2998255477578,845.0163278674881,"[66, 0, 188]",188,l,0.18333073484245688,colour,0.5
180,20,0,1,13,33,633,845.5337031540403,846.1922740574228,"[28, 0, 226]",226,a,0.12595430621877313,colour,0.5
180,20,0,1,13,34,634,846.6998472340056,847.328247335885,"[21, 0, 233]",233,a,0.09526123883551918,colour,0.5
180,20,0,1,13,35,635,847.8337535841565,848.4562727408484,"[90, 0, 164]",164,l,0.08992148688412271,colour,0.5
180,20,0,1,13,36,636,848.9670783199836,849.7202342112141,"[64, 0, 190]",190,l,0.22057041188236326,colour,0.5
180,20,0,1,13,37,637,850.2345766341605,850.9363801197615,"[33, 0, 221]",221,a,0.17007326480234042,colour,0.5
180,20,0,1,13,38,638,851.4499664120085,852.072387724038,"[20, 0, 234]",234,a,0.0894197523011826,colour,0.5
180,20,0,1,13,39,639,852.5838820654026,853.4082935698971,"[48, 0, 206]",206,a,0.29199091746704653,colour,0.5
180,20,0,1,13,40,640,853.9178271684505,854.6004396272765,"[58, 0, 196]",196,l,0.15080171669251285,colour,0.5
180,20,0,1,13,41,641,855.117007454799,856.0082593723782,"[53, 0, 201]",201,a,0.3586260171723552,colour,0.5
180,20,0,1,13,42,642,856.5164715868596,857.1363181407796,"[93, 0, 161]",161,l,0.0867015956027899,colour,0.5
180,20,0,1,13,43,643,857.6496927035914,860.0962656703778,"[51, 0, 203]",203,a,1.9133163693186361,colour,0.5
180,20,0,1,13,44,644,860.6003414618026,861.7602619798563,"[47, 0, 207]",207,a,0.6273270186502486,colour,0.5
180,20,0,1,13,45,645,862.2666215618665,862.8642560950539,"[83, 0, 171]",171,l,0.06465671281330287,colour,0.5
180,20,0,1,13,46,646,863.3668693494692,864.1203855015337,"[39, 0, 215]",215,a,0.22078214134671725,colour,0.5
180,20,0,1,13,47,647,864.6336808262276,865.3122575938469,"[99, 0, 155]",155,l,0.14597813540603966,colour,0.5
180,20,0,1,13,48,648,865.8166724731855,866.6082704079745,"[40, 0, 214]",214,a,0.2587041645892896,colour,0.5
180,20,0,1,13,49,649,867.1170668031846,867.8642634735152,"[30, 0, 224]",224,a,0.2146830506680999,colour,0.5
180,20,0,1,13,50,650,868.3664712339814,868.9923880063579,"[27, 0, 227]",227,a,0.09281897198525257,colour,0.5
180,20,0,1,14,1,651,873.449496436835,874.1123664099432,"[70, 0, 184]",184,l,0.1294664482702501,colour,0.5
180,20,0,1,14,2,652,874.6169750537665,875.2082451929164,"[15, 0, 239]",239,a,0.05867663974640891,colour,0.5
180,20,0,1,14,3,653,875.7166486054775,876.2562830706884,"[95, 0, 159]",159,l,0.006729146116413176,colour,0.5
180,20,0,1,14,4,654,876.7668544642511,877.336296262074,"[28, 0, 226]",226,a,0.036747887381352484,colour,0.5
180,20,0,1,14,5,655,877.8501610106032,878.3844647062942,"[27, 0, 227]",227,a,0.0015866874891798943,colour,0.5
180,20,0,1,14,6,656,878.9011878020538,879.6084478115663,"[42, 0, 212]",212,l,0.17557790904538706,colour,0.5
180,20,0,1,14,7,657,880.1178421819932,880.8562113393273,"[57, 0, 197]",197,l,0.2066719791619107,colour,0.5
180,20,0,1,14,8,658,881.3670842869033,882.1362433938775,"[69, 0, 185]",185,l,0.23671061015920714,colour,0.5
180,20,0,1,14,9,659,882.6501216160832,883.3122672179306,"[19, 0, 235]",235,a,0.12940421266830526,colour,0.5
180,20,0,1,14,10,660,883.8162891145912,884.72824367875,"[56, 0, 198]",198,l,0.3787217060744297,colour,0.5
180,20,0,1,14,11,661,885.2336389294651,885.8722504848847,"[33, 0, 221]",221,a,0.10604853223776445,colour,0.5
180,20,0,1,14,12,662,886.3835882747953,887.0323602762073,"[92, 0, 162]",162,l,0.11616663233144209,colour,0.5
180,20,0,1,14,13,663,887.5496479837748,888.2564684943354,"[25, 0, 229]",229,a,0.1736206950736232,colour,0.5
180,20,0,1,14,14,664,888.7669064341753,889.568438970251,"[45, 0, 209]",209,a,0.2689310166169889,colour,0.5
180,20,0,1,14,15,665,890.0833854636585,890.7843561468471,"[84, 0, 170]",170,l,0.16818823129869998,colour,0.5
180,20,0,1,14,16,666,891.300648405304,892.0003278598015,"[37, 0, 217]",217,a,0.16749401544802822,colour,0.5
180,20,0,1,14,17,667,892.5165421633283,893.5042724431551,"[83, 0, 171]",171,l,0.454774915589951,colour,0.5
180,20,0,1,14,18,668,894.016895687324,894.8642766264093,"[64, 0, 190]",190,l,0.31478487327694893,colour,0.5
180,20,0,1,14,19,669,895.3667259508802,896.120265200705,"[68, 0, 186]",186,l,0.22077861250727437,colour,0.5
180,20,0,1,14,20,670,896.6330526956008,897.5446309588151,"[85, 0, 169]",169,l,0.37847597160725854,colour,0.5
180,20,0,1,14,21,671,898.0499318936781,899.1442955280654,"[60, 0, 194]",194,l,0.5614961699466221,colour,0.5
180,20,0,1,14,22,672,899.6502858667809,900.3683800068393,"[43, 0, 211]",211,a,0.18557634996250272,colour,0.5
180,20,0,1,14,23,673,900.8828058383369,901.4883481447469,"[21, 0, 233]",233,a,0.07220037557999603,colour,0.5
180,20,0,1,14,24,674,902.0000728220621,902.8163003426744,"[89, 0, 165]",165,l,0.28349030183744617,colour,0.5
180,20,0,1,14,25,675,903.3326166612969,903.9442850057676,"[87, 0, 167]",167,l,0.07815638851025142,colour,0.5
180,20,0,1,14,26,676,904.4495663717098,905.104277383507,"[72, 0, 182]",182,l,0.1214877777674701,colour,0.5
180,20,0,1,14,27,677,905.6161403265432,906.2642906133842,"[79, 0, 175]",175,l,0.11483402017620392,colour,0.5
180,20,0,1,14,28,678,906.7661470954772,907.424286519934,"[55, 0, 199]",199,a,0.12483919790247455,colour,0.5
180,20,0,1,14,29,679,907.9338550859538,908.6244401200092,"[13, 0, 241]",241,a,0.15832933934871107,colour,0.5
180,20,0,1,14,30,680,909.1330892670376,909.712281525688,"[16, 0, 238]",238,a,0.04617016756674275,colour,0.5
180,20,0,1,14,31,681,910.2174018489604,910.8243791034329,"[3, 0, 251]",251,a,0.07494515884900466,colour,0.5
180,20,0,1,14,32,682,911.3335752181592,912.456268570415,"[39, 0, 215]",215,a,0.5901707501616329,colour,0.5
180,20,0,1,14,33,683,912.9663443246391,913.6084099569125,"[62, 0, 192]",192,l,0.10898547599208541,colour,0.5
180,20,0,1,14,34,684,914.1162378503941,914.8722629961558,"[46, 0, 208]",208,l,0.22283591673476622,colour,0.5
180,20,0,1,14,35,685,915.3834641243739,917.0244319716294,"[48, 0, 206]",206,a,1.1083169242774602,colour,0.5
180,20,0,1,14,36,686,917.5327805270499,918.1683560108359,"[88, 0, 166]",166,l,0.10227910688263364,colour,0.5
180,20,0,1,14,37,687,918.6828867446457,920.9602802014269,"[58, 0, 196]",196,l,1.7441923581063747,colour,0.5
180,20,0,1,14,38,688,921.4662577080599,922.2082679698942,"[98, 0, 156]",156,l,0.20887043635593727,colour,0.5
180,20,0,1,14,39,689,922.7162790414004,923.3842645257537,"[14, 0, 240]",240,a,0.13487068144604564,colour,0.5
180,20,0,1,14,40,690,923.900354678859,924.6483883220062,"[76, 0, 178]",178,l,0.21565925164031796,colour,0.5
180,20,0,1,14,41,691,925.1665822956711,925.8723887506058,"[90, 0, 164]",164,l,0.17300539652933367,colour,0.5
180,20,0,1,14,42,692,926.3833951519046,927.7202919556294,"[51, 0, 203]",203,l,0.8042481263692025,colour,0.5
180,20,0,1,14,43,693,928.2333463578834,928.8563951589458,"[23, 0, 231]",231,a,0.09035392818623222,colour,0.5
180,20,0,1,14,44,694,929.365938381583,930.0644350385119,"[38, 0, 216]",216,a,0.16506490149185993,colour,0.5
180,20,0,1,14,45,695,930.5663065983099,931.2083876290708,"[7, 0, 247]",247,a,0.10902397223981097,colour,0.5
180,20,0,1,14,46,696,931.7162001240649,932.3044030737947,"[97, 0, 157]",157,l,0.05503746008616872,colour,0.5
180,20,0,1,14,47,697,932.8167732050642,933.4244212568447,"[11, 0, 243]",243,a,0.07506161005585454,colour,0.5
180,20,0,1,14,48,698,933.932929571718,934.8002996933647,"[30, 0, 224]",224,a,0.3342780956882052,colour,0.5
180,20,0,1,14,49,699,935.3166044631216,936.1282878211059,"[36, 0, 218]",218,a,0.2789493472664617,colour,0.5
180,20,0,1,14,50,700,936.6333433423424,937.3844181899913,"[32, 0, 222]",222,a,0.2184059597493615,colour,0.5
180,20,0,1,15,1,701,942.4834395509097,943.2402981406776,"[99, 0, 155]",155,l,0.2243045490467921,colour,0.5
180,20,0,1,15,2,702,943.7503941054456,944.3682975606644,"[91, 0, 163]",163,l,0.08564070286229253,colour,0.5
180,20,0,1,15,3,703,944.8836145805835,945.472275314969,"[10, 0, 244]",244,a,0.05629275893443264,colour,0.5
180,20,0,1,15,4,704,945.9833160420822,946.5443842619425,"[15, 0, 239]",239,a,0.028403181582689285,colour,0.5
180,20,0,1,15,5,705,947.0500223599083,947.7043224241352,"[41, 0, 213]",213,a,0.12166518135927618,colour,0.5
180,20,0,1,15,6,706,948.2161102994578,948.8002990517707,"[11, 0, 243]",243,a,0.051000164909055457,colour,0.5
180,20,0,1,15,7,707,949.3163288940559,949.9124027247599,"[58, 0, 196]",196,l,0.06309953914023936,colour,0.5
180,20,0,1,15,8,708,950.41669024562,951.4724241671793,"[40, 0, 214]",214,a,0.523126627667807,colour,0.5
180,20,0,1,15,9,709,951.9828059666615,952.9122647798213,"[14, 0, 240]",240,a,0.39630487241083756,colour,0.5
180,20,0,1,15,10,710,953.4160601901822,954.0402876183798,"[77, 0, 177]",177,l,0.0909977781411726,colour,0.5
180,20,0,1,15,11,711,954.5496223196096,955.1363174991566,"[17, 0, 237]",237,a,0.05369714862899855,colour,0.5
180,20,0,1,15,12,712,955.6499333052197,956.2644420319994,"[26, 0, 228]",228,a,0.08182636520359665,colour,0.5
180,20,0,1,15,13,713,956.7665086394991,957.728290195053,"[64, 0, 190]",190,l,0.429013860586565,colour,0.5
180,20,0,1,15,14,714,958.2326925630914,958.7683051316126,"[79, 0, 175]",175,l,0.0023649535432923585,colour,0.5
180,20,0,1,15,15,715,959.2826331184478,959.8723906754167,"[42, 0, 212]",212,a,0.056453159981174394,colour,0.5
180,20,0,1,15,16,716,960.3833085353253,960.960341153841,"[25, 0, 229]",229,a,0.044400943676009774,colour,0.5
180,20,0,1,15,17,717,961.4667488561536,962.0244011746254,"[51, 0, 203]",203,a,0.025139982026303187,colour,0.5
180,20,0,1,15,18,718,962.5327940007264,963.2003505725879,"[76, 0, 178]",178,l,0.13441931281704456,colour,0.5
180,20,0,1,15,19,719,963.7166232621239,964.5683212358563,"[54, 0, 200]",200,l,0.3190550708095543,colour,0.5
180,20,0,1,15,20,720,965.08318207509,965.6483100462938,"[45, 0, 209]",209,a,0.03239171483437531,colour,0.5
180,20,0,1,15,21,721,966.1497138765408,966.688302526687,"[33, 0, 221]",221,a,0.005725997732952237,colour,0.5
180,20,0,1,15,22,722,967.1996932489565,967.824408617249,"[93, 0, 161]",161,l,0.09183218455291353,colour,0.5
180,20,0,1,15,23,723,968.3332977242826,969.1523951409908,"[86, 0, 168]",168,l,0.2864907644398045,colour,0.5
180,20,0,1,15,24,724,969.6665232680971,970.3124151077063,"[3, 0, 251]",251,a,0.11315109202405438,colour,0.5
180,20,0,1,15,25,725,970.8160542874248,971.3924372815527,"[56, 0, 198]",198,a,0.043204993213294074,colour,0.5
180,20,0,1,15,26,726,971.8997602324525,972.6003174016369,"[0, 0, 254]",254,a,0.16775386518565938,colour,0.5
180,20,0,1,15,27,727,973.1167674947646,973.7363612565678,"[2, 0, 252]",252,a,0.08713692412129603,colour,0.5
180,20,0,1,15,28,728,974.249913543812,974.8404923542985,"[89, 0, 165]",165,l,0.057938794780056924,colour,0.5
180,20,0,1,15,29,729,975.3499338826514,975.9843223984644,"[96, 0, 158]",158,l,0.10175716175581329,colour,0.5
180,20,0,1,15,30,730,976.4999903759162,977.2403135391942,"[18, 0, 236]",236,a,0.2077376839297358,colour,0.5
180,20,0,1,15,31,731,977.749788430956,978.3602977172122,"[97, 0, 157]",157,l,0.07775763139943592,colour,0.5
180,20,0,1,15,32,732,978.866500426986,979.4964910659764,"[24, 0, 230]",230,a,0.09728678365354426,colour,0.5
180,20,0,1,15,33,733,980.0000019248109,980.6724337270716,"[6, 0, 248]",248,a,0.13990952094900422,colour,0.5
180,20,0,1,15,34,734,981.1828379826911,982.6644672470575,"[75, 0, 179]",179,l,0.9486023612553254,colour,0.5
180,20,0,1,15,35,735,983.1660372528131,983.7284188367194,"[88, 0, 166]",166,l,0.029241758427815512,colour,0.5
180,20,0,1,15,36,736,984.2331997512956,984.9763405199337,"[90, 0, 164]",164,l,0.21046995592769235,colour,0.5
180,20,0,1,15,37,737,985.4835576061159,986.4163197191083,"[68, 0, 186]",186,l,0.4004740172531456,colour,0.5
180,20,0,1,15,38,738,986.9333536721824,987.6163068228634,"[32, 0, 222]",222,a,0.15045268391259015,colour,0.5
180,20,0,1,15,39,739,988.1330507707899,988.8163122123515,"[81, 0, 173]",173,l,0.15048540575662628,colour,0.5
180,20,0,1,15,40,740,989.3326500247058,989.9603825373051,"[69, 0, 185]",185,l,0.09454937881673686,colour,0.5
180,20,0,1,15,41,741,990.4667405153159,991.1845177028154,"[22, 0, 232]",232,a,0.185354675661074,colour,0.5
180,20,0,1,15,42,742,991.6990391333529,992.392352269002,"[29, 0, 225]",225,a,0.15985988645115867,colour,0.5
180,20,0,1,15,43,743,992.899230588082,993.5203305160394,"[78, 0, 176]",176,l,0.08785295457346365,colour,0.5
180,20,0,1,15,44,744,994.0338154348137,994.5683645441604,"[83, 0, 171]",171,l,0.0025449235399719328,colour,0.5
180,20,0,1,15,45,745,995.0830553582346,995.7443655912648,"[44, 0, 210]",210,a,0.12855248292908072,colour,0.5
180,20,0,1,15,46,746,996.2502782958618,996.8564304471947,"[36, 0, 218]",218,a,0.07396157944458537,colour,0.5
180,20,0,1,15,47,747,997.3663926374575,997.9844058070157,"[12, 0, 242]",242,a,0.0852515698352363,colour,0.5
180,20,0,1,15,48,748,998.4994450122467,999.0884326440573,"[67, 0, 187]",187,l,0.055967786349356174,colour,0.5
180,20,0,1,15,49,749,999.5991099023086,1000.1843184846803,"[60, 0, 194]",194,a,0.051811473560519516,colour,0.5
180,20,0,1,15,50,750,1000.7001603369135,1001.2483624653541,"[28, 0, 226]",226,l,0.01590152143035084,colour,0.5
180,20,0,1,16,1,751,1005.5159967996588,1006.728460540995,"[60, 0, 194]",194,l,0.6793454096186906,colour,0.5
180,20,0,1,16,2,752,1007.2327743676433,1007.9683746815135,"[11, 0, 243]",243,a,0.2026061325741466,colour,0.5
180,20,0,1,16,3,753,1008.4830003727693,1009.3924696825852,"[54, 0, 200]",200,a,0.3767105973092839,colour,0.5
180,20,0,1,16,4,754,1009.8999600922107,1010.560437843611,"[88, 0, 166]",166,l,0.1280157809087541,colour,0.5
180,20,0,1,16,5,755,1011.0663203927979,1011.7123405532911,"[34, 0, 220]",220,a,0.11324412465910427,colour,0.5
180,20,0,1,16,6,756,1012.2157288657036,1012.8883281266899,"[15, 0, 239]",239,a,0.13923904442344792,colour,0.5
180,20,0,1,16,7,757,1013.399681956711,1014.0244797711784,"[82, 0, 172]",172,l,0.0920615580980666,colour,0.5
180,20,0,1,16,8,758,1014.5333823518886,1015.4243282242387,"[62, 0, 192]",192,l,0.35858110489789397,colour,0.5
180,20,0,1,16,9,759,1015.9325895214279,1016.5523257194145,"[95, 0, 159]",159,l,0.08656814190908335,colour,0.5
180,20,0,1,16,10,760,1017.066318467987,1017.6563195138006,"[2, 0, 252]",252,a,0.057255165389506146,colour,0.5
180,20,0,1,16,11,761,1018.1666608922242,1018.7763505289622,"[69, 0, 185]",185,l,0.07728091938770376,colour,0.5
180,20,0,1,16,12,762,1019.2828871937527,1019.8884696004388,"[45, 0, 209]",209,a,0.07273258635541424,colour,0.5
180,20,0,1,16,13,763,1020.3997368138807,1021.1123112319619,"[16, 0, 238]",238,a,0.17991515423636883,colour,0.5
180,20,0,1,16,14,764,1021.6173314649786,1022.2803849369229,"[51, 0, 203]",203,a,0.13131843914743513,colour,0.5
180,20,0,1,16,15,765,1022.783112717676,1023.520343348122,"[59, 0, 195]",195,l,0.20461114606587216,colour,0.5
180,20,0,1,16,16,766,1024.034025881032,1024.5844239002618,"[36, 0, 218]",218,a,0.01870629470795393,colour,0.5
180,20,0,1,16,17,767,1025.0992048597545,1025.7204238052946,"[23, 0, 231]",231,a,0.08804383184178732,colour,0.5
180,20,0,1,16,18,768,1026.2330730344402,1026.880478418665,"[53, 0, 201]",201,a,0.11476440611295402,colour,0.5
180,20,0,1,16,19,769,1027.383113808406,1028.040331568278,"[90, 0, 164]",164,l,0.12461720284773037,colour,0.5
180,20,0,1,16,20,770,1028.549637718097,1029.1524060482625,"[7, 0, 247]",247,a,0.07003592341789044,colour,0.5
180,20,0,1,16,21,771,1029.66590027028,1030.6483414848917,"[1, 0, 253]",253,a,0.44931229640496895,colour,0.5
180,20,0,1,16,22,772,1031.1664408219222,1031.8243441360246,"[99, 0, 155]",155,l,0.1253194387536496,colour,0.5
180,20,0,1,16,23,773,1032.3328222954879,1032.960451188963,"[77, 0, 177]",177,l,0.09476463706232607,colour,0.5
180,20,0,1,16,24,774,1033.465898088849,1034.120438754675,"[4, 0, 250]",250,a,0.12142137170303613,colour,0.5
180,20,0,1,16,25,775,1034.6333093373105,1035.3844836336211,"[33, 0, 221]",221,a,0.21880632083048113,colour,0.5
180,20,0,1,16,26,776,1035.899180863751,1036.4723651395761,"[38, 0, 216]",216,a,0.040020069398451596,colour,0.5
180,20,0,1,16,27,777,1036.9829734253872,1037.9763501439884,"[61, 0, 193]",193,l,0.46067510888678953,colour,0.5
180,20,0,1,16,28,778,1038.4832810746448,1039.112463933794,"[27, 0, 227]",227,a,0.09679050272097811,colour,0.5
180,20,0,1,16,29,779,1039.6163042564585,1040.2564877424447,"[0, 0, 254]",254,a,0.10749182113795541,colour,0.5
180,20,0,1,16,30,780,1040.7669397976133,1041.424331753049,"[37, 0, 217]",217,a,0.12530981469899416,colour,0.5
180,20,0,1,16,31,781,1041.9332295217318,1042.5524081655603,"[35, 0, 219]",219,a,0.08671827733633108,colour,0.5
180,20,0,1,16,32,782,1043.0661436308,1043.7205187627405,"[28, 0, 226]",226,a,0.12153397325892001,colour,0.5
180,20,0,1,16,33,783,1044.2329723025614,1044.9283809179033,"[26, 0, 228]",228,a,0.16270155197707936,colour,0.5
180,20,0,1,16,34,784,1045.4329513862613,1046.0644966325199,"[81, 0, 173]",173,l,0.09884652376058511,colour,0.5
180,20,0,1,16,35,785,1046.5663774955901,1047.296402909531,"[66, 0, 188]",188,l,0.19743095213198103,colour,0.5
180,20,0,1,16,36,786,1047.799663221871,1048.3923442489468,"[42, 0, 212]",212,a,0.060043577774195,colour,0.5
180,20,0,1,16,37,787,1048.89994918491,1049.5524646267295,"[78, 0, 176]",176,l,0.12016703526023775,colour,0.5
180,20,0,1,16,38,788,1050.0657820867782,1050.704356429138,"[31, 0, 223]",223,a,0.10538767976686358,colour,0.5
180,20,0,1,16,39,789,1051.2159441239492,1051.8404731061892,"[96, 0, 158]",158,l,0.09152036486193538,colour,0.5
180,20,0,1,16,40,790,1052.350981622527,1052.960416542337,"[6, 0, 248]",248,a,0.07812944109900855,colour,0.5
180,20,0,1,16,41,791,1053.465768484777,1054.048497908021,"[91, 0, 163]",163,l,0.049526078946655616,colour,0.5
180,20,0,1,16,42,792,1054.565446527733,1055.1764716638427,"[75, 0, 179]",179,l,0.0774948944163043,colour,0.5
180,20,0,1,16,43,793,1055.6834757374017,1056.3124536039832,"[73, 0, 181]",181,l,0.09684375589131378,colour,0.5
180,20,0,1,16,44,794,1056.8155326631095,1057.392349060974,"[8, 0, 246]",246,a,0.043409985810285434,colour,0.5
180,20,0,1,16,45,795,1057.8997089040931,1058.6564805564994,"[70, 0, 184]",184,l,0.22418071940774098,colour,0.5
180,20,0,1,16,46,796,1059.1665223056916,1060.032354822586,"[24, 0, 230]",230,a,0.3334324612224009,colour,0.5
180,20,0,1,16,47,797,1060.5490522541804,1061.6163979306875,"[65, 0, 189]",189,l,0.5341407282103319,colour,0.5
180,20,0,1,16,48,798,1062.1330235025962,1062.8004475831694,"[52, 0, 202]",202,a,0.13486073657986708,colour,0.5
180,20,0,1,16,49,799,1063.3165034104313,1063.9203749792068,"[97, 0, 157]",157,l,0.07145964339724742,colour,0.5
180,20,0,1,16,50,800,1064.4330158675148,1065.0804048908176,"[13, 0, 241]",241,a,0.11476055649109185,colour,0.5
