id,age,condition,counterbalance,block,trialinblock,trial,tstart,tend,trialstim,trialintensity,response,RT,trialtype,colourfreq
74,68,1,1,Practice,1,NA,5.5138516472652555e-06,1.3935041340082535,"[31, 0, 223]",223,a,0.7754453319539607,colour,0.5
74,68,1,1,Practice,2,NA,1.9073007698534639,2.609502489307488,"[67, 0, 187]",187,a,0.17898979189703823,colour,0.5
74,68,1,1,Practice,3,NA,3.126092677568522,8.225711788731132,"[20, 0, 234]",234,a,4.5763221127817815,colour,0.5
74,68,1,1,Practice,4,NA,8.73593348092254,9.297512348068267,"[9, 0, 245]",245,a,0.0386379059018509,colour,0.5
74,68,1,1,Practice,5,NA,9.814047003990709,13.201531983675522,"[66, 0, 188]",188,a,2.8643006213715125,colour,0.5
74,68,1,1,Practice,6,NA,13.721119342939346,16.37763291232477,"[63, 0, 191]",191,a,2.133676189740072,colour,0.5
74,68,1,1,Practice,7,NA,16.892764293574146,20.065547854108445,"[89, 0, 165]",165,a,2.649769343861408,colour,0.5
74,68,1,1,Practice,8,NA,20.580588650685968,21.289498361795268,"[49, 0, 205]",205,l,0.18586477441567695,colour,0.5
74,68,1,1,Practice,9,NA,21.799343142996804,25.02553778739457,"[72, 0, 182]",182,a,2.702854322917119,colour,0.5
74,68,1,1,Practice,10,NA,25.534157312489697,26.08152895893363,"[35, 0, 219]",219,a,0.024744186925090617,colour,0.5
74,68,1,1,1,1,1,5.849334458685917,8.528005825777655,"[35, 0, 219]",219,a,2.1544334696991427,colour,0.5
74,68,1,1,1,2,2,9.037958127039019,9.799971327982348,"[74, 0, 180]",180,l,0.23872644257062348,colour,0.5
74,68,1,1,1,3,3,10.319331044036517,10.855959742599225,"[64, 0, 190]",190,a,0.013314764790266054,colour,0.5
74,68,1,1,1,4,4,11.36627044407578,11.983990932079905,"[86, 0, 168]",168,l,0.09442742809187621,colour,0.5
74,68,1,1,1,5,5,12.491410013386485,15.816010328228003,"[71, 0, 183]",183,a,2.8014198949931597,colour,0.5
74,68,1,1,1,6,6,16.335433847394597,16.9919934968093,"[94, 0, 160]",160,l,0.13326462026816444,colour,0.5
74,68,1,1,1,7,7,17.507383241285424,18.79201484328223,"[59, 0, 195]",195,a,0.7612818282032094,colour,0.5
74,68,1,1,1,8,8,19.304446013702545,20.01596889559005,"[19, 0, 235]",235,a,0.18835191435209708,colour,0.5
74,68,1,1,1,9,9,20.523286758372706,21.24799443574011,"[98, 0, 156]",156,l,0.2014567590158549,colour,0.5
74,68,1,1,1,10,10,21.758853371386067,24.03207091125296,"[29, 0, 225]",225,a,1.7503104494135187,colour,0.5
74,68,1,1,1,11,11,24.540265869942232,25.60802241458441,"[25, 0, 229]",229,a,0.5444851462780207,colour,0.5
74,68,1,1,1,12,12,26.118537916183413,26.720118579269183,"[95, 0, 159]",159,l,0.07827854470451712,colour,0.5
74,68,1,1,1,13,13,27.227927174651995,27.816014266692946,"[7, 0, 247]",247,a,0.0647696136511513,colour,0.5
74,68,1,1,1,14,14,28.337464125517727,29.007986810873263,"[26, 0, 228]",228,a,0.147264283921686,colour,0.5
74,68,1,1,1,15,15,29.517553930370923,30.528015278090606,"[60, 0, 194]",194,l,0.48722539553273236,colour,0.5
74,68,1,1,1,16,16,31.04954075542264,31.759978196663724,"[75, 0, 179]",179,l,0.18707585205629584,colour,0.5
74,68,1,1,1,17,17,32.26828579541689,32.92002673429306,"[88, 0, 166]",166,l,0.12832263581003645,colour,0.5
74,68,1,1,1,18,18,33.440389183244406,36.38401401148076,"[34, 0, 220]",220,a,2.4210958303119696,colour,0.5
74,68,1,1,1,19,19,36.89383910036122,37.544192124569236,"[91, 0, 163]",163,l,0.1263396192516666,colour,0.5
74,68,1,1,1,20,20,38.06582394042562,39.591990897421056,"[39, 0, 215]",215,a,1.0031499833967246,colour,0.5
74,68,1,1,1,21,21,40.1128082389514,40.74400181799501,"[70, 0, 184]",184,l,0.10785128832867485,colour,0.5
74,68,1,1,1,22,22,41.253855657661916,41.856000702620804,"[15, 0, 239]",239,a,0.07910404673020821,colour,0.5
74,68,1,1,1,23,23,42.36304838678552,43.776141652368096,"[24, 0, 230]",230,l,0.8900093380980252,colour,0.5
74,68,1,1,1,24,24,44.272584234880924,44.83205129770431,"[5, 0, 249]",249,a,0.03615391674247803,colour,0.5
74,68,1,1,1,25,25,45.350782041077764,45.94397653305714,"[28, 0, 226]",226,a,0.06991009668490733,colour,0.5
74,68,1,1,1,26,26,46.460263459601265,47.11200715540326,"[72, 0, 182]",182,l,0.12869678987772204,colour,0.5
74,68,1,1,1,27,27,47.632257751978614,48.16002845146431,"[2, 0, 252]",252,a,0.00449181803924148,colour,0.5
74,68,1,1,1,28,28,48.67921526895225,49.240043464888004,"[9, 0, 245]",245,a,0.03754419448887347,colour,0.5
74,68,1,1,1,29,29,49.75750917366895,51.20801587673486,"[16, 0, 238]",238,a,0.9272467262489954,colour,0.5
74,68,1,1,1,30,30,51.726449266087,52.97614629975578,"[41, 0, 213]",213,a,0.7265792353973666,colour,0.5
74,68,1,1,1,31,31,53.49224693695942,54.368010063564725,"[54, 0, 200]",200,a,0.353215617902606,colour,0.5
74,68,1,1,1,32,32,54.882944127770315,55.47197133113514,"[3, 0, 251]",251,a,0.06573453729652101,colour,0.5
74,68,1,1,1,33,33,55.99233535547319,56.59230282375938,"[85, 0, 169]",169,l,0.07667716529613244,colour,0.5
74,68,1,1,1,34,34,57.10187427556957,57.63207855187284,"[22, 0, 232]",232,a,0.0077008783955534454,colour,0.5
74,68,1,1,1,35,35,58.14887038948655,58.83205011616519,"[55, 0, 199]",199,a,0.1599540144961793,colour,0.5
74,68,1,1,1,36,36,59.351981303323555,60.75199099194651,"[45, 0, 209]",209,a,0.8767044194682967,colour,0.5
74,68,1,1,1,37,37,61.25839670650021,61.9920257922131,"[61, 0, 193]",193,a,0.21034744734424748,colour,0.5
74,68,1,1,1,38,38,62.511008991121344,63.08805144893995,"[51, 0, 203]",203,a,0.05388330567802768,colour,0.5
74,68,1,1,1,39,39,63.60479760037197,64.9200688758574,"[50, 0, 204]",204,a,0.7919270155398408,colour,0.5
74,68,1,1,1,40,40,65.43307388046378,66.53602532589866,"[49, 0, 205]",205,a,0.5796044285671087,colour,0.5
74,68,1,1,1,41,41,67.0425243820464,67.70413826213917,"[78, 0, 176]",176,l,0.13828970631584525,colour,0.5
74,68,1,1,1,42,42,68.21450922211079,69.60002221293689,"[4, 0, 250]",250,a,0.8621951185887156,colour,0.5
74,68,1,1,1,43,43,70.12101836072543,70.68802324953867,"[93, 0, 161]",161,l,0.04251926203869516,colour,0.5
74,68,1,1,1,44,44,71.19085756505956,71.73602406559075,"[67, 0, 187]",187,a,0.021821846738021122,colour,0.5
74,68,1,1,1,45,45,72.25344645126825,73.47203277116932,"[10, 0, 244]",244,a,0.6952239430247573,colour,0.5
74,68,1,1,1,46,46,73.98799713752669,75.31199998739612,"[30, 0, 224]",224,a,0.8007456299783371,colour,0.5
74,68,1,1,1,47,47,75.8318240483386,76.38403212841149,"[6, 0, 248]",248,a,0.02879962316728779,colour,0.5
74,68,1,1,1,48,48,76.8819413948695,77.58400054193407,"[92, 0, 162]",162,l,0.17868653018012992,colour,0.5
74,68,1,1,1,49,49,78.10081285955675,81.1840369333404,"[56, 0, 198]",198,a,2.5599093523160263,colour,0.5
74,68,1,1,1,50,50,81.68250191704647,83.13602272651406,"[33, 0, 221]",221,a,0.9306011159278569,colour,0.5
74,68,1,1,2,1,51,89.93226944921844,90.50401112852342,"[19, 0, 235]",235,a,0.04766722815838875,colour,0.5
74,68,1,1,2,2,52,91.01134868362715,91.93606337146048,"[49, 0, 205]",205,a,0.4014228094565624,colour,0.5
74,68,1,1,2,3,53,92.44895179753439,93.32804922764626,"[30, 0, 224]",224,a,0.35580476404356887,colour,0.5
74,68,1,1,2,4,54,93.83967498220954,94.79206840639017,"[25, 0, 229]",229,a,0.4290968196510221,colour,0.5
74,68,1,1,2,5,55,95.30864638541607,96.13605699114851,"[55, 0, 199]",199,a,0.3045377799135167,colour,0.5
74,68,1,1,2,6,56,96.6409113447844,97.71218887612486,"[16, 0, 238]",238,a,0.5480147975977161,colour,0.5
74,68,1,1,2,7,57,98.21923104643793,99.11203157387718,"[67, 0, 187]",187,l,0.36969099994166754,colour,0.5
74,68,1,1,2,8,58,99.6255241603103,100.22399855694675,"[73, 0, 181]",181,l,0.07521520751106436,colour,0.5
74,68,1,1,2,9,59,100.73534034826298,101.63218134577983,"[64, 0, 190]",190,l,0.3735589653006173,colour,0.5
74,68,1,1,2,10,60,102.14170120371273,102.70401695745022,"[90, 0, 164]",164,l,0.03899945688681328,colour,0.5
74,68,1,1,2,11,61,103.21991436991811,103.86408124893569,"[87, 0, 167]",167,l,0.12092147451403434,colour,0.5
74,68,1,1,2,12,62,104.37624381612113,105.06403036398115,"[70, 0, 184]",184,l,0.1646305464892066,colour,0.5
74,68,1,1,2,13,63,105.579500453121,106.70405122208467,"[5, 0, 249]",249,a,0.601609413872211,colour,0.5
74,68,1,1,2,14,64,107.22026174243365,107.88005959683505,"[94, 0, 160]",160,l,0.13659656069648918,colour,0.5
74,68,1,1,2,15,65,108.39223594864598,109.32007462601541,"[91, 0, 163]",163,l,0.4046460482859402,colour,0.5
74,68,1,1,2,16,66,109.82775522132215,110.72808097166853,"[72, 0, 182]",182,a,0.3771083089413878,colour,0.5
74,68,1,1,2,17,67,111.24976123062879,112.13607156346552,"[75, 0, 179]",179,a,0.3630397221677413,colour,0.5
74,68,1,1,2,18,68,112.65605079988381,113.53603556590315,"[60, 0, 194]",194,a,0.3567141553503461,colour,0.5
74,68,1,1,2,19,69,114.04677280301621,114.73605045329896,"[45, 0, 209]",209,a,0.16593102725892095,colour,0.5
74,68,1,1,2,20,70,115.2499676061343,116.01600394791603,"[66, 0, 188]",188,a,0.24269602030108217,colour,0.5
74,68,1,1,2,21,71,116.53143819703473,117.27208208073716,"[78, 0, 176]",176,l,0.21738233149881125,colour,0.5
74,68,1,1,2,22,72,117.78146015397215,118.4240122627998,"[18, 0, 236]",236,a,0.1194626674950996,colour,0.5
74,68,1,1,2,23,73,118.93780299094942,119.60002260678448,"[80, 0, 174]",174,l,0.13887614358463907,colour,0.5
74,68,1,1,2,24,74,120.10977759100933,120.64804902284959,"[31, 0, 223]",223,a,0.015130396634049248,colour,0.5
74,68,1,1,2,25,75,121.1567398341358,121.94435935174624,"[41, 0, 213]",213,a,0.26436938695042045,colour,0.5
74,68,1,1,2,26,76,122.4565026204582,123.2800606208366,"[26, 0, 228]",228,a,0.30020665119809564,colour,0.5
74,68,1,1,2,27,77,123.80028404201585,124.45602488479199,"[6, 0, 248]",248,a,0.13228433661424788,colour,0.5
74,68,1,1,2,28,78,124.97234450058386,125.68005770637319,"[79, 0, 175]",175,l,0.1844067550955515,colour,0.5
74,68,1,1,2,29,79,126.19115964524099,127.30406477040015,"[17, 0, 237]",237,a,0.5896301821812813,colour,0.5
74,68,1,1,2,30,80,127.8163096514836,128.50404421161875,"[76, 0, 178]",178,l,0.1645060910304892,colour,0.5
74,68,1,1,2,31,81,129.019517451532,129.56001450930125,"[48, 0, 206]",206,a,0.01720675477918121,colour,0.5
74,68,1,1,2,32,82,130.06644227925426,130.9520527470595,"[21, 0, 233]",233,a,0.36216420164782903,colour,0.5
74,68,1,1,2,33,83,131.47282519009968,132.39204690237966,"[22, 0, 232]",232,a,0.40845966284541646,colour,0.5
74,68,1,1,2,34,84,132.89090218785714,133.6560555260403,"[4, 0, 250]",250,a,0.24190990291390335,colour,0.5
74,68,1,1,2,35,85,134.17220027403891,135.13620704662026,"[3, 0, 251]",251,a,0.4406664511006966,colour,0.5
74,68,1,1,2,36,86,135.65674633260278,136.6321029703504,"[92, 0, 162]",162,l,0.45281739981874125,colour,0.5
74,68,1,1,2,37,87,137.14122858805058,138.29609922723466,"[11, 0, 243]",243,a,0.6316023915933329,colour,0.5
74,68,1,1,2,38,88,138.8131600619272,139.6640647861568,"[42, 0, 212]",212,a,0.32753683350165375,colour,0.5
74,68,1,1,2,39,89,140.17269140048302,141.21604049685993,"[39, 0, 215]",215,a,0.5293035496179073,colour,0.5
74,68,1,1,2,40,90,141.72604045353728,142.61605688087002,"[97, 0, 157]",157,l,0.366910050604929,colour,0.5
74,68,1,1,2,41,91,143.13241627515163,144.1121410631713,"[52, 0, 202]",202,a,0.4564250327166519,colour,0.5
74,68,1,1,2,42,92,144.6325428967648,145.67212760938128,"[71, 0, 183]",183,l,0.5162904711614829,colour,0.5
74,68,1,1,2,43,93,146.18196018134404,147.22406314775435,"[10, 0, 244]",244,a,0.5186543371746666,colour,0.5
74,68,1,1,2,44,94,147.7446095229716,148.64009687045836,"[53, 0, 201]",201,a,0.3723136230291857,colour,0.5
74,68,1,1,2,45,95,149.15095423071762,150.01609689566249,"[58, 0, 196]",196,a,0.34182361116836546,colour,0.5
74,68,1,1,2,46,96,150.52610118465236,151.45607057097004,"[28, 0, 226]",226,a,0.4073108129341563,colour,0.5
74,68,1,1,2,47,97,151.96366058160856,152.92003894353184,"[85, 0, 169]",169,l,0.43308372662067995,colour,0.5
74,68,1,1,2,48,98,153.43258669248098,154.48809028219694,"[32, 0, 222]",222,a,0.5323349852587853,colour,0.5
74,68,1,1,2,49,99,154.98310005155508,155.92007832817035,"[96, 0, 158]",158,l,0.4137986444584385,colour,0.5
74,68,1,1,2,50,100,156.4363416239321,157.392030360832,"[1, 0, 253]",253,a,0.432441363165708,colour,0.5
74,68,1,1,3,1,101,162.68689448579607,171.76009083673125,"[18, 0, 236]",236,a,8.549120324401883,colour,0.5
74,68,1,1,3,2,102,172.26662258212673,172.89608087399392,"[19, 0, 235]",235,a,0.10621800736771547,colour,0.5
74,68,1,1,3,3,103,173.40735019757267,174.20806668292062,"[59, 0, 195]",195,a,0.2774190931231715,colour,0.5
74,68,1,1,3,4,104,174.71985115757343,175.55207062768386,"[78, 0, 176]",176,l,0.3087062500635511,colour,0.5
74,68,1,1,3,5,105,176.06378578537624,177.00805022014174,"[95, 0, 159]",159,l,0.4209441994498775,colour,0.5
74,68,1,1,3,6,106,177.51695646540247,178.4560686017394,"[44, 0, 210]",210,a,0.4157064363571408,colour,0.5
74,68,1,1,3,7,107,178.97023781626558,179.93611063302524,"[0, 0, 254]",254,a,0.44258408915629843,colour,0.5
74,68,1,1,3,8,108,180.45472007171338,181.5440755460404,"[64, 0, 190]",190,a,0.5660565067191783,colour,0.5
74,68,1,1,3,9,109,182.0642233487124,183.04808037302064,"[88, 0, 166]",166,l,0.4605265489881276,colour,0.5
74,68,1,1,3,10,110,183.5643491826304,184.5680659109821,"[35, 0, 219]",219,a,0.48037089301942615,colour,0.5
74,68,1,1,3,11,111,185.08015207196877,186.07208806720155,"[2, 0, 252]",252,a,0.4685917352908291,colour,0.5
74,68,1,1,3,12,112,186.58031689668132,187.52811925353672,"[26, 0, 228]",228,a,0.4248405217513209,colour,0.5
74,68,1,1,3,13,113,188.04910082900824,188.98409333214295,"[33, 0, 221]",221,a,0.41159349854206084,colour,0.5
74,68,1,1,3,14,114,189.50233531215054,190.44011349077482,"[15, 0, 239]",239,a,0.41446621408249484,colour,0.5
74,68,1,1,3,15,115,190.95555522297582,191.8720743613485,"[52, 0, 202]",202,a,0.3932418323129241,colour,0.5
74,68,1,1,3,16,116,192.39319969075223,193.36811049439348,"[17, 0, 237]",237,a,0.4517536207313242,colour,0.5
74,68,1,1,3,17,117,193.8776413800224,194.79213102796712,"[34, 0, 220]",220,a,0.396721858985984,colour,0.5
74,68,1,1,3,18,118,195.30968968449451,196.23208934326613,"[8, 0, 246]",246,a,0.39915189119346905,colour,0.5
74,68,1,1,3,19,119,196.7473195799539,197.63209981958062,"[4, 0, 250]",250,a,0.36146827508491697,colour,0.5
74,68,1,1,3,20,120,198.15366743847335,199.04805831762133,"[14, 0, 240]",240,a,0.37099187455532956,colour,0.5
74,68,1,1,3,21,121,199.56006728471766,200.43209162757557,"[37, 0, 217]",217,a,0.34884825532208197,colour,0.5
74,68,1,1,3,22,122,200.95080228478037,201.60810591002155,"[24, 0, 230]",230,a,0.13394361143946298,colour,0.5
74,68,1,1,3,23,123,202.12272922942793,203.03217409900753,"[32, 0, 222]",222,a,0.3861266034946311,colour,0.5
74,68,1,1,3,24,124,203.5447057002566,204.44010600769252,"[23, 0, 231]",231,a,0.3721678998626885,colour,0.5
74,68,1,1,3,25,125,204.9511142111187,205.87208105673926,"[69, 0, 185]",185,l,0.3981550659882487,colour,0.5
74,68,1,1,3,26,126,206.389447122383,207.3120917536071,"[5, 0, 249]",249,a,0.3979632627997489,colour,0.5
74,68,1,1,3,27,127,207.82842200325103,208.71215264225611,"[70, 0, 184]",184,l,0.3604387606283126,colour,0.5
74,68,1,1,3,28,128,209.2191577910089,210.1200865201754,"[38, 0, 216]",216,a,0.37761203846821445,colour,0.5
74,68,1,1,3,29,129,210.64121027419242,211.6561197230003,"[57, 0, 197]",197,a,0.49169830894243205,colour,0.5
74,68,1,1,3,30,130,212.17257639733725,213.10411447381557,"[89, 0, 165]",165,l,0.42075633472268237,colour,0.5
74,68,1,1,3,31,131,213.6134870331989,214.52017025191526,"[85, 0, 169]",169,l,0.38349570963328006,colour,0.5
74,68,1,1,3,32,132,215.03532605163855,215.92007950970947,"[90, 0, 164]",164,l,0.3614036842773203,colour,0.5
74,68,1,1,3,33,133,216.4271283754133,217.34409216635686,"[3, 0, 251]",251,a,0.3937888849468436,colour,0.5
74,68,1,1,3,34,134,217.86469328621752,218.8161320267609,"[79, 0, 175]",175,l,0.4276297418618924,colour,0.5
74,68,1,1,3,35,135,219.33358985861196,220.20810685525066,"[60, 0, 194]",194,a,0.35120424440174247,colour,0.5
74,68,1,1,3,36,136,220.72432288944765,221.62413348871996,"[55, 0, 199]",199,a,0.37656046861593495,colour,0.5
74,68,1,1,3,37,137,222.1307081633713,223.0241443588784,"[1, 0, 253]",253,a,0.3701628279086435,colour,0.5
74,68,1,1,3,38,138,223.53705680958592,224.44811369242598,"[99, 0, 155]",155,l,0.3877374352196057,colour,0.5
74,68,1,1,3,39,139,224.95900886193704,225.80014698347077,"[53, 0, 201]",201,a,0.317763535414997,colour,0.5
74,68,1,1,3,40,140,226.31849254508052,227.19207376270424,"[45, 0, 209]",209,a,0.3501944222698512,colour,0.5
74,68,1,1,3,41,141,227.70924644976913,228.5681407417942,"[81, 0, 173]",173,l,0.33566503522524727,colour,0.5
74,68,1,1,3,42,142,229.08437292369126,230.08014655811712,"[54, 0, 200]",200,a,0.4725262606916658,colour,0.5
74,68,1,1,3,43,143,230.60013997300484,231.45615761102454,"[61, 0, 193]",193,a,0.33266904576157685,colour,0.5
74,68,1,1,3,44,144,231.975339702356,232.8561357919316,"[6, 0, 248]",248,a,0.3576877436171344,colour,0.5
74,68,1,1,3,45,145,233.3660309854713,234.2560844343643,"[91, 0, 163]",163,l,0.3668017428499297,colour,0.5
74,68,1,1,3,46,146,234.77240956400783,235.63209903188545,"[43, 0, 211]",211,a,0.336392863344372,colour,0.5
74,68,1,1,3,47,147,236.14762544105906,237.0321162035907,"[80, 0, 174]",174,l,0.36115359182076645,colour,0.5
74,68,1,1,3,48,148,237.53830372724406,238.60016202840416,"[77, 0, 177]",177,l,0.538515222753631,colour,0.5
74,68,1,1,3,49,149,239.11654505346814,239.98413429216453,"[56, 0, 198]",198,a,0.34427333569328766,colour,0.5
74,68,1,1,3,50,150,240.4792598523636,241.56812459409412,"[71, 0, 183]",183,a,0.5655972818312875,colour,0.5
74,68,1,1,4,1,151,246.6754949959868,247.69609552507973,"[7, 0, 247]",247,a,0.496576096440549,colour,0.5
74,68,1,1,4,2,152,248.2076901657747,249.06413473327484,"[47, 0, 207]",207,a,0.3331408737321908,colour,0.5
74,68,1,1,4,3,153,249.58278867660192,250.4641353634288,"[99, 0, 155]",155,l,0.35808552847083774,colour,0.5
74,68,1,1,4,4,154,250.97389507381013,251.83212415928574,"[60, 0, 194]",194,a,0.33493484402424656,colour,0.5
74,68,1,1,4,5,155,252.34904320928035,253.21609169689327,"[38, 0, 216]",216,a,0.3437715754007513,colour,0.5
74,68,1,1,4,6,156,253.72407319083868,254.65614295993873,"[74, 0, 180]",180,l,0.4087148753023939,colour,0.5
74,68,1,1,4,7,157,255.17728286165584,256.0160968956625,"[27, 0, 227]",227,a,0.31562613107598736,colour,0.5
74,68,1,1,4,8,158,256.52292835816115,257.37612763143625,"[23, 0, 231]",231,a,0.32982823177735554,colour,0.5
74,68,1,1,4,9,159,257.8833816911065,258.72011818542524,"[56, 0, 198]",198,a,0.3133693912823219,colour,0.5
74,68,1,1,4,10,160,259.22723400501127,260.1201306309704,"[42, 0, 212]",212,a,0.36800612509978237,colour,0.5
74,68,1,1,4,11,161,260.63514110137476,261.5281283120021,"[13, 0, 241]",241,a,0.369846963109012,colour,0.5
74,68,1,1,4,12,162,262.04146769219005,262.9121840711996,"[5, 0, 249]",249,a,0.34733194673390244,colour,0.5
74,68,1,1,4,13,163,263.4322361691993,264.2801177285619,"[51, 0, 203]",203,a,0.32451327479066094,colour,0.5
74,68,1,1,4,14,164,264.79170094771325,265.63215062576273,"[20, 0, 234]",234,a,0.31722317817548173,colour,0.5
74,68,1,1,4,15,165,266.1511413077533,267.05612941162326,"[29, 0, 225]",225,a,0.38166629317129264,colour,0.5
74,68,1,1,4,16,166,267.57317449245966,268.4401213677047,"[90, 0, 164]",164,l,0.3439830709103262,colour,0.5
74,68,1,1,4,17,167,268.9482800925216,269.82437838240367,"[82, 0, 172]",172,l,0.35291747618612135,colour,0.5
74,68,1,1,4,18,168,270.34161881104956,271.2321456632999,"[77, 0, 177]",177,l,0.36711642611408024,colour,0.5
74,68,1,1,4,19,169,271.7479918757381,272.6161529793899,"[18, 0, 236]",236,a,0.34481132985820295,colour,0.5
74,68,1,1,4,20,170,273.12310023272585,273.99232550931265,"[32, 0, 222]",222,a,0.3458518720108259,colour,0.5
74,68,1,1,4,21,171,274.51385413741446,275.38411523000104,"[96, 0, 158]",158,l,0.3469286480321898,colour,0.5
74,68,1,1,4,22,172,275.9052748240392,276.74408491958457,"[72, 0, 182]",182,l,0.3155095525471552,colour,0.5
74,68,1,1,4,23,173,277.26470770099695,278.1201491417487,"[54, 0, 200]",200,a,0.33208851618474,colour,0.5
74,68,1,1,4,24,174,278.63985662416235,279.5602204909628,"[58, 0, 196]",196,a,0.40637779084499925,colour,0.5
74,68,1,1,4,25,175,280.06821616337766,280.9201496143651,"[64, 0, 190]",190,a,0.3287404280563351,colour,0.5
74,68,1,1,4,26,176,281.4276120187751,282.2961571226515,"[3, 0, 251]",251,a,0.34544345330505166,colour,0.5
74,68,1,1,4,27,177,282.80268492958567,283.64816796445666,"[52, 0, 202]",202,a,0.32204031332730665,colour,0.5
74,68,1,1,4,28,178,284.16226392355384,285.01610359105325,"[16, 0, 238]",238,a,0.33062813378637657,colour,0.5
74,68,1,1,4,29,179,285.53740103132805,286.8961474340322,"[50, 0, 204]",204,a,0.8354958782001631,colour,0.5
74,68,1,1,4,30,180,287.41250407138796,288.3044645244845,"[30, 0, 224]",224,a,0.36866069779352983,colour,0.5
74,68,1,1,4,31,181,288.8188507483683,289.7521115089403,"[11, 0, 243]",243,a,0.4098798729137343,colour,0.5
74,68,1,1,4,32,182,290.27208838228034,291.13618538506853,"[75, 0, 179]",179,l,0.340867745988362,colour,0.5
74,68,1,1,4,33,183,291.6472353362151,292.50410013780856,"[86, 0, 168]",168,l,0.33201289768112474,colour,0.5
74,68,1,1,4,34,184,293.02393010644664,293.9281411513948,"[69, 0, 185]",185,l,0.3809144404185645,colour,0.5
74,68,1,1,4,35,185,294.4458860972627,295.38421211621244,"[24, 0, 230]",230,a,0.41313540714691044,colour,0.5
74,68,1,1,4,36,186,295.89088131399694,296.79215308336643,"[36, 0, 218]",218,a,0.3779668940624106,colour,0.5
74,68,1,1,4,37,187,297.3129211940941,298.18418541342544,"[39, 0, 215]",215,a,0.3479750978804077,colour,0.5
74,68,1,1,4,38,188,298.7036258679873,299.6641837277639,"[68, 0, 186]",186,l,0.437354202989809,colour,0.5
74,68,1,1,4,39,189,300.1725129880688,301.0401518514118,"[8, 0, 246]",246,a,0.3443402895791223,colour,0.5
74,68,1,1,4,40,190,301.5476307973695,302.46413930189374,"[67, 0, 187]",187,l,0.39328121695507434,colour,0.5
74,68,1,1,4,41,191,302.9852209143464,303.9121045142274,"[66, 0, 188]",188,l,0.40373074927993,colour,0.5
74,68,1,1,4,42,192,304.42278897592405,305.32011952450193,"[45, 0, 209]",209,a,0.3743037288186315,colour,0.5
74,68,1,1,4,43,193,305.82918567139495,306.75217964436524,"[91, 0, 163]",163,l,0.3997540823147574,colour,0.5
74,68,1,1,4,44,194,307.2667946929978,308.13632913900074,"[95, 0, 159]",159,l,0.346276832260628,colour,0.5
74,68,1,1,4,45,195,308.6576624192967,309.5201407134373,"[26, 0, 228]",228,a,0.3394231174424931,colour,0.5
74,68,1,1,4,46,196,310.03269830854697,310.9201248020436,"[48, 0, 206]",206,a,0.3641621843671601,colour,0.5
74,68,1,1,4,47,197,311.4390993363304,312.3361770355259,"[41, 0, 213]",213,a,0.37391421474239905,colour,0.5
74,68,1,1,4,48,198,312.8453436132513,313.7281621040238,"[1, 0, 253]",253,a,0.3595266123993497,colour,0.5
74,68,1,1,4,49,199,314.23608412716567,315.16015802692345,"[61, 0, 193]",193,a,0.4007497259808588,colour,0.5
74,68,1,1,4,50,200,315.6737159918557,316.632123450363,"[57, 0, 197]",197,l,0.43548697727237595,colour,0.5
74,68,1,1,5,1,201,321.5796512962879,322.4081477365071,"[58, 0, 196]",196,a,0.30345745927479584,colour,0.4
74,68,1,1,5,2,202,322.92529482355894,323.75216507204823,"[23, 0, 231]",231,a,0.3036346901462821,colour,0.4
74,68,1,1,5,3,203,324.2690963312816,325.1121851739699,"[13, 0, 241]",241,a,0.31974143197294325,colour,0.4
74,68,1,1,5,4,204,325.6285441744003,326.47215880201475,"[88, 0, 166]",166,l,0.3310397032619221,colour,0.4
74,68,1,1,5,5,205,326.9928509003912,327.94425065014366,"[59, 0, 195]",195,a,0.42902198883894016,colour,0.4
74,68,1,1,5,6,206,328.46163365118264,329.3121145966943,"[96, 0, 158]",158,l,0.32718197790381964,colour,0.4
74,68,1,1,5,7,207,329.8211638081957,330.66424713703236,"[69, 0, 185]",185,l,0.3198150812459062,colour,0.4
74,68,1,1,5,8,208,331.18050137432874,331.8963549910768,"[82, 0, 172]",172,l,0.1921903412330721,colour,0.4
74,68,1,1,5,9,209,332.41498372823844,333.2641850668406,"[35, 0, 219]",219,a,0.32625840812761453,colour,0.4
74,68,1,1,5,10,210,333.7745012821688,334.6481778106172,"[28, 0, 226]",226,a,0.3496733635001874,colour,0.4
74,68,1,1,5,11,211,335.16598340882774,336.20819035068416,"[66, 0, 188]",188,a,0.5189245157926052,colour,0.4
74,68,1,1,5,12,212,336.72855555656133,337.60015612070856,"[16, 0, 238]",238,a,0.3482763903666637,colour,0.4
74,68,1,1,5,13,213,338.1193110366403,338.9923467770168,"[67, 0, 187]",187,l,0.3497584343167546,colour,0.4
74,68,1,1,5,14,214,339.5100633659458,340.352141992651,"[39, 0, 215]",215,a,0.3188777268442209,colour,0.4
74,68,1,1,5,15,215,340.869486396743,341.71222707922425,"[60, 0, 194]",194,l,0.3194188717789075,colour,0.4
74,68,1,1,5,16,216,342.22903073222915,343.0882168644239,"[86, 0, 168]",168,l,0.3358631399569276,colour,0.4
74,68,1,1,5,17,217,343.6041509046081,344.4402119523729,"[49, 0, 205]",205,a,0.31279673863900825,colour,0.4
74,68,1,1,5,18,218,344.9480095200561,345.86419743361694,"[8, 0, 246]",246,a,0.3928964290316799,colour,0.4
74,68,1,1,5,19,219,346.3856232678154,347.23223979258546,"[87, 0, 167]",167,l,0.32341326183086494,colour,0.4
74,68,1,1,5,20,220,347.74607620691313,348.6481648136869,"[53, 0, 201]",201,a,0.37880657455752953,colour,0.4
74,68,1,1,5,21,221,349.16810899777556,350.0722050395816,"[31, 0, 223]",223,a,0.3809002619491366,colour,0.4
74,68,1,1,5,22,222,350.5901094932342,351.45618911873316,"[37, 0, 217]",217,a,0.34122023850432015,colour,0.4
74,68,1,1,5,23,223,351.966806626544,352.82435475161765,"[79, 0, 175]",175,l,0.3343129605782451,colour,0.4
74,68,1,1,5,24,224,353.3418523619548,354.13619404968995,"[32, 0, 222]",222,a,0.2710155447239231,colour,0.4
74,68,1,1,5,25,225,354.65449550050107,355.39216584398673,"[15, 0, 239]",239,a,0.2144532959209755,colour,0.4
74,68,1,1,5,26,226,355.90457495901137,356.70424578220263,"[51, 0, 203]",203,a,0.2763738248140726,colour,0.4
74,68,1,1,5,27,227,357.21710624518164,358.02418807582944,"[78, 0, 176]",176,l,0.283641472182353,colour,0.4
74,68,1,1,5,28,228,358.5455122976564,359.55235104631356,"[63, 0, 191]",191,a,0.4836240641743643,colour,0.4
74,68,1,1,5,29,229,360.061180097684,360.8482096334046,"[91, 0, 163]",163,l,0.26391213129682,colour,0.4
74,68,1,1,5,30,230,361.35820092546055,362.23222088795956,"[93, 0, 161]",161,l,0.3600378250084759,colour,0.4
74,68,1,1,5,31,231,362.7396139754019,363.4961956408297,"[9, 0, 245]",245,a,0.23334098708073725,colour,0.4
74,68,1,1,5,32,232,364.00597858814945,364.7761983662458,"[43, 0, 211]",211,a,0.24698185667875805,colour,0.4
74,68,1,1,5,33,233,365.2873865574729,366.0241955589081,"[36, 0, 218]",218,a,0.21346474148958805,colour,0.4
74,68,1,1,5,34,234,366.5374341144234,367.0962198229972,"[95, 0, 159]",159,l,0.03546468556669424,colour,0.4
74,68,1,1,5,35,235,367.6156701237196,368.5841860435794,"[71, 0, 183]",183,l,0.44510234295012197,colour,0.4
74,68,1,1,5,36,236,369.10017364687155,369.89615649249754,"[6, 0, 248]",248,a,0.272693724175042,colour,0.4
74,68,1,1,5,37,237,370.41276085923164,371.2162433277517,"[80, 0, 174]",174,l,0.28010906394410995,colour,0.4
74,68,1,1,5,38,238,371.72568323486485,372.49624565932027,"[54, 0, 200]",200,a,0.24760570935541182,colour,0.4
74,68,1,1,5,39,239,373.0157101385121,373.8242169053847,"[65, 0, 189]",189,a,0.2850664084107848,colour,0.4
74,68,1,1,5,40,240,374.34396219705013,375.13620113892466,"[73, 0, 181]",181,l,0.269091211277555,colour,0.4
74,68,1,1,5,41,241,375.65657619096237,376.24016752649914,"[22, 0, 232]",232,a,0.06066337122319965,colour,0.4
74,68,1,1,5,42,242,376.7503561355952,377.4083320566133,"[85, 0, 169]",169,l,0.13456707026489312,colour,0.4
74,68,1,1,5,43,243,377.9098966113852,378.56022088480677,"[20, 0, 234]",234,a,0.12705878275301075,colour,0.4
74,68,1,1,5,44,244,379.06626465453155,379.6802451772528,"[57, 0, 197]",197,l,0.09063823200631305,colour,0.4
74,68,1,1,5,45,245,380.1913924084547,381.60027781924146,"[10, 0, 244]",244,a,0.8856624555301096,colour,0.4
74,68,1,1,5,46,246,382.11340294699403,382.7362095672397,"[74, 0, 180]",180,l,0.09950528955596383,colour,0.4
74,68,1,1,5,47,247,383.25411205166165,383.8401633517278,"[55, 0, 199]",199,a,0.06272830782836536,colour,0.4
74,68,1,1,5,48,248,384.34788923936867,385.024208949686,"[90, 0, 164]",164,l,0.1529628472890181,colour,0.4
74,68,1,1,5,49,249,385.53557200870637,386.08022847816756,"[5, 0, 249]",249,a,0.021382314171205508,colour,0.4
74,68,1,1,5,50,250,386.59810851334623,387.2242080832257,"[70, 0, 184]",184,l,0.102860073075135,colour,0.4
74,68,1,1,6,1,251,393.20922892360613,394.3202152291742,"[68, 0, 186]",186,a,0.5872261438380519,colour,0.28
74,68,1,1,6,2,252,394.8351552010754,395.6722323725189,"[65, 0, 189]",189,a,0.3140952501744323,colour,0.28
74,68,1,1,6,3,253,396.1790311457662,397.04831786239083,"[63, 0, 191]",191,a,0.34365499686828116,colour,0.28
74,68,1,1,6,4,254,397.5584733883916,398.08826451983623,"[28, 0, 226]",226,a,0.006562268492416479,colour,0.28
74,68,1,1,6,5,255,398.6053505607015,399.22442391104414,"[57, 0, 197]",197,a,0.09532736708570155,colour,0.28
74,68,1,1,6,6,256,399.74606399767436,400.400202279503,"[96, 0, 158]",158,l,0.1308786988556676,colour,0.28
74,68,1,1,6,7,257,400.9180787700643,401.5442409615207,"[85, 0, 169]",169,l,0.10294317466104985,colour,0.28
74,68,1,1,6,8,258,402.0587366746986,402.64825776143334,"[80, 0, 174]",174,l,0.06622802681886242,colour,0.28
74,68,1,1,6,9,259,403.16814011164024,403.7682241584589,"[60, 0, 194]",194,a,0.07671733762981603,colour,0.28
74,68,1,1,6,10,260,404.27766997327126,404.89626046794365,"[54, 0, 200]",200,a,0.09556761338171782,colour,0.28
74,68,1,1,6,11,261,405.40271147483145,405.96821029506464,"[90, 0, 164]",164,l,0.04217700953086023,colour,0.28
74,68,1,1,6,12,262,406.48094787797527,407.14422300212755,"[76, 0, 178]",178,l,0.13992141189373797,colour,0.28
74,68,1,1,6,13,263,407.6529528042047,408.27236407474993,"[89, 0, 165]",165,l,0.09611821062935633,colour,0.28
74,68,1,1,6,14,264,408.7842722171699,409.43222474765207,"[74, 0, 180]",180,l,0.13369903283091844,colour,0.28
74,68,1,1,6,15,265,409.947180867257,410.6242488857097,"[75, 0, 179]",179,l,0.15385648473966285,colour,0.28
74,68,1,1,6,16,266,411.1348147996432,411.76020702141614,"[35, 0, 219]",219,a,0.1021826572905411,colour,0.28
74,68,1,1,6,17,267,412.27549121505945,412.9202634359717,"[2, 0, 252]",252,a,0.12148821946539101,colour,0.28
74,68,1,1,6,18,268,413.4329281573009,414.1201782863827,"[22, 0, 232]",232,a,0.16398306303017307,colour,0.28
74,68,1,1,6,19,269,414.63611626502825,415.28022249169953,"[6, 0, 248]",248,a,0.12088248371946975,colour,0.28
74,68,1,1,6,20,270,415.79418651225933,416.40819066576296,"[78, 0, 176]",176,l,0.09081664442055626,colour,0.28
74,68,1,1,6,21,271,416.91934380466046,417.5602090694156,"[77, 0, 177]",177,l,0.11760489409061847,colour,0.28
74,68,1,1,6,22,272,418.07571302934593,418.6722244955927,"[95, 0, 159]",159,l,0.0732680309774878,colour,0.28
74,68,1,1,6,23,273,419.1851905094045,419.76825409078447,"[61, 0, 193]",193,a,0.06012222628851305,colour,0.28
74,68,1,1,6,24,274,420.2790181094497,420.91225614508585,"[73, 0, 181]",181,l,0.10997963420231827,colour,0.28
74,68,1,1,6,25,275,421.4196933433268,421.9842422060756,"[83, 0, 171]",171,l,0.04123729205457494,colour,0.28
74,68,1,1,6,26,276,422.49800142651293,423.2642260268658,"[66, 0, 188]",188,l,0.242912241967133,colour,0.28
74,68,1,1,6,27,277,423.7793916727496,424.3122260552227,"[29, 0, 225]",225,a,0.00955628872179659,colour,0.28
74,68,1,1,6,28,278,424.82689269773255,425.46425469888345,"[88, 0, 166]",166,l,0.11413510742931976,colour,0.28
74,68,1,1,6,29,279,425.98330603321665,426.5122744195578,"[87, 0, 167]",167,l,0.0056934433632704895,colour,0.28
74,68,1,1,6,30,280,427.0301749347491,427.6322376658136,"[23, 0, 231]",231,a,0.07870232341520023,colour,0.28
74,68,1,1,6,31,281,428.1396839225199,428.7681977707507,"[79, 0, 175]",175,l,0.10523299755368498,colour,0.28
74,68,1,1,6,32,282,429.28254185307014,429.9522524271779,"[69, 0, 185]",185,l,0.1464884065426304,colour,0.28
74,68,1,1,6,33,283,430.4700426653799,431.0010736252516,"[17, 0, 237]",237,a,0.00766464453045046,colour,0.28
74,68,1,1,6,34,284,431.533754013788,432.1042503508179,"[86, 0, 168]",168,l,0.04736514798059943,colour,0.28
74,68,1,1,6,35,285,432.61180491528285,433.2002574967664,"[93, 0, 161]",161,l,0.06520678313609096,colour,0.28
74,68,1,1,6,36,286,433.7213095707448,434.44822712018504,"[70, 0, 184]",184,l,0.20362409568042494,colour,0.28
74,68,1,1,6,37,287,434.9558001954283,435.5605446265363,"[82, 0, 172]",172,l,0.08144703888319782,colour,0.28
74,68,1,1,6,38,288,436.08091022626104,436.69634010368463,"[53, 0, 201]",201,a,0.09219077446323354,colour,0.28
74,68,1,1,6,39,289,437.20595015243816,438.5282468597652,"[81, 0, 173]",173,l,0.798981198167894,colour,0.28
74,68,1,1,6,40,290,439.04985268176097,439.68823080658694,"[5, 0, 249]",249,a,0.11508742799196625,colour,0.28
74,68,1,1,6,41,291,440.206213241825,440.9362358761755,"[43, 0, 211]",211,a,0.20673666366928956,colour,0.28
74,68,1,1,6,42,292,441.45628915571433,442.1442541159922,"[14, 0, 240]",240,a,0.1646179434064834,colour,0.28
74,68,1,1,6,43,293,442.65952806963105,443.3042022227892,"[97, 0, 157]",157,l,0.12134722245536977,colour,0.28
74,68,1,1,6,44,294,443.8158803589213,444.4001916456509,"[30, 0, 224]",224,a,0.060926066762476694,colour,0.28
74,68,1,1,6,45,295,444.9096796020276,445.5922268114082,"[67, 0, 187]",187,l,0.15926635870346217,colour,0.28
74,68,1,1,6,46,296,446.1129126082451,446.74422552274336,"[4, 0, 250]",250,a,0.10798637764310115,colour,0.28
74,68,1,1,6,47,297,447.25367251909483,447.97621994902875,"[56, 0, 198]",198,l,0.1993315639119828,colour,0.28
74,68,1,1,6,48,298,448.48812178990556,449.136263366654,"[84, 0, 170]",170,l,0.12482843066754867,colour,0.28
74,68,1,1,6,49,299,449.6444945592084,450.30422152126266,"[37, 0, 217]",217,a,0.13660876993526472,colour,0.28
74,68,1,1,6,50,300,450.81644040848187,451.4082572258012,"[98, 0, 156]",156,l,0.06854384356847731,colour,0.28
74,68,1,1,7,1,301,456.47233366981163,457.04831156084765,"[53, 0, 201]",201,a,0.05190107681482914,colour,0.14
74,68,1,1,7,2,302,457.56757990453843,458.2642551714998,"[54, 0, 200]",200,a,0.17342513630137546,colour,0.14
74,68,1,1,7,3,303,458.77078494766465,459.4015413572197,"[93, 0, 161]",161,l,0.11100836096738931,colour,0.14
74,68,1,1,7,4,304,459.9078836625049,460.50440930722107,"[33, 0, 221]",221,a,0.07318217246574932,colour,0.14
74,68,1,1,7,5,305,461.01737413949377,461.63224829966566,"[50, 0, 204]",204,a,0.09226599912290112,colour,0.14
74,68,1,1,7,6,306,462.1425700288419,462.73626431188677,"[57, 0, 197]",197,a,0.07076789411439677,colour,0.14
74,68,1,1,7,7,307,463.2519884319445,463.84828091959935,"[61, 0, 193]",193,a,0.0730017908172158,colour,0.14
74,68,1,1,7,8,308,464.36144543199407,464.9042472788169,"[98, 0, 156]",156,l,0.019633636213256977,colour,0.14
74,68,1,1,7,9,309,465.4239232535183,466.0083908972665,"[77, 0, 177]",177,l,0.0610906945548777,colour,0.14
74,68,1,1,7,10,310,466.51780756744483,467.1682157301475,"[69, 0, 185]",185,l,0.12713558280302095,colour,0.14
74,68,1,1,7,11,311,467.68985069677365,468.2643615100242,"[41, 0, 213]",213,a,0.05127092259863275,colour,0.14
74,68,1,1,7,12,312,468.78364915218845,469.376233576113,"[76, 0, 178]",178,l,0.06937170867240638,colour,0.14
74,68,1,1,7,13,313,469.89330622620037,470.4882033161084,"[70, 0, 184]",184,l,0.07188523631339194,colour,0.14
74,68,1,1,7,14,314,471.0025698476711,471.53634040300676,"[83, 0, 171]",171,l,0.010504670819500461,colour,0.14
74,68,1,1,7,15,315,472.0496214939303,472.6322549950564,"[58, 0, 196]",196,a,0.059396761243988294,colour,0.14
74,68,1,1,7,16,316,473.1433994693325,473.7362635241916,"[86, 0, 168]",168,l,0.06964976422386826,colour,0.14
74,68,1,1,7,17,317,474.2527753370232,474.84030198565597,"[89, 0, 165]",165,l,0.06416230252216337,colour,0.14
74,68,1,1,7,18,318,475.3469806357534,475.9362272115577,"[66, 0, 188]",188,a,0.06628907300910214,colour,0.14
74,68,1,1,7,19,319,476.4561316171603,477.0882444336712,"[99, 0, 155]",155,l,0.10869451344478875,colour,0.14
74,68,1,1,7,20,320,477.59686002029775,478.2562750560137,"[73, 0, 181]",181,a,0.13613300349970814,colour,0.14
74,68,1,1,7,21,321,478.7688228049665,479.3282217323649,"[67, 0, 187]",187,l,0.036305547600932186,colour,0.14
74,68,1,1,7,22,322,479.84705251271953,481.6002699423152,"[91, 0, 163]",163,l,1.229884591193695,colour,0.14
74,68,1,1,7,23,323,482.11282674973336,482.8002127558175,"[65, 0, 189]",189,a,0.16406498307696893,colour,0.14
74,68,1,1,7,24,324,483.316007768226,483.8403457026034,"[90, 0, 164]",164,l,0.0009680744151410181,colour,0.14
74,68,1,1,7,25,325,484.36301136522525,484.92830026533557,"[75, 0, 179]",179,a,0.04185563088321942,colour,0.14
74,68,1,1,7,26,326,485.44432567787953,485.99222704771455,"[79, 0, 175]",175,l,0.024735128456086386,colour,0.14
74,68,1,1,7,27,327,486.50690668715833,487.6802668388045,"[92, 0, 162]",162,l,0.6500080147743574,colour,0.14
74,68,1,1,7,28,328,488.194557358016,489.03227964984035,"[96, 0, 158]",158,l,0.3146840505214641,colour,0.14
74,68,1,1,7,29,329,489.5394978694894,490.06429857337207,"[59, 0, 195]",195,a,0.0015742040086479392,colour,0.14
74,68,1,1,7,30,330,490.5864030048906,491.2722679762337,"[97, 0, 157]",157,l,0.16258727143576834,colour,0.14
74,68,1,1,7,31,331,491.7896517649642,492.3762918653774,"[26, 0, 228]",228,a,0.06339666514395503,colour,0.14
74,68,1,1,7,32,332,492.88346400500086,493.5443193369538,"[74, 0, 180]",180,l,0.13763749669669778,colour,0.14
74,68,1,1,7,33,333,494.05540394657874,494.68026250649564,"[63, 0, 191]",191,a,0.10156550000465359,colour,0.14
74,68,1,1,7,34,334,495.1961583435768,495.832258460905,"[85, 0, 169]",169,l,0.11289842977566877,colour,0.14
74,68,1,1,7,35,335,496.3524267435896,496.8882330908964,"[18, 0, 236]",236,a,0.01251998278166866,colour,0.14
74,68,1,1,7,36,336,497.3994267959679,497.96032549040683,"[51, 0, 203]",203,a,0.03758948681934271,colour,0.14
74,68,1,1,7,37,337,498.47766004834193,499.00826132180373,"[60, 0, 194]",194,a,0.007414158226310974,colour,0.14
74,68,1,1,7,38,338,499.52459393452955,500.8242578654099,"[68, 0, 186]",186,a,0.775748593674507,colour,0.14
74,68,1,1,7,39,339,501.33784064266365,501.88831304171254,"[88, 0, 166]",166,l,0.039524454121419694,colour,0.14
74,68,1,1,7,40,340,502.40370593695843,503.00037927407175,"[72, 0, 182]",182,a,0.07346416647851584,colour,0.14
74,68,1,1,7,41,341,503.51315112161683,504.09633876460794,"[71, 0, 183]",183,a,0.05995523542151204,colour,0.14
74,68,1,1,7,42,342,504.60695627241876,505.20029412448275,"[10, 0, 244]",244,a,0.07035514310337021,colour,0.14
74,68,1,1,7,43,343,505.71644320479027,506.30427153975324,"[80, 0, 174]",174,l,0.06449116425210377,colour,0.14
74,68,1,1,7,44,344,506.8103476048818,507.3763088007727,"[35, 0, 219]",219,a,0.04282882530242205,colour,0.14
74,68,1,1,7,45,345,507.8886127588121,508.4563143618834,"[31, 0, 223]",223,a,0.044500309366412694,colour,0.14
74,68,1,1,7,46,346,508.96675897113164,509.5362868398988,"[64, 0, 190]",190,a,0.0463348458360997,colour,0.14
74,68,1,1,7,47,347,510.04501585428807,510.6002916038633,"[78, 0, 176]",176,l,0.029638515970873414,colour,0.14
74,68,1,1,7,48,348,511.1099508834159,511.77635157249097,"[55, 0, 199]",199,l,0.14310999223744147,colour,0.14
74,68,1,1,7,49,349,512.2976541327698,512.8563086904978,"[52, 0, 202]",202,a,0.03540403322404018,colour,0.14
74,68,1,1,7,50,350,513.3690226426224,513.9522992948987,"[81, 0, 173]",173,l,0.05993278617825126,colour,0.14
74,68,1,1,8,1,351,519.290074165212,520.3522814142707,"[54, 0, 200]",200,a,0.5379835301318963,colour,0.06
74,68,1,1,8,2,352,520.8691315411488,521.7523438783064,"[66, 0, 188]",188,a,0.35988973876374075,colour,0.06
74,68,1,1,8,3,353,522.2598523627457,522.8642872305936,"[85, 0, 169]",169,l,0.0811449587054085,colour,0.06
74,68,1,1,8,4,354,523.3849840551302,524.112333654055,"[88, 0, 166]",166,l,0.20406126516900258,colour,0.06
74,68,1,1,8,5,355,524.6194593198052,525.2243203294456,"[59, 0, 195]",195,a,0.08159748820617096,colour,0.06
74,68,1,1,8,6,356,525.7445331167692,526.3523172542918,"[62, 0, 192]",192,a,0.08467145925169461,colour,0.06
74,68,1,1,8,7,357,526.8705139419653,527.4802759760387,"[99, 0, 155]",155,l,0.0873318915910204,colour,0.06
74,68,1,1,8,8,358,527.997446300029,529.1282860080973,"[55, 0, 199]",199,a,0.6076360512815882,colour,0.06
74,68,1,1,8,9,359,529.6381689923946,530.5523301724534,"[90, 0, 164]",164,l,0.3908933263119252,colour,0.06
74,68,1,1,8,10,360,531.0601584601573,531.7523155213676,"[75, 0, 179]",179,a,0.16891283824952552,colour,0.06
74,68,1,1,8,11,361,532.2634265187007,532.9282856930186,"[83, 0, 171]",171,l,0.14165788060927298,colour,0.06
74,68,1,1,8,12,362,533.4353227433312,533.9762979306142,"[63, 0, 191]",191,a,0.01765495197105338,colour,0.06
74,68,1,1,8,13,363,534.4979183249234,535.1923785998042,"[84, 0, 170]",170,l,0.17115224880399182,colour,0.06
74,68,1,1,8,14,364,535.7010477495423,536.272295939325,"[82, 0, 172]",172,l,0.04778971438645385,colour,0.06
74,68,1,1,8,15,365,536.7793739496628,537.3203247184683,"[70, 0, 184]",184,a,0.01768645967968041,colour,0.06
74,68,1,1,8,16,366,537.8281069261429,538.5283157828817,"[76, 0, 178]",178,a,0.17707175999385072,colour,0.06
74,68,1,1,8,17,367,539.0470441631769,539.6563276738925,"[86, 0, 168]",168,l,0.0861227831846918,colour,0.06
74,68,1,1,8,18,368,540.1720514001063,540.7122991531141,"[68, 0, 186]",186,a,0.01686686534958426,colour,0.06
74,68,1,1,8,19,369,541.2196733359306,543.1202743849026,"[58, 0, 196]",196,l,1.3772382782481145,colour,0.06
74,68,1,1,8,20,370,543.6417384221968,544.3603217882519,"[77, 0, 177]",177,l,0.1953379615515587,colour,0.06
74,68,1,1,8,21,371,544.8761644560727,545.4803192991421,"[98, 0, 156]",156,l,0.08084090929696686,colour,0.06
74,68,1,1,8,22,372,546.0012087145624,546.5442941307847,"[93, 0, 161]",161,l,0.01958637464849744,colour,0.06
74,68,1,1,8,23,373,547.0638145361627,548.1682787455684,"[95, 0, 159]",159,l,0.5811573648679769,colour,0.06
74,68,1,1,8,24,374,548.6890429178347,549.5123224688177,"[89, 0, 165]",165,l,0.29998058337150724,colour,0.06
74,68,1,1,8,25,375,550.0329617917814,550.6083177993751,"[61, 0, 193]",193,a,0.052087366155319614,colour,0.06
74,68,1,1,8,26,376,551.1267452810316,552.1042980062302,"[69, 0, 185]",185,a,0.45435655149412923,colour,0.06
74,68,1,1,8,27,377,552.6111704287541,553.5047054797033,"[52, 0, 202]",202,a,0.3703900772779889,colour,0.06
74,68,1,1,8,28,378,554.0174970195694,554.9604593981785,"[81, 0, 173]",173,l,0.4198461557243718,colour,0.06
74,68,1,1,8,29,379,555.4708827397226,556.0962852015,"[51, 0, 203]",203,a,0.10216454035617062,colour,0.06
74,68,1,1,8,30,380,556.6115181951136,557.5042939102277,"[72, 0, 182]",182,a,0.3697985200014955,colour,0.06
74,68,1,1,8,31,381,558.0178711736335,558.7363316596166,"[78, 0, 176]",176,l,0.19521823224931723,colour,0.06
74,68,1,1,8,32,382,559.254317245628,560.0723338273492,"[71, 0, 183]",183,a,0.2947365187392279,colour,0.06
74,68,1,1,8,33,383,560.582628381122,561.1683677548499,"[94, 0, 160]",160,a,0.0627491816849215,colour,0.06
74,68,1,1,8,34,384,561.6651797652776,562.5763055712341,"[53, 0, 201]",201,a,0.3877933614057838,colour,0.06
74,68,1,1,8,35,385,563.0871928638189,563.6563158585013,"[56, 0, 198]",198,a,0.04583663015728234,colour,0.06
74,68,1,1,8,36,386,564.1654158761849,565.0322934344622,"[33, 0, 221]",221,a,0.3435553537310625,colour,0.06
74,68,1,1,8,37,387,565.5405041470076,566.216353998585,"[80, 0, 174]",174,l,0.15254143165657297,colour,0.06
74,68,1,1,8,38,388,566.7283389410513,567.6483451953318,"[73, 0, 181]",181,a,0.3968656129181909,colour,0.06
74,68,1,1,8,39,389,568.1659664734325,569.1043275447119,"[23, 0, 231]",231,a,0.4274997725551657,colour,0.06
74,68,1,1,8,40,390,569.6224450692607,570.2083707323291,"[22, 0, 232]",232,a,0.06298785259423312,colour,0.06
74,68,1,1,8,41,391,570.7054253521273,571.576304783539,"[64, 0, 190]",190,a,0.3475840084174706,colour,0.06
74,68,1,1,8,42,392,572.0961119090898,572.984368236921,"[87, 0, 167]",167,l,0.3650444002742006,colour,0.06
74,68,1,1,8,43,393,573.5025479891992,574.4802952745122,"[57, 0, 197]",197,a,0.4545542623818619,colour,0.06
74,68,1,1,8,44,394,574.9870408784991,575.8483789873499,"[67, 0, 187]",187,a,0.338100187429518,colour,0.06
74,68,1,1,8,45,395,576.3620874016015,577.3603265144084,"[74, 0, 180]",180,l,0.4749917390727205,colour,0.06
74,68,1,1,8,46,396,577.8778268816714,578.7682958385012,"[79, 0, 175]",175,l,0.3673074416074087,colour,0.06
74,68,1,1,8,47,397,579.2841377186305,580.176612141262,"[96, 0, 158]",158,l,0.3691120457551733,colour,0.06
74,68,1,1,8,48,398,580.6906037310655,581.6403800460103,"[92, 0, 162]",162,l,0.4265277596714441,colour,0.06
74,68,1,1,8,49,399,582.1594361064963,583.0723680919837,"[50, 0, 204]",204,a,0.39771474572626175,colour,0.06
74,68,1,1,8,50,400,583.589176471145,584.6403599598452,"[65, 0, 189]",189,a,0.5280105519341305,colour,0.06
74,68,1,1,9,1,401,589.2637861004514,590.2483146328523,"[43, 0, 211]",211,a,0.4605064628231048,colour,0.06
74,68,1,1,9,2,402,590.7647378302463,591.6483251091631,"[80, 0, 174]",174,l,0.3606396222821786,colour,0.06
74,68,1,1,9,3,403,592.1554543195307,593.0403546823036,"[66, 0, 188]",188,a,0.36165653365605976,colour,0.06
74,68,1,1,9,4,404,593.5618399873019,594.4322991846202,"[93, 0, 161]",161,l,0.347443405258673,colour,0.06
74,68,1,1,9,5,405,594.9525048827127,595.8723520230524,"[87, 0, 167]",167,l,0.3966025235313282,colour,0.06
74,68,1,1,9,6,406,596.3901406858677,597.3123477537556,"[60, 0, 194]",194,a,0.3989084941240435,colour,0.06
74,68,1,1,9,7,407,597.8277493136229,598.7683478262261,"[89, 0, 165]",165,l,0.4163551013552933,colour,0.06
74,68,1,1,9,8,408,599.2820499389345,600.1523086684429,"[62, 0, 192]",192,a,0.3469692142098211,colour,0.06
74,68,1,1,9,9,409,600.6727282251195,601.6403761075453,"[57, 0, 197]",197,a,0.44269042768064537,colour,0.06
74,68,1,1,9,10,410,602.15896624776,603.1923187351531,"[74, 0, 180]",180,a,0.5100365843900363,colour,0.06
74,68,1,1,9,11,411,603.7065269404702,604.5923768668799,"[61, 0, 193]",193,a,0.36262815268855775,colour,0.06
74,68,1,1,9,12,412,605.112872829759,606.0083597834018,"[81, 0, 173]",173,l,0.38141147455826285,colour,0.06
74,68,1,1,9,13,413,606.5256419597645,607.4883179254066,"[52, 0, 202]",202,a,0.43943016729463125,colour,0.06
74,68,1,1,9,14,414,607.9944640951908,609.0083270941504,"[63, 0, 191]",191,a,0.49101774238442886,colour,0.06
74,68,1,1,9,15,415,609.525822735257,610.6003817946876,"[92, 0, 162]",162,l,0.5512695441357209,colour,0.06
74,68,1,1,9,16,416,611.1196946430209,612.0323418775697,"[69, 0, 185]",185,a,0.3896282917194185,colour,0.06
74,68,1,1,9,17,417,612.5417605169787,613.5443701431359,"[59, 0, 195]",195,a,0.4793728862750868,colour,0.06
74,68,1,1,9,18,418,614.0574692770278,614.984500569306,"[98, 0, 156]",156,l,0.40381778933442547,colour,0.06
74,68,1,1,9,19,419,615.4841242490838,616.3763966285187,"[68, 0, 186]",186,a,0.369143947311386,colour,0.06
74,68,1,1,9,20,420,616.8903110244319,617.9203386606314,"[88, 0, 166]",166,l,0.5066530500844237,colour,0.06
74,68,1,1,9,21,421,618.4373187568162,619.3363956202702,"[71, 0, 183]",183,a,0.3757904989288363,colour,0.06
74,68,1,1,9,22,422,619.8436685845663,620.7763385755607,"[72, 0, 182]",182,a,0.4095013865371584,colour,0.06
74,68,1,1,9,23,423,621.2968849507743,622.2403687820042,"[65, 0, 189]",189,a,0.4201966790096776,colour,0.06
74,68,1,1,9,24,424,622.750177723181,623.7043773268924,"[40, 0, 214]",214,a,0.43088645763054956,colour,0.06
74,68,1,1,9,25,425,624.2190144309243,625.1124778018348,"[56, 0, 198]",198,a,0.3702081202463887,colour,0.06
74,68,1,1,9,26,426,625.6252803693969,626.5123275888218,"[99, 0, 155]",155,l,0.36362458404983045,colour,0.06
74,68,1,1,9,27,427,627.0317648926139,627.8883622725116,"[73, 0, 181]",181,a,0.33331574152907706,colour,0.06
74,68,1,1,9,28,428,628.4068125972553,629.4323405384894,"[75, 0, 179]",179,l,0.5021108197070134,colour,0.06
74,68,1,1,9,29,429,629.953940058942,630.824372868552,"[53, 0, 201]",201,a,0.34732682672620285,colour,0.06
74,68,1,1,9,30,430,631.344617951283,632.2405180497844,"[55, 0, 199]",199,a,0.37276418329565786,colour,0.06
74,68,1,1,9,31,431,632.7539992146703,633.6403942244797,"[85, 0, 169]",169,l,0.3661243270653358,colour,0.06
74,68,1,1,9,32,432,634.1573357237176,635.1443029529437,"[78, 0, 176]",176,l,0.46366274776664795,colour,0.06
74,68,1,1,9,33,433,635.6574702222606,636.560315014096,"[70, 0, 184]",184,a,0.3795824519402231,colour,0.06
74,68,1,1,9,34,434,637.0813284911237,638.0083133095286,"[95, 0, 159]",159,l,0.40374847237035283,colour,0.06
74,68,1,1,9,35,435,638.5189686265912,639.4083694720211,"[67, 0, 187]",187,a,0.3661227516786312,colour,0.06
74,68,1,1,9,36,436,639.925711119191,640.8163498238137,"[58, 0, 196]",196,a,0.3668655459623551,colour,0.06
74,68,1,1,9,37,437,641.3320518884757,642.1923931721212,"[94, 0, 160]",160,l,0.33686154054521467,colour,0.06
74,68,1,1,9,38,438,642.7072035685633,643.5763378666379,"[51, 0, 203]",203,a,0.3457652258075541,colour,0.06
74,68,1,1,9,39,439,644.0979279347775,644.9923672570294,"[96, 0, 158]",158,l,0.3712041577564378,colour,0.06
74,68,1,1,9,40,440,645.5043813441262,646.4323436892628,"[91, 0, 163]",163,l,0.4047208790980221,colour,0.06
74,68,1,1,9,41,441,646.9419289256948,647.8003257897326,"[15, 0, 239]",239,a,0.33500691791414283,colour,0.06
74,68,1,1,9,42,442,648.3170857257865,649.1683776010104,"[82, 0, 172]",172,l,0.32803386763771414,colour,0.06
74,68,1,1,9,43,443,649.6764575565539,650.6003691916048,"[84, 0, 170]",170,l,0.4006130612870038,colour,0.06
74,68,1,1,9,44,444,651.1141024181779,651.9203414175572,"[64, 0, 190]",190,a,0.28286323172505945,colour,0.06
74,68,1,1,9,45,445,652.4266860859207,653.2563644591464,"[90, 0, 164]",164,l,0.30630969480625936,colour,0.06
74,68,1,1,9,46,446,653.7706979076138,654.6484381430782,"[83, 0, 171]",171,l,0.3544830155733507,colour,0.06
74,68,1,1,9,47,447,655.1613060891395,656.0403617715383,"[97, 0, 157]",157,l,0.3558055517387402,colour,0.06
74,68,1,1,9,48,448,656.5521600308166,657.440389577092,"[76, 0, 178]",178,a,0.3650633049001044,colour,0.06
74,68,1,1,9,49,449,657.9595125914675,658.936377660877,"[77, 0, 177]",177,a,0.4535649202625791,colour,0.06
74,68,1,1,9,50,450,659.4469270332629,660.3283706063012,"[54, 0, 200]",200,a,0.3581166423355171,colour,0.06
74,68,1,1,10,1,451,664.937594252362,665.8003738389889,"[4, 0, 250]",250,a,0.3365102295683755,colour,0.06
74,68,1,1,10,2,452,666.3157100203571,667.1523515976987,"[93, 0, 161]",161,l,0.31336112050848897,colour,0.06
74,68,1,1,10,3,453,667.6595217680879,668.4563596542175,"[75, 0, 179]",179,a,0.2735267092830327,colour,0.06
74,68,1,1,10,4,454,668.9721928697254,669.7923567019461,"[80, 0, 174]",174,a,0.29684241536597256,colour,0.06
74,68,1,1,10,5,455,670.3004260236376,671.2003799829945,"[31, 0, 223]",223,a,0.37677905336022377,colour,0.06
74,68,1,1,10,6,456,671.7067478882964,672.5524057909606,"[81, 0, 173]",173,l,0.3226905537121638,colour,0.06
74,68,1,1,10,7,457,673.0662166052716,673.9843383045954,"[82, 0, 172]",172,l,0.3948097347820294,colour,0.06
74,68,1,1,10,8,458,674.5043707102741,675.3203534692548,"[94, 0, 160]",160,l,0.29319027782185003,colour,0.06
74,68,1,1,10,9,459,675.8320658700213,676.7203635517217,"[72, 0, 182]",182,a,0.36494121251962497,colour,0.06
74,68,1,1,10,10,460,677.2384448424054,678.0883633752783,"[88, 0, 166]",166,l,0.3267006976202538,colour,0.06
74,68,1,1,10,11,461,678.598454704319,679.4163901536849,"[65, 0, 189]",189,a,0.29461875866763876,colour,0.06
74,68,1,1,10,12,462,679.9267331505616,680.7443940889971,"[97, 0, 157]",157,l,0.29438323852809845,colour,0.06
74,68,1,1,10,13,463,681.2565129392315,682.06441633344,"[52, 0, 202]",202,a,0.2847505436075153,colour,0.06
74,68,1,1,10,14,464,682.5847338839048,683.4485016311155,"[51, 0, 203]",203,a,0.34067594279986224,colour,0.06
74,68,1,1,10,15,465,683.9597863147064,684.7524053183442,"[87, 0, 167]",167,l,0.26931846064326237,colour,0.06
74,68,1,1,10,16,466,685.2724314224834,686.2403782343172,"[60, 0, 194]",194,a,0.4445698626404919,colour,0.06
74,68,1,1,10,17,467,686.7575394998385,687.632525173678,"[90, 0, 164]",164,l,0.35160793695104076,colour,0.06
74,68,1,1,10,18,468,688.148257170662,689.0163930681483,"[91, 0, 163]",163,l,0.3448211760187405,colour,0.06
74,68,1,1,10,19,469,689.5234761984866,690.4243718445541,"[76, 0, 178]",178,l,0.3776663892676879,colour,0.06
74,68,1,1,10,20,470,690.9459063803515,691.8724363061774,"[62, 0, 192]",192,a,0.4032553766919591,colour,0.06
74,68,1,1,10,21,471,692.3836256789436,693.2724192132446,"[61, 0, 193]",193,a,0.3655709728918737,colour,0.06
74,68,1,1,10,22,472,693.789827026605,694.6643975863517,"[95, 0, 159]",159,l,0.35129601061271387,colour,0.06
74,68,1,1,10,23,473,695.1805769928324,696.0484143547546,"[56, 0, 198]",198,a,0.3445340620019124,colour,0.06
74,68,1,1,10,24,474,696.5565108518458,697.4483708741136,"[78, 0, 176]",176,l,0.3684992207745381,colour,0.06
74,68,1,1,10,25,475,697.9629193627115,698.816388026913,"[57, 0, 197]",197,a,0.3302303489363112,colour,0.06
74,68,1,1,10,26,476,699.3379934550612,700.1844292043388,"[79, 0, 175]",175,l,0.32309385241023847,colour,0.06
74,68,1,1,10,27,477,700.6975775690298,701.5924387007653,"[71, 0, 183]",183,a,0.38405772842816077,colour,0.06
74,68,1,1,10,28,478,702.1069946724419,703.0003828186891,"[58, 0, 196]",196,a,0.37010099403050845,colour,0.06
74,68,1,1,10,29,479,703.5133854602173,704.4564187311771,"[55, 0, 199]",199,a,0.4197315464261919,colour,0.06
74,68,1,1,10,30,480,704.9665388110006,705.8484164027577,"[84, 0, 170]",170,l,0.3584770117777225,colour,0.06
74,68,1,1,10,31,481,706.3573328880266,707.2243829510189,"[83, 0, 171]",171,l,0.3436845353426179,colour,0.06
74,68,1,1,10,32,482,707.7324668450274,708.6483861553534,"[54, 0, 200]",200,a,0.39265972735302057,colour,0.06
74,68,1,1,10,33,483,709.1722266617471,710.0323962283692,"[67, 0, 187]",187,a,0.3369690606086806,colour,0.06
74,68,1,1,10,34,484,710.5492152413826,711.4564143988682,"[89, 0, 165]",165,l,0.3839821099245455,colour,0.06
74,68,1,1,10,35,485,711.9711208198642,712.8163872392215,"[68, 0, 186]",186,l,0.3219993533057277,colour,0.06
74,68,1,1,10,36,486,713.3312196910592,714.1763978888266,"[85, 0, 169]",169,l,0.3218804116950196,colour,0.06
74,68,1,1,10,37,487,714.69070219266,715.4643996343548,"[86, 0, 168]",168,l,0.2504508556521614,colour,0.06
74,68,1,1,10,38,488,715.9719908265288,716.7924709174004,"[70, 0, 184]",184,a,0.2971779724866792,colour,0.06
74,68,1,1,10,39,489,717.3002803004747,718.1125030080038,"[96, 0, 158]",158,l,0.2878170315743773,colour,0.06
74,68,1,1,10,40,490,718.6184065684138,719.432394101601,"[11, 0, 243]",243,a,0.29048219007017906,colour,0.06
74,68,1,1,10,41,491,719.9467602393161,720.7764571233238,"[73, 0, 181]",181,l,0.30734787388064433,colour,0.06
74,68,1,1,10,42,492,721.2904762823746,722.1603868516759,"[92, 0, 162]",162,l,0.3465324385688291,colour,0.06
74,68,1,1,10,43,493,722.681350310213,723.6165220134535,"[69, 0, 185]",185,a,0.41194953567537596,colour,0.06
74,68,1,1,10,44,494,724.1345729779641,725.128425823561,"[77, 0, 177]",177,a,0.4705574226027238,colour,0.06
74,68,1,1,10,45,495,725.6347003872688,726.4484319203038,"[64, 0, 190]",190,a,0.29039003001526,colour,0.06
74,68,1,1,10,46,496,726.9629634735065,727.8004451251873,"[99, 0, 155]",155,l,0.31416338559938595,colour,0.06
74,68,1,1,10,47,497,728.3068149997198,729.120416957292,"[98, 0, 156]",156,l,0.29026045455248095,colour,0.06
74,68,1,1,10,48,498,729.6350288551548,730.4884049654574,"[66, 0, 188]",188,a,0.33003342574374983,colour,0.06
74,68,1,1,10,49,499,730.9840125936316,731.8484616950918,"[59, 0, 195]",195,a,0.3411146876751445,colour,0.06
74,68,1,1,10,50,500,732.3591150429238,733.304381422895,"[63, 0, 191]",191,a,0.42188116000033915,colour,0.06
74,68,1,1,11,1,501,739.580882066246,740.4963831117093,"[62, 0, 192]",192,a,0.3907578431535512,colour,0.06
74,68,1,1,11,2,502,741.0046907104625,741.8644108983608,"[99, 0, 155]",155,l,0.33653307265922194,colour,0.06
74,68,1,1,11,3,503,742.3796966673908,743.2324493188644,"[96, 0, 158]",158,l,0.32940208998843445,colour,0.06
74,68,1,1,11,4,504,743.7392051628522,744.5764268759194,"[91, 0, 163]",163,l,0.31382940386174596,colour,0.06
74,68,1,1,11,5,505,745.0831200983375,745.952440685749,"[52, 0, 202]",202,a,0.3460212259560649,colour,0.06
74,68,1,1,11,6,506,746.4737397014105,747.29640170126,"[95, 0, 159]",159,l,0.2992956845082517,colour,0.06
74,68,1,1,11,7,507,747.8176097384021,748.704416317687,"[98, 0, 156]",156,l,0.36341978392738383,colour,0.06
74,68,1,1,11,8,508,749.2240284892723,750.0884208768512,"[53, 0, 201]",201,a,0.3411245338320441,colour,0.06
74,68,1,1,11,9,509,750.5991151847084,751.528420546023,"[94, 0, 160]",160,l,0.40597606753362925,colour,0.06
74,68,1,1,11,10,510,752.0242853558848,752.864442799917,"[63, 0, 191]",191,a,0.3168123963951075,colour,0.06
74,68,1,1,11,11,511,753.3838013344321,754.4884215070051,"[51, 0, 203]",203,a,0.5813511372907669,colour,0.06
74,68,1,1,11,12,512,755.0099213843241,755.8884170171586,"[57, 0, 197]",197,a,0.3551765790580248,colour,0.06
74,68,1,1,11,13,513,756.4006638674691,757.2644123162063,"[87, 0, 167]",167,l,0.34039473647862906,colour,0.06
74,68,1,1,11,14,514,757.7758076706305,758.6323900843672,"[59, 0, 195]",195,a,0.3317450821377861,colour,0.06
74,68,1,1,11,15,515,759.1526209886251,760.0724716735822,"[60, 0, 194]",194,a,0.3967640005466819,colour,0.06
74,68,1,1,11,16,516,760.5902107117545,761.4404423525084,"[66, 0, 188]",188,a,0.3250717489645467,colour,0.06
74,68,1,1,11,17,517,761.9510764018669,762.8724300046342,"[64, 0, 190]",190,a,0.398056604390149,colour,0.06
74,68,1,1,11,18,518,763.3796379842788,764.264472968549,"[93, 0, 161]",161,l,0.3616458998003509,colour,0.06
74,68,1,1,11,19,519,764.7857975842271,765.6644157032861,"[61, 0, 193]",193,a,0.35604461649563746,colour,0.06
74,68,1,1,11,20,520,766.1765625166154,767.0724311074046,"[82, 0, 172]",172,l,0.37256371548210154,colour,0.06
74,68,1,1,11,21,521,767.5829982028808,768.4164189044677,"[49, 0, 205]",205,a,0.31024776482081506,colour,0.06
74,68,1,1,11,22,522,768.9267748982784,769.9285775331919,"[70, 0, 184]",184,l,0.47845128573317197,colour,0.06
74,68,1,1,11,23,523,770.443192975672,771.2724715948134,"[79, 0, 175]",175,l,0.30601312847284134,colour,0.06
74,68,1,1,11,24,524,771.7870433203461,772.6084079901993,"[71, 0, 183]",183,a,0.31047580188169377,colour,0.06
74,68,1,1,11,25,525,773.1183650176208,774.0804710875418,"[73, 0, 181]",181,a,0.43868816070244065,colour,0.06
74,68,1,1,11,26,526,774.5872643469374,775.4404285678829,"[85, 0, 169]",169,l,0.3299558380022063,colour,0.06
74,68,1,1,11,27,527,775.9343808596968,776.8084150006653,"[72, 0, 182]",182,a,0.34900697541525005,colour,0.06
74,68,1,1,11,28,528,777.3269070731258,778.0644568996177,"[56, 0, 198]",198,a,0.21428591121002682,colour,0.06
74,68,1,1,11,29,529,778.5769565993105,779.3684346299669,"[65, 0, 189]",189,a,0.2663366496490198,colour,0.06
74,68,1,1,11,30,530,779.8760628437049,780.7444173259319,"[67, 0, 187]",187,a,0.3449798961082706,colour,0.06
74,68,1,1,11,31,531,781.2518545241728,782.0484568901666,"[69, 0, 185]",185,a,0.27317106599730323,colour,0.06
74,68,1,1,11,32,532,782.5644933304102,783.3925392103629,"[84, 0, 170]",170,l,0.3047240692540072,colour,0.06
74,68,1,1,11,33,533,783.9084078720443,784.816437651556,"[76, 0, 178]",178,l,0.39314297687087674,colour,0.06
74,68,1,1,11,34,534,785.3375913379023,786.1444163807028,"[78, 0, 176]",176,l,0.28350598902761703,colour,0.06
74,68,1,1,11,35,535,786.6658457595149,787.3604623914107,"[89, 0, 165]",165,l,0.17134759660984855,colour,0.06
74,68,1,1,11,36,536,787.8691213011443,788.6244576242971,"[92, 0, 162]",162,l,0.2321039155831386,colour,0.06
74,68,1,1,11,37,537,789.1347769903914,790.016449782026,"[68, 0, 186]",186,a,0.3583966671139933,colour,0.06
74,68,1,1,11,38,538,790.5254891473669,791.2884290688562,"[77, 0, 177]",177,a,0.2396224430995062,colour,0.06
74,68,1,1,11,39,539,791.8087084162216,792.3764706716393,"[11, 0, 243]",243,a,0.04448022320138989,colour,0.06
74,68,1,1,11,40,540,792.8869211885831,793.7044891792684,"[58, 0, 196]",196,a,0.2943095892551355,colour,0.06
74,68,1,1,11,41,541,794.2152689517898,794.792498486644,"[74, 0, 180]",180,a,0.05391441954270704,colour,0.06
74,68,1,1,11,42,542,795.3090465333444,796.0087327559304,"[90, 0, 164]",164,l,0.17629430722809047,colour,0.06
74,68,1,1,11,43,543,796.5279936165389,797.312435187654,"[16, 0, 238]",238,a,0.2614021482731914,colour,0.06
74,68,1,1,11,44,544,797.8221173102975,798.4964906317728,"[81, 0, 173]",173,l,0.1510097630562086,colour,0.06
74,68,1,1,11,45,545,799.009753605762,799.7685549894231,"[75, 0, 179]",179,l,0.23555519146611914,colour,0.06
74,68,1,1,11,46,546,800.2678171182197,800.9444936533619,"[80, 0, 174]",174,l,0.15354810301869293,colour,0.06
74,68,1,1,11,47,547,801.4553222628383,802.176476264256,"[97, 0, 157]",157,l,0.19793852924340172,colour,0.06
74,68,1,1,11,48,548,802.690035804575,803.4724518237272,"[86, 0, 168]",168,l,0.25935020860197255,colour,0.06
74,68,1,1,11,49,549,803.9743090063603,804.7364533581531,"[54, 0, 200]",200,a,0.23886310726811644,colour,0.06
74,68,1,1,11,50,550,805.2556397817934,806.0565114426172,"[50, 0, 204]",204,a,0.2776451609497599,colour,0.06
74,68,1,1,12,1,551,810.98363804572,811.6724560772673,"[68, 0, 186]",186,a,0.16481368505992577,colour,0.06
74,68,1,1,12,2,552,812.1876796185679,813.0405027685447,"[77, 0, 177]",177,l,0.329615160881076,colour,0.06
74,68,1,1,12,3,553,813.5490025643339,814.2804320179785,"[83, 0, 171]",171,l,0.20820019684470026,colour,0.06
74,68,1,1,12,4,554,814.7990446074364,815.5045404580669,"[91, 0, 163]",163,l,0.18219176301863627,colour,0.06
74,68,1,1,12,5,555,816.0178916536461,816.7124767778332,"[81, 0, 173]",173,l,0.17132514736658777,colour,0.06
74,68,1,1,12,6,556,817.2211159952458,817.8644577660816,"[87, 0, 167]",167,l,0.12006800939707318,colour,0.06
74,68,1,1,12,7,557,818.3775167276399,818.9684891383076,"[94, 0, 160]",160,l,0.06784043392326566,colour,0.06
74,68,1,1,12,8,558,819.4869626999898,820.3364842357078,"[54, 0, 200]",200,a,0.32622217425887357,colour,0.06
74,68,1,1,12,9,559,820.8463849430955,821.4566132912914,"[90, 0, 164]",164,l,0.08668519582715817,colour,0.06
74,68,1,1,12,10,560,821.9714548015982,822.5684971727751,"[55, 0, 199]",199,a,0.0736654219799675,colour,0.06
74,68,1,1,12,11,561,823.080910226261,823.7525222907207,"[61, 0, 193]",193,a,0.14828670913993847,colour,0.06
74,68,1,1,12,12,562,824.2684531801315,825.0005155449217,"[67, 0, 187]",187,a,0.20854796320418245,colour,0.06
74,68,1,1,12,13,563,825.5186374017794,826.2324583773297,"[51, 0, 203]",203,a,0.18795531103751273,colour,0.06
74,68,1,1,12,14,564,826.7403559819941,827.5044857134199,"[65, 0, 189]",189,a,0.24080358841456473,colour,0.06
74,68,1,1,12,15,565,828.0216969974354,828.7444830982786,"[66, 0, 188]",188,a,0.19945050551905297,colour,0.06
74,68,1,1,12,16,566,829.2561911667362,829.9844639415933,"[59, 0, 195]",195,a,0.20499665034003556,colour,0.06
74,68,1,1,12,17,567,830.490660523712,831.2084223262063,"[58, 0, 196]",196,a,0.20686899605789222,colour,0.06
74,68,1,1,12,18,568,831.7283928980032,832.4964614871424,"[71, 0, 183]",183,a,0.24494803394190967,colour,0.06
74,68,1,1,12,19,569,833.009784325779,833.6726187358254,"[38, 0, 216]",216,a,0.13958979323433596,colour,0.06
74,68,1,1,12,20,570,834.1817033935004,834.9524229626622,"[98, 0, 156]",156,l,0.24745959234496695,colour,0.06
74,68,1,1,12,21,571,835.4630251104645,836.2645296824303,"[56, 0, 198]",198,a,0.27813510585110635,colour,0.06
74,68,1,1,12,22,572,836.7757698613786,837.4884821593514,"[76, 0, 178]",178,l,0.18940624112656224,colour,0.06
74,68,1,1,12,23,573,837.9952250064089,838.6805137804877,"[25, 0, 229]",229,a,0.162187123507465,colour,0.06
74,68,1,1,12,24,574,839.1985300865163,839.8164833377377,"[88, 0, 166]",166,l,0.09476652982993983,colour,0.06
74,68,1,1,12,25,575,840.3235660742321,841.2724597794222,"[69, 0, 185]",185,a,0.42551006060966756,colour,0.06
74,68,1,1,12,26,576,841.7924492558486,842.4004968766021,"[92, 0, 162]",162,l,0.08475062237630482,colour,0.06
74,68,1,1,12,27,577,842.9175250220469,843.6885230406042,"[99, 0, 155]",155,l,0.24768959863286,colour,0.06
74,68,1,1,12,28,578,844.1996434902503,844.9844426738855,"[60, 0, 194]",194,a,0.2614466529157653,colour,0.06
74,68,1,1,12,29,579,845.4966328103183,846.1205020281122,"[57, 0, 197]",197,a,0.10057812711238512,colour,0.06
74,68,1,1,12,30,580,846.6375049673879,847.5764607467099,"[72, 0, 182]",182,a,0.41575763638684293,colour,0.06
74,68,1,1,12,31,581,848.0906027858327,848.8084902253249,"[62, 0, 192]",192,a,0.19458256418511155,colour,0.06
74,68,1,1,12,32,582,849.3251103459115,850.0644675334697,"[74, 0, 180]",180,l,0.21642292170145083,colour,0.06
74,68,1,1,12,33,583,850.5752000444263,851.232500912738,"[80, 0, 174]",174,l,0.1343315501253528,colour,0.06
74,68,1,1,12,34,584,851.7500835938954,852.5127931152492,"[53, 0, 201]",201,a,0.23933769216091605,colour,0.06
74,68,1,1,12,35,585,853.0314159447153,853.7685805894398,"[96, 0, 158]",158,l,0.2139279048460594,colour,0.06
74,68,1,1,12,36,586,854.2815087939998,854.960478696652,"[63, 0, 191]",191,a,0.1556874765919929,colour,0.06
74,68,1,1,12,37,587,855.4690919202039,856.0564677256662,"[13, 0, 241]",241,a,0.06402091166455648,colour,0.06
74,68,1,1,12,38,588,856.5628557171331,857.3125297107872,"[97, 0, 157]",157,l,0.22627656444819877,colour,0.06
74,68,1,1,12,39,589,857.8287225080458,858.5044742918762,"[82, 0, 172]",172,l,0.1527895548788365,colour,0.06
74,68,1,1,12,40,590,859.0162914557804,859.8804995232495,"[70, 0, 184]",184,l,0.3409311552568397,colour,0.06
74,68,1,1,12,41,591,860.3789219715472,861.1925802491569,"[73, 0, 181]",181,l,0.2905030639303732,colour,0.06
74,68,1,1,12,42,592,861.7071358269859,862.464510305188,"[52, 0, 202]",202,a,0.23400264900919865,colour,0.06
74,68,1,1,12,43,593,862.9729565378693,863.6804909373968,"[75, 0, 179]",179,l,0.18428466271507205,colour,0.06
74,68,1,1,12,44,594,864.1917449009707,864.9604928751214,"[85, 0, 169]",169,l,0.24542222498712363,colour,0.06
74,68,1,1,12,45,595,865.4733553073347,866.1124624418262,"[86, 0, 168]",168,l,0.11436393217809382,colour,0.06
74,68,1,1,12,46,596,866.6311963359694,867.3285525633291,"[64, 0, 190]",190,a,0.1740261458871828,colour,0.06
74,68,1,1,12,47,597,867.8500642560393,868.4884963378208,"[95, 0, 159]",159,l,0.11545449282493792,colour,0.06
74,68,1,1,12,48,598,869.0063870068516,869.6564796985986,"[50, 0, 204]",204,a,0.13293378930393374,colour,0.06
74,68,1,1,12,49,599,870.1721597078613,870.77648902488,"[89, 0, 165]",165,l,0.08122569721672335,colour,0.06
74,68,1,1,12,50,600,871.2973181818015,871.9365564671352,"[84, 0, 170]",170,l,0.11599445621686755,colour,0.06
74,68,1,1,13,1,601,876.625045243105,877.9844867846805,"[93, 0, 161]",161,l,0.8353682719716744,colour,0.06
74,68,1,1,13,2,602,878.5025306599564,879.3926412165747,"[91, 0, 163]",163,l,0.3667493612774706,colour,0.06
74,68,1,1,13,3,603,879.9089041184925,880.7284945103711,"[66, 0, 188]",188,a,0.2963674366219493,colour,0.06
74,68,1,1,13,4,604,881.2371443616357,882.1045047755833,"[59, 0, 195]",195,a,0.34378417847983656,colour,0.06
74,68,1,1,13,5,605,882.6122353893843,883.5209398277548,"[75, 0, 179]",179,a,0.3855456800738466,colour,0.06
74,68,1,1,13,6,606,884.0342622725475,884.7604980738943,"[80, 0, 174]",174,l,0.2029596768261399,colour,0.06
74,68,1,1,13,7,607,885.2686942141227,886.1044854771135,"[69, 0, 185]",185,l,0.3123599629943783,colour,0.06
74,68,1,1,13,8,608,886.6126000911354,887.4004929381372,"[86, 0, 168]",168,l,0.2647789871916757,colour,0.06
74,68,1,1,13,9,609,887.9095669619601,888.6966106761538,"[65, 0, 189]",189,a,0.2637904327639262,colour,0.06
74,68,1,1,13,10,610,889.2065507681764,890.0244688883031,"[88, 0, 166]",166,l,0.29461324481962947,colour,0.06
74,68,1,1,13,11,611,890.5325508130773,891.216471364809,"[82, 0, 172]",172,l,0.16062985489770654,colour,0.06
74,68,1,1,13,12,612,891.7357881516036,892.5364928215604,"[79, 0, 175]",175,l,0.27751794856521883,colour,0.06
74,68,1,1,13,13,613,893.0501748481038,893.7284945103711,"[62, 0, 192]",192,a,0.15493010998761747,colour,0.06
74,68,1,1,13,14,614,894.2378217774203,895.0805171675675,"[58, 0, 196]",196,a,0.3194220225523168,colour,0.06
74,68,1,1,13,15,615,895.5972377189828,896.456467174281,"[99, 0, 155]",155,l,0.3365137741857325,colour,0.06
74,68,1,1,13,16,616,896.965850761364,897.680531897422,"[54, 0, 200]",200,a,0.19126795299598598,colour,0.06
74,68,1,1,13,17,617,898.2003693491424,898.8085079484117,"[97, 0, 157]",157,l,0.0848301793448627,colour,0.06
74,68,1,1,13,18,618,899.3263218173961,900.08847325842,"[51, 0, 203]",203,a,0.23882963032156113,colour,0.06
74,68,1,1,13,19,619,900.6076900082371,901.4645162128836,"[53, 0, 201]",201,a,0.3341176127723884,colour,0.06
74,68,1,1,13,20,620,901.9828535037159,902.8725694262575,"[52, 0, 202]",202,a,0.3664650041901041,colour,0.06
74,68,1,1,13,21,621,903.3891710360658,904.2565302684743,"[56, 0, 198]",198,a,0.3431008550032857,colour,0.06
74,68,1,1,13,22,622,904.7652762182552,905.672536815775,"[95, 0, 159]",159,l,0.38391239910924924,colour,0.06
74,68,1,1,13,23,623,906.1872912860308,907.016517917451,"[85, 0, 169]",169,l,0.3059765007601527,colour,0.06
74,68,1,1,13,24,624,907.5311479322481,908.376552591686,"[73, 0, 181]",181,l,0.3221084487522603,colour,0.06
74,68,1,1,13,25,625,908.8825577644639,909.6805531651262,"[74, 0, 180]",180,l,0.2747232146030001,colour,0.06
74,68,1,1,13,26,626,910.1952127184013,910.9284877362152,"[83, 0, 171]",171,l,0.21016470262111397,colour,0.06
74,68,1,1,13,27,627,911.4463843129415,912.296548605962,"[35, 0, 219]",219,a,0.3269149500556523,colour,0.06
74,68,1,1,13,28,628,912.8058983222545,913.6325358075301,"[64, 0, 190]",190,a,0.30347872697893763,colour,0.06
74,68,1,1,13,29,629,914.1496372084002,914.9525273319559,"[70, 0, 184]",184,a,0.2779846565317712,colour,0.06
74,68,1,1,13,30,630,915.4639006309808,916.136577262223,"[68, 0, 186]",186,a,0.1493654543919547,colour,0.06
74,68,1,1,13,31,631,916.6514396463899,917.216487512509,"[29, 0, 225]",225,a,0.041726449264388066,colour,0.06
74,68,1,1,13,32,632,917.7297166157114,918.3845433410243,"[89, 0, 165]",165,l,0.13154823771765223,colour,0.06
74,68,1,1,13,33,633,918.9016671911377,919.6405072583912,"[84, 0, 170]",170,l,0.21556630581108038,colour,0.06
74,68,1,1,13,34,634,920.1409418678813,920.8885146910616,"[92, 0, 162]",162,l,0.22433411406746018,colour,0.06
74,68,1,1,13,35,635,921.3982562845085,922.032619145426,"[81, 0, 173]",173,l,0.11115881028672447,colour,0.06
74,68,1,1,13,36,636,922.5264769141031,923.3604895668141,"[55, 0, 199]",199,a,0.3106593342999986,colour,0.06
74,68,1,1,13,37,637,923.8703146556945,924.5205195936614,"[57, 0, 197]",197,a,0.1268720995685726,colour,0.06
74,68,1,1,13,38,638,925.0266610372892,925.6885171329086,"[72, 0, 182]",182,l,0.1384700879571028,colour,0.06
74,68,1,1,13,39,639,926.2002342598316,927.0165923544191,"[61, 0, 193]",193,a,0.2930544008195284,colour,0.06
74,68,1,1,13,40,640,927.5291621587676,928.1525485208913,"[77, 0, 177]",177,l,0.10096685349344625,colour,0.06
74,68,1,1,13,41,641,928.670933073292,929.2565200284662,"[90, 0, 164]",164,l,0.06299297259829473,colour,0.06
74,68,1,1,13,42,642,929.7647673687243,930.4806800624319,"[50, 0, 204]",204,a,0.19256331375800073,colour,0.06
74,68,1,1,13,43,643,930.9995325043383,931.6565773725015,"[60, 0, 194]",194,a,0.1340629468941188,colour,0.06
74,68,1,1,13,44,644,932.1712270796161,933.0245322975716,"[71, 0, 183]",183,a,0.3303634690164472,colour,0.06
74,68,1,1,13,45,645,933.5307020981381,934.440580198745,"[78, 0, 176]",176,a,0.38656889299090835,colour,0.06
74,68,1,1,13,46,646,934.9527561567047,935.5845432622555,"[17, 0, 237]",237,a,0.10846765792666702,colour,0.06
74,68,1,1,13,47,647,936.0934514767468,936.9125172652421,"[76, 0, 178]",178,l,0.2961665749680833,colour,0.06
74,68,1,1,13,48,648,937.4216799044989,938.2485611806878,"[87, 0, 167]",167,l,0.30356852395198075,colour,0.06
74,68,1,1,13,49,649,938.7674738810929,939.4645299975091,"[98, 0, 156]",156,l,0.1738166196118982,colour,0.06
74,68,1,1,13,50,650,939.9706659272852,940.7285394088613,"[96, 0, 158]",158,l,0.23465328324164147,colour,0.06
74,68,1,1,14,1,651,945.857423275771,946.4805374900425,"[55, 0, 199]",199,a,0.09901652619009838,colour,0.06
74,68,1,1,14,2,652,946.9989956917161,947.648685478609,"[42, 0, 212]",212,a,0.1263923946680734,colour,0.06
74,68,1,1,14,3,653,948.1552605471079,948.992558666374,"[45, 0, 209]",209,a,0.3140586224581057,colour,0.06
74,68,1,1,14,4,654,949.4991057717816,950.264575368612,"[78, 0, 176]",176,l,0.24207925685914233,colour,0.06
74,68,1,1,14,5,655,950.7806232303992,951.5205188059699,"[59, 0, 195]",195,a,0.21673563573494903,colour,0.06
74,68,1,1,14,6,656,952.0306491257979,952.672586046574,"[88, 0, 166]",166,l,0.11873011321949889,colour,0.06
74,68,1,1,14,7,657,953.188778056141,953.7925548066778,"[73, 0, 181]",181,a,0.08055064451036742,colour,0.06
74,68,1,1,14,8,658,954.3160534544077,954.920834513232,"[98, 0, 156]",156,l,0.0813816603840678,colour,0.06
74,68,1,1,14,9,659,955.4423485690204,956.0165301266898,"[89, 0, 165]",165,l,0.050921580852445913,colour,0.06
74,68,1,1,14,10,660,956.536111578258,957.3606845207723,"[72, 0, 182]",182,a,0.3012897287590022,colour,0.06
74,68,1,1,14,11,661,957.8800336029744,958.5605832234833,"[75, 0, 179]",179,a,0.15722229595849058,colour,0.06
74,68,1,1,14,12,662,959.0676844707559,959.8088655609317,"[99, 0, 155]",155,l,0.2179364733674447,colour,0.06
74,68,1,1,14,13,663,960.3177300584757,960.9206198669526,"[65, 0, 189]",189,a,0.07956169623503229,colour,0.06
74,68,1,1,14,14,664,961.4160549904082,962.1125187618563,"[69, 0, 185]",185,a,0.17322703156605712,colour,0.06
74,68,1,1,14,15,665,962.6191536950064,963.2805387503504,"[77, 0, 177]",177,a,0.13810144774106448,colour,0.06
74,68,1,1,14,16,666,963.7911605904701,964.3925147918853,"[97, 0, 157]",157,l,0.0780386922560865,colour,0.06
74,68,1,1,14,17,667,964.9007073874964,965.4885290270686,"[66, 0, 188]",188,a,0.06455339198146248,colour,0.06
74,68,1,1,14,18,668,966.0100584428656,966.6005369701634,"[60, 0, 194]",194,a,0.06714490120430128,colour,0.06
74,68,1,1,14,19,669,967.1195406490842,967.7285563442565,"[71, 0, 183]",183,a,0.08579982915034634,colour,0.06
74,68,1,1,14,20,670,968.2446715537772,968.8405489273391,"[64, 0, 190]",190,a,0.07269616602206952,colour,0.06
74,68,1,1,14,21,671,969.3540478153154,969.9125771298932,"[70, 0, 184]",184,a,0.04749826806073543,colour,0.06
74,68,1,1,14,22,672,970.4199426480882,971.0645459089028,"[53, 0, 201]",201,a,0.12131925936409971,colour,0.06
74,68,1,1,14,23,673,971.5763563774162,972.4325532155381,"[58, 0, 196]",196,a,0.3333133784472011,colour,0.06
74,68,1,1,14,24,674,972.9515171159728,973.8165605316317,"[52, 0, 202]",202,a,0.3417153034133662,colour,0.06
74,68,1,1,14,25,675,974.3266494975906,974.9685430952632,"[94, 0, 160]",160,l,0.11856824235292152,colour,0.06
74,68,1,1,14,26,676,975.4829537376208,976.2645497685953,"[86, 0, 168]",168,l,0.25825531564623816,colour,0.06
74,68,1,1,14,27,677,976.7799194269064,977.6645673341445,"[81, 0, 173]",173,l,0.3612934072880307,colour,0.06
74,68,1,1,14,28,678,978.1707347716329,978.7367444106312,"[61, 0, 193]",193,a,0.04272445600872743,colour,0.06
74,68,1,1,14,29,679,979.2503520002101,979.872603690892,"[83, 0, 171]",171,l,0.09837455657907412,colour,0.06
74,68,1,1,14,30,680,980.3815146623092,980.9686407691661,"[92, 0, 162]",162,l,0.0638271392454044,colour,0.06
74,68,1,1,14,31,681,981.4754060654705,982.0485888287039,"[90, 0, 164]",164,l,0.04994878027719096,colour,0.06
74,68,1,1,14,32,682,982.5691671054774,983.152579634756,"[93, 0, 161]",161,l,0.06008441703670542,colour,0.06
74,68,1,1,14,33,683,983.663082139421,984.2325576266194,"[85, 0, 169]",169,l,0.04608593491866486,colour,0.06
74,68,1,1,14,34,684,984.7437178547516,986.1205244773555,"[62, 0, 192]",192,a,0.8535245903876785,colour,0.06
74,68,1,1,14,35,685,986.6346365841564,987.4006441751517,"[79, 0, 175]",175,l,0.2434080945677124,colour,0.06
74,68,1,1,14,36,686,987.9157653163893,988.5686224159253,"[50, 0, 204]",204,a,0.12943800877474132,colour,0.06
74,68,1,1,14,37,687,989.0876568148633,989.9605929121062,"[54, 0, 200]",200,a,0.3505910255807976,colour,0.06
74,68,1,1,14,38,688,990.4784820057503,991.1047426588011,"[87, 0, 167]",167,l,0.10288803616640507,colour,0.06
74,68,1,1,14,39,689,991.6190855595851,992.2168171619342,"[96, 0, 158]",158,l,0.07498598891470465,colour,0.06
74,68,1,1,14,40,690,992.719126874068,993.2885964535708,"[68, 0, 186]",186,a,0.0460961749231501,colour,0.06
74,68,1,1,14,41,691,993.7973770618373,994.6165586411662,"[76, 0, 178]",178,l,0.2958581932434754,colour,0.06
74,68,1,1,14,42,692,995.1256354219149,995.7127154487425,"[91, 0, 163]",163,l,0.06448722578716115,colour,0.06
74,68,1,1,14,43,693,996.2194015819223,997.0805750629879,"[82, 0, 172]",172,l,0.33790050731477095,colour,0.06
74,68,1,1,14,44,694,997.5945505050877,998.5125627151137,"[57, 0, 197]",197,a,0.3947849224568927,colour,0.06
74,68,1,1,14,45,695,999.0321508620727,999.9526001935374,"[32, 0, 222]",222,a,0.3970987699794932,colour,0.06
74,68,1,1,14,46,696,1000.4707827027414,1001.3125639754217,"[67, 0, 187]",187,a,0.31863826823973795,colour,0.06
74,68,1,1,14,47,697,1001.830132084262,1002.6966339130886,"[95, 0, 159]",159,l,0.34262272548949113,colour,0.06
74,68,1,1,14,48,698,1003.2055114075629,1004.0406410086252,"[80, 0, 174]",174,l,0.3118314211424149,colour,0.06
74,68,1,1,14,49,699,1004.5493932599493,1005.5925773346935,"[84, 0, 170]",170,l,0.5185712355887517,colour,0.06
74,68,1,1,14,50,700,1006.1139917473447,1007.0245976760707,"[63, 0, 191]",191,a,0.3873081426572753,colour,0.06
74,68,1,1,15,1,701,1012.1789610411106,1012.7845644511908,"[89, 0, 165]",165,l,0.08146673120791093,colour,0.06
74,68,1,1,15,2,702,1013.3048847585778,1013.880608224852,"[71, 0, 183]",183,a,0.05242804328008788,colour,0.06
74,68,1,1,15,3,703,1014.3986702170623,1015.6726124342822,"[50, 0, 204]",204,a,0.7506361603773257,colour,0.06
74,68,1,1,15,4,704,1016.1801094971743,1017.1605881071773,"[60, 0, 194]",194,a,0.4571772793169657,colour,0.06
74,68,1,1,15,5,705,1017.6801998849187,1018.6085753749139,"[77, 0, 177]",177,l,0.40503241158876335,colour,0.06
74,68,1,1,15,6,706,1019.1178573496254,1019.9605645551637,"[86, 0, 168]",168,l,0.3194578625698341,colour,0.06
74,68,1,1,15,7,707,1020.477278017348,1021.5525956249185,"[69, 0, 185]",185,a,0.5519694091635756,colour,0.06
74,68,1,1,15,8,708,1022.0717426639239,1022.9445913272684,"[58, 0, 196]",196,a,0.3495855357577966,colour,0.06
74,68,1,1,15,9,709,1023.462455608591,1024.3045944937912,"[81, 0, 173]",173,l,0.31907977004084387,colour,0.06
74,68,1,1,15,10,710,1024.821955045587,1025.7126114732964,"[87, 0, 167]",167,l,0.3672735708205437,colour,0.06
74,68,1,1,15,11,711,1026.228334017971,1027.160609374885,"[98, 0, 156]",156,l,0.4091642540297471,colour,0.06
74,68,1,1,15,12,712,1027.6815523534096,1028.3126029662162,"[55, 0, 199]",199,a,0.10774455596038024,colour,0.06
74,68,1,1,15,13,713,1028.822277999625,1029.6726065265866,"[67, 0, 187]",187,a,0.3270579162926879,colour,0.06
74,68,1,1,15,14,714,1030.1817782243124,1030.864556227676,"[79, 0, 175]",175,l,0.15953890040327678,colour,0.06
74,68,1,1,15,15,715,1031.3849781474346,1032.2485678760786,"[84, 0, 170]",170,l,0.3402844594929775,colour,0.06
74,68,1,1,15,16,716,1032.7601101352047,1033.3365669434497,"[63, 0, 191]",191,a,0.0532098283583764,colour,0.06
74,68,1,1,15,17,717,1033.8538900798376,1034.4085762413742,"[95, 0, 159]",159,l,0.03138483084694599,colour,0.06
74,68,1,1,15,18,718,1034.9165207137594,1035.4885727440196,"[51, 0, 203]",203,a,0.04878929651749786,colour,0.06
74,68,1,1,15,19,719,1035.9946551106877,1036.93662775333,"[66, 0, 188]",188,a,0.41861735499696806,colour,0.06
74,68,1,1,15,20,720,1037.4479770277285,1038.248626165343,"[96, 0, 158]",158,l,0.2774242131235951,colour,0.06
74,68,1,1,15,21,721,1038.760598504723,1039.40860302293,"[82, 0, 172]",172,l,0.12479613526375033,colour,0.06
74,68,1,1,15,22,722,1039.9169173170703,1040.752583336911,"[92, 0, 162]",162,l,0.3123166398909234,colour,0.06
74,68,1,1,15,23,723,1041.262714444434,1042.128625897527,"[93, 0, 161]",161,l,0.34278105173507356,colour,0.06
74,68,1,1,15,24,724,1042.6378791214556,1043.5125658658872,"[91, 0, 163]",163,l,0.35147363533542375,colour,0.06
74,68,1,1,15,25,725,1044.0161847234085,1044.904571414394,"[99, 0, 155]",155,l,0.36511135416003526,colour,0.06
74,68,1,1,15,26,726,1045.422499104985,1046.3045940999436,"[44, 0, 210]",210,a,0.3587617627126747,colour,0.06
74,68,1,1,15,27,727,1046.8132297727389,1047.6086198795529,"[74, 0, 180]",180,a,0.2720489976381941,colour,0.06
74,68,1,1,15,28,728,1048.1258866959106,1048.9365698579131,"[52, 0, 202]",202,a,0.28738892055116594,colour,0.06
74,68,1,1,15,29,729,1049.4559803801494,1050.296655732178,"[83, 0, 171]",171,l,0.31741852598133846,colour,0.06
74,68,1,1,15,30,730,1050.8154305863463,1051.6565824925055,"[20, 0, 234]",234,a,0.330250435101334,colour,0.06
74,68,1,1,15,31,731,1052.1626711607169,1053.0325655823144,"[94, 0, 160]",160,l,0.3469735465187114,colour,0.06
74,68,1,1,15,32,732,1053.5532872191725,1054.3605848776388,"[80, 0, 174]",174,l,0.28407470320598804,colour,0.06
74,68,1,1,15,33,733,1054.8815522746409,1055.7126102917573,"[75, 0, 179]",179,a,0.30785514802482794,colour,0.06
74,68,1,1,15,34,734,1056.2253801700717,1056.9446023549644,"[76, 0, 178]",178,l,0.19592518651552382,colour,0.06
74,68,1,1,15,35,735,1057.4600862287298,1058.1927460584848,"[56, 0, 198]",198,a,0.20956920688331593,colour,0.06
74,68,1,1,15,36,736,1058.7106887152368,1059.5686425020904,"[57, 0, 197]",197,a,0.33462331152986735,colour,0.06
74,68,1,1,15,37,737,1060.0859920261864,1060.9446255919029,"[70, 0, 184]",184,a,0.33546456741169095,colour,0.06
74,68,1,1,15,38,738,1061.4611401616603,1062.2726047148935,"[68, 0, 186]",186,a,0.28833769649645546,colour,0.06
74,68,1,1,15,39,739,1062.777626453244,1063.6485996200972,"[61, 0, 193]",193,a,0.3482866303747869,colour,0.06
74,68,1,1,15,40,740,1064.168328764059,1065.032628597739,"[65, 0, 189]",189,a,0.34089649677844136,colour,0.06
74,68,1,1,15,41,741,1065.5435710288184,1066.3846358949231,"[73, 0, 181]",181,a,0.31781788621810847,colour,0.06
74,68,1,1,15,42,742,1066.903062982732,1067.6006157394404,"[88, 0, 166]",166,l,0.17438927225521184,colour,0.06
74,68,1,1,15,43,743,1068.121891912011,1069.2086176740158,"[90, 0, 164]",164,l,0.5635929975687759,colour,0.06
74,68,1,1,15,44,744,1069.7157035612763,1070.6166594658425,"[85, 0, 169]",169,l,0.37771050006267615,colour,0.06
74,68,1,1,15,45,745,1071.1377745552381,1072.008596091233,"[97, 0, 157]",157,l,0.34757494995210436,colour,0.06
74,68,1,1,15,46,746,1072.528474109131,1074.1046122956468,"[59, 0, 195]",195,a,1.0530392928703805,colour,0.06
74,68,1,1,15,47,747,1074.622373783066,1075.4966335980134,"[72, 0, 182]",182,a,0.3509013765360578,colour,0.06
74,68,1,1,15,48,748,1076.0131332016063,1076.8806806925859,"[15, 0, 239]",239,a,0.3443552557400835,colour,0.06
74,68,1,1,15,49,749,1077.3882490416727,1078.264615540942,"[54, 0, 200]",200,a,0.35308998090113164,colour,0.06
74,68,1,1,15,50,750,1078.7789123616967,1079.608645085722,"[64, 0, 190]",190,a,0.30694536287046503,colour,0.06
74,68,1,1,16,1,751,1084.9256583437746,1085.568604298991,"[78, 0, 176]",176,l,0.11891837179064169,colour,0.06
74,68,1,1,16,2,752,1086.0846234099918,1087.104627655659,"[83, 0, 171]",171,l,0.4967545088547922,colour,0.06
74,68,1,1,16,3,753,1087.6159599946586,1088.2486379807342,"[34, 0, 220]",220,a,0.1093652338386164,colour,0.06
74,68,1,1,16,4,754,1088.756751019373,1089.3846697657136,"[76, 0, 178]",178,l,0.10472690494862036,colour,0.06
74,68,1,1,16,5,755,1089.8988114109889,1090.7286461412332,"[86, 0, 168]",168,l,0.3065975965146208,colour,0.06
74,68,1,1,16,6,756,1091.242837804999,1092.1046182033424,"[85, 0, 169]",169,l,0.3385038799751783,colour,0.06
74,68,1,1,16,7,757,1092.6179461619868,1093.4566396789996,"[54, 0, 200]",200,a,0.31533547244544025,colour,0.06
74,68,1,1,16,8,758,1093.9773947928006,1094.9846222678389,"[52, 0, 202]",202,a,0.48386273508367594,colour,0.06
74,68,1,1,16,9,759,1095.493110248237,1096.0566859165665,"[81, 0, 173]",173,l,0.040195568362833,colour,0.06
74,68,1,1,16,10,760,1096.571447869901,1097.3126388062374,"[61, 0, 193]",193,a,0.2182842397269269,colour,0.06
74,68,1,1,16,11,761,1097.8215245714855,1098.488680264083,"[89, 0, 165]",165,l,0.14391934656305239,colour,0.06
74,68,1,1,16,12,762,1099.0090305037957,1099.5766171037249,"[87, 0, 167]",167,l,0.044199016880156705,colour,0.06
74,68,1,1,16,13,763,1100.0872641500137,1100.8007145161137,"[80, 0, 174]",174,l,0.19011319538913085,colour,0.06
74,68,1,1,16,14,764,1101.3218063685745,1101.9926878479891,"[98, 0, 156]",156,l,0.1476226841332391,colour,0.06
74,68,1,1,16,15,765,1102.5093040301108,1103.3686630608718,"[90, 0, 164]",164,l,0.3360100446589058,colour,0.06
74,68,1,1,16,16,766,1103.8845002148446,1104.4166603323029,"[51, 0, 203]",203,a,0.008882811398507329,colour,0.06
74,68,1,1,16,17,767,1104.9314144087148,1105.7766150557254,"[91, 0, 163]",163,l,0.3219190086419985,colour,0.06
74,68,1,1,16,18,768,1106.290930781106,1107.2086267324812,"[95, 0, 159]",159,l,0.3943946206891269,colour,0.06
74,68,1,1,16,19,769,1107.7285401965528,1108.448657200439,"[58, 0, 196]",196,a,0.2080009105739009,colour,0.06
74,68,1,1,16,20,770,1108.9674273284509,1109.928736253285,"[70, 0, 184]",184,a,0.43802571107880794,colour,0.06
74,68,1,1,16,21,771,1110.4362841223592,1110.9766031615618,"[97, 0, 157]",157,l,0.015546298414847115,colour,0.06
74,68,1,1,16,22,772,1111.4846949324965,1112.0886059846525,"[53, 0, 201]",201,a,0.08061484147037845,colour,0.06
74,68,1,1,16,23,773,1112.6098876710712,1113.3606538007552,"[71, 0, 183]",183,a,0.22755498981496203,colour,0.06
74,68,1,1,16,24,774,1113.8755362710872,1114.4566247128387,"[14, 0, 240]",240,a,0.057807197230431484,colour,0.06
74,68,1,1,16,25,775,1114.9694772988914,1115.6006184963662,"[73, 0, 181]",181,l,0.10797259301762097,colour,0.06
74,68,1,1,16,26,776,1116.1101422927604,1116.8086316161753,"[75, 0, 179]",179,l,0.17525927891983883,colour,0.06
74,68,1,1,16,27,777,1117.3289554681833,1118.11260698345,"[60, 0, 194]",194,a,0.26062390781589784,colour,0.06
74,68,1,1,16,28,778,1118.6259420313254,1119.456662128243,"[63, 0, 191]",191,a,0.3074372770097398,colour,0.06
74,68,1,1,16,29,779,1119.969746295974,1120.8167625748247,"[62, 0, 192]",192,a,0.3237330650954391,colour,0.06
74,68,1,1,16,30,780,1121.3292496714348,1122.0966794417327,"[69, 0, 185]",185,a,0.2443328458830365,colour,0.06
74,68,1,1,16,31,781,1122.6105780837897,1123.1607625811266,"[84, 0, 170]",170,l,0.026559424921288155,colour,0.06
74,68,1,1,16,32,782,1123.666244725904,1124.4246282385502,"[74, 0, 180]",180,l,0.23499789883135236,colour,0.06
74,68,1,1,16,33,783,1124.934139038014,1125.6006511856176,"[96, 0, 158]",158,l,0.14330573389452184,colour,0.06
74,68,1,1,16,34,784,1126.1216229149286,1126.7846333743073,"[57, 0, 197]",197,a,0.13966068558511324,colour,0.06
74,68,1,1,16,35,785,1127.2955584761476,1127.9446358319074,"[93, 0, 161]",161,l,0.12589536052837502,colour,0.06
74,68,1,1,16,36,786,1128.451902494664,1129.0726804121696,"[27, 0, 227]",227,a,0.09505049307699664,colour,0.06
74,68,1,1,16,37,787,1129.5795075423557,1130.1526233517034,"[77, 0, 177]",177,l,0.05045723596049356,colour,0.06
74,68,1,1,16,38,788,1130.673285517758,1131.2567303424366,"[55, 0, 199]",199,a,0.060153340149554424,colour,0.06
74,68,1,1,16,39,789,1131.7677724166533,1132.3447601298285,"[88, 0, 166]",166,l,0.053705287111370126,colour,0.06
74,68,1,1,16,40,790,1132.86154448436,1133.4246782570408,"[67, 0, 187]",187,a,0.039921451276313746,colour,0.06
74,68,1,1,16,41,791,1133.9397895521215,1134.4886412732885,"[99, 0, 155]",155,l,0.025579141263733618,colour,0.06
74,68,1,1,16,42,792,1135.003283891172,1135.560703346633,"[64, 0, 190]",190,a,0.03410000784060685,colour,0.06
74,68,1,1,16,43,793,1136.0815289589336,1136.7446189752845,"[56, 0, 198]",198,a,0.14012660586013226,colour,0.06
74,68,1,1,16,44,794,1137.2534822912894,1137.8886190603553,"[50, 0, 204]",204,a,0.11177951218996895,colour,0.06
74,68,1,1,16,45,795,1138.409812919028,1139.0646813920575,"[82, 0, 172]",172,l,0.13149940076255007,colour,0.06
74,68,1,1,16,46,796,1139.5818178452573,1140.1686564442534,"[59, 0, 195]",195,a,0.06380665923279594,colour,0.06
74,68,1,1,16,47,797,1140.675654897619,1141.2406515637085,"[94, 0, 160]",160,l,0.04174456619875855,colour,0.06
74,68,1,1,16,48,798,1141.7538948453766,1142.2806509965703,"[66, 0, 188]",188,a,0.0035394974765949883,colour,0.06
74,68,1,1,16,49,799,1142.8008850516017,1143.4406640880225,"[65, 0, 189]",189,a,0.11652890576442587,colour,0.06
74,68,1,1,16,50,800,1143.959605539214,1144.6406750369533,"[68, 0, 186]",186,a,0.15777761936260504,colour,0.06
