id,age,condition,counterbalance,block,trialinblock,trial,tstart,tend,trialstim,trialintensity,response,RT,trialtype,colourfreq
050,75,1,2,Practice,1,NA,5.9076701290905476e-06,1.434703771112254,"[19, 0, 235]",235,a,0.9103335989348125,colour,0.5
050,75,1,2,Practice,2,NA,1.9407097173680086,3.2666251028422266,"[25, 0, 229]",229,a,0.8027267496509012,colour,0.5
050,75,1,2,Practice,3,NA,3.784350314497715,5.010625162685756,"[43, 0, 211]",211,a,0.7029172526672482,colour,0.5
050,75,1,2,Practice,4,NA,5.528435444983188,7.12268325331388,"[69, 0, 185]",185,a,1.0710973755049054,colour,0.5
050,75,1,2,Practice,5,NA,7.6293792168435175,9.226628127566073,"[76, 0, 178]",178,a,1.074024434958119,colour,0.5
050,75,1,2,Practice,6,NA,9.733127562212758,10.73064121583593,"[5, 0, 249]",249,a,0.4746519095497206,colour,0.5
050,75,1,2,Practice,7,NA,11.248446378129302,11.882629327999894,"[53, 0, 201]",201,a,0.11091003112960607,colour,0.5
050,75,1,2,Practice,8,NA,12.395264874852728,13.402634117170237,"[75, 0, 179]",179,a,0.48253590788226575,colour,0.5
050,75,1,2,Practice,9,NA,13.912417829065816,14.466685203660745,"[2, 0, 252]",252,a,0.03167777770431712,colour,0.5
050,75,1,2,Practice,10,NA,14.974892352183815,15.52263803986716,"[67, 0, 187]",187,a,0.024504276574589312,colour,0.5
050,75,1,2,1,1,1,4.502592881559394,6.055960319295991,"[24, 0, 230]",230,a,1.02780273227836,colour,0.5
050,75,1,2,1,2,2,6.567477738892194,7.608002073218813,"[60, 0, 194]",194,a,0.5172396002162714,colour,0.5
050,75,1,2,1,3,3,8.11429158822284,9.103985046473099,"[84, 0, 170]",170,a,0.4665654746349901,colour,0.5
050,75,1,2,1,4,4,9.614229951403104,10.735986880230485,"[14, 0, 240]",240,a,0.5986758127983194,colour,0.5
050,75,1,2,1,5,5,11.256308714975603,12.352039548393805,"[45, 0, 209]",209,a,0.5723767824820243,colour,0.5
050,75,1,2,1,6,6,12.865685308817774,14.71202571655158,"[5, 0, 249]",249,a,1.3229694214533083,colour,0.5
050,75,1,2,1,7,7,15.225094099529088,16.36813089219504,"[15, 0, 239]",239,a,0.6200608333747368,colour,0.5
050,75,1,2,1,8,8,16.882953068998177,17.936013504193397,"[74, 0, 180]",180,a,0.5297808210889343,colour,0.5
050,75,1,2,1,9,9,18.442111216456397,19.479965672449907,"[16, 0, 238]",238,a,0.514433057513088,colour,0.5
050,75,1,2,1,10,10,19.991455128998496,21.103915729676373,"[68, 0, 186]",186,a,0.5889474361902103,colour,0.5
050,75,1,2,1,11,11,21.608095020754263,22.943965637794463,"[23, 0, 231]",231,a,0.8125984859943856,colour,0.5
050,75,1,2,1,12,12,23.4584471382841,24.471921379008563,"[4, 0, 250]",250,a,0.4900674145319499,colour,0.5
050,75,1,2,1,13,13,24.98967849215842,26.127911551768193,"[35, 0, 219]",219,a,0.6148329287825618,colour,0.5
050,75,1,2,1,14,14,26.645908122940455,27.44793185844901,"[57, 0, 197]",197,a,0.27872836755705066,colour,0.5
050,75,1,2,1,15,15,27.95845639365143,30.063952625117963,"[91, 0, 163]",163,l,1.5822138604416978,colour,0.5
050,75,1,2,1,16,16,30.583451716724085,31.567964925721753,"[95, 0, 159]",159,l,0.46115325039136223,colour,0.5
050,75,1,2,1,17,17,32.08399620806449,33.199932101066224,"[65, 0, 189]",189,a,0.5932175086345524,colour,0.5
050,75,1,2,1,18,18,33.7090344603057,34.72791107915691,"[50, 0, 204]",204,a,0.49567892457707785,colour,0.5
050,75,1,2,1,19,19,35.240207525057485,36.15190934308339,"[13, 0, 241]",241,a,0.3882650595624,colour,0.5
050,75,1,2,1,20,20,36.662055392807815,37.35198086540913,"[21, 0, 233]",233,a,0.1669258826004807,colour,0.5
050,75,1,2,1,21,21,37.86576644098386,38.57589894242119,"[88, 0, 166]",166,l,0.18693401946802624,colour,0.5
050,75,1,2,1,22,22,39.08441092734574,39.76789072522661,"[44, 0, 210]",210,a,0.1599812057102099,colour,0.5
050,75,1,2,1,23,23,40.28766235787771,41.24790326526272,"[27, 0, 227]",227,a,0.4370014654996339,colour,0.5
050,75,1,2,1,24,24,41.75637310871389,42.65589840678149,"[61, 0, 193]",193,a,0.3752614641562104,colour,0.5
050,75,1,2,1,25,25,43.16360300852102,43.80791330043576,"[31, 0, 223]",223,a,0.12109093615435995,colour,0.5
050,75,1,2,1,26,26,44.31983519930509,45.01588851338602,"[86, 0, 168]",168,l,0.1727996937406715,colour,0.5
050,75,1,2,1,27,27,45.52300786078558,46.127941484039184,"[1, 0, 253]",253,a,0.08170481520937756,colour,0.5
050,75,1,2,1,28,28,46.649125840340275,47.34392908893642,"[33, 0, 221]",221,a,0.17152914832695387,colour,0.5
050,75,1,2,1,29,29,47.85224966495298,48.64793209475465,"[76, 0, 178]",178,a,0.272385486488929,colour,0.5
050,75,1,2,1,30,30,49.16465457587037,49.75188405820518,"[94, 0, 160]",160,l,0.06411449558800086,colour,0.5
050,75,1,2,1,31,31,50.25841500048409,50.95988053880865,"[18, 0, 236]",236,a,0.1781024289666675,colour,0.5
050,75,1,2,1,32,32,51.4771488897386,52.02386191464029,"[66, 0, 188]",188,a,0.023338887869613245,colour,0.5
050,75,1,2,1,33,33,52.54104361956706,53.07189058029326,"[99, 0, 155]",155,l,0.007471642136806622,colour,0.5
050,75,1,2,1,34,34,53.603420075174654,54.23984597492381,"[32, 0, 222]",222,a,0.11298283975338563,colour,0.5
050,75,1,2,1,35,35,54.759750727331266,55.40790495093097,"[2, 0, 252]",252,a,0.13251009132363833,colour,0.5
050,75,1,2,1,36,36,55.9177304104378,56.6559129790694,"[79, 0, 175]",175,a,0.21563590090954676,colour,0.5
050,75,1,2,1,37,37,57.16764228750253,58.0078678506834,"[69, 0, 185]",185,a,0.3167718693439383,colour,0.5
050,75,1,2,1,38,38,58.52774148929166,59.22385151713388,"[30, 0, 224]",224,a,0.18174628712586127,colour,0.5
050,75,1,2,1,39,39,59.737394483876415,60.53592481018859,"[78, 0, 176]",176,a,0.27517391231958754,colour,0.5
050,75,1,2,1,40,40,61.04985768394545,61.679852875095094,"[10, 0, 244]",244,a,0.1066628017288167,colour,0.5
050,75,1,2,1,41,41,62.19043609328219,62.775853886501864,"[8, 0, 246]",246,a,0.06203814235050231,colour,0.5
050,75,1,2,1,42,42,63.28418115788372,63.911920796119375,"[64, 0, 190]",190,a,0.1043190274212975,colour,0.5
050,75,1,2,1,43,43,64.4247989517462,65.023845373129,"[49, 0, 205]",205,a,0.07409060100326315,colour,0.5
050,75,1,2,1,44,44,65.53579365965561,66.17587523293332,"[26, 0, 228]",228,a,0.11670507318922319,colour,0.5
050,75,1,2,1,45,45,66.69218378249207,67.41584605685784,"[52, 0, 202]",202,a,0.20049057391588576,colour,0.5
050,75,1,2,1,46,46,67.92639540429809,69.83987149610766,"[93, 0, 161]",161,l,1.3908352949947584,colour,0.5
050,75,1,2,1,47,47,70.3482909273589,71.0558335010428,"[9, 0, 245]",245,a,0.18420427659293637,colour,0.5
050,75,1,2,1,48,48,71.56697007207549,72.19993052567588,"[56, 0, 198]",198,a,0.10959143654326908,colour,0.5
050,75,1,2,1,49,49,72.70760480131139,73.27186482280376,"[98, 0, 156]",156,l,0.04085989066516049,colour,0.5
050,75,1,2,1,50,50,73.7857685520139,74.42384899652097,"[90, 0, 164]",164,a,0.11469843058148399,colour,0.5
050,75,1,2,2,1,51,79.55297753072227,80.65585744686541,"[86, 0, 168]",168,a,0.5785109254647978,colour,0.5
050,75,1,2,2,2,52,81.16321625228738,84.0078702137398,"[54, 0, 200]",200,a,2.321486593282316,colour,0.5
050,75,1,2,2,3,53,84.52397514521726,85.27983349791612,"[0, 0, 254]",254,a,0.2326984675892163,colour,0.5
050,75,1,2,2,4,54,85.78935018257471,86.44787396315951,"[79, 0, 175]",175,a,0.13508229597937316,colour,0.5
050,75,1,2,2,5,55,86.96122512719012,87.6318127879349,"[48, 0, 206]",206,a,0.14752466161735356,colour,0.5
050,75,1,2,2,6,56,88.14874833947397,88.86383581056725,"[88, 0, 166]",166,l,0.18871853323071264,colour,0.5
050,75,1,2,2,7,57,89.37055264788796,91.34386292289128,"[74, 0, 180]",180,a,1.4499613440711983,colour,0.5
050,75,1,2,2,8,58,91.8544465349114,92.42380055351532,"[42, 0, 212]",212,a,0.04597673082025722,colour,0.5
050,75,1,2,2,9,59,92.93266857473645,93.639815333765,"[28, 0, 226]",226,a,0.18381673269323073,colour,0.5
050,75,1,2,2,10,60,94.15132802719017,94.94384315185016,"[43, 0, 211]",211,a,0.26914847068837844,colour,0.5
050,75,1,2,2,11,61,95.45688554103253,96.05581735339365,"[37, 0, 217]",217,a,0.07553601381368935,colour,0.5
050,75,1,2,2,12,62,96.56624263952835,97.35979121466517,"[5, 0, 249]",249,a,0.2700917305483017,colour,0.5
050,75,1,2,2,13,63,97.87195926695131,98.41577752772719,"[99, 0, 155]",155,l,0.020466966787353158,colour,0.5
050,75,1,2,2,14,64,98.93452358682407,99.58384753140854,"[4, 0, 250]",250,a,0.12595807830803096,colour,0.5
050,75,1,2,2,15,65,100.09072545153322,101.03181719899294,"[32, 0, 222]",222,a,0.4248521208646707,colour,0.5
050,75,1,2,2,16,66,101.55279045415227,102.27178014602396,"[60, 0, 194]",194,a,0.19574355462100357,colour,0.5
050,75,1,2,2,17,67,102.78691818687366,103.52778402462718,"[16, 0, 238]",238,a,0.21769334957934916,colour,0.5
050,75,1,2,2,18,68,104.03705967587302,104.68776523030829,"[13, 0, 241]",241,a,0.12737001426285133,colour,0.5
050,75,1,2,2,19,69,105.20900354345213,105.92776874342235,"[53, 0, 201]",201,a,0.19546746896230616,colour,0.5
050,75,1,2,2,20,70,106.44332898661378,107.28779114535428,"[15, 0, 239]",239,a,0.32115103700198233,colour,0.5
050,75,1,2,2,21,71,107.80416546709603,108.4478137048136,"[17, 0, 237]",237,a,0.12062816775869578,colour,0.5
050,75,1,2,2,22,72,108.96020427977783,109.55176488056895,"[73, 0, 181]",181,a,0.06820930680260062,colour,0.5
050,75,1,2,2,23,73,110.06968425805098,110.71979825661401,"[87, 0, 167]",167,l,0.1269356027187314,colour,0.5
050,75,1,2,2,24,74,111.2258168059343,112.08777515520342,"[46, 0, 208]",208,a,0.3385901199071668,colour,0.5
050,75,1,2,2,25,75,112.60080966749229,113.35977309776354,"[62, 0, 192]",192,a,0.23564876388991252,colour,0.5
050,75,1,2,2,26,76,113.8664615782327,114.48777799090021,"[44, 0, 210]",210,a,0.098449548589997,colour,0.5
050,75,1,2,2,27,77,115.00706952594919,115.71975887205917,"[59, 0, 195]",195,a,0.18940855044638738,colour,0.5
050,75,1,2,2,28,78,116.22818381714751,116.9037280229386,"[64, 0, 190]",190,a,0.15218739796546288,colour,0.5
050,75,1,2,2,29,79,117.41568497405387,118.11178476188798,"[63, 0, 191]",191,a,0.17276345996651798,colour,0.5
050,75,1,2,2,30,80,118.61881470636581,119.43978240826982,"[36, 0, 218]",218,a,0.2975364572776016,colour,0.5
050,75,1,2,2,31,81,119.94696240784833,120.65580191466142,"[14, 0, 240]",240,a,0.18573672929778695,colour,0.5
050,75,1,2,2,32,82,121.16562619261094,121.96778186634765,"[38, 0, 216]",216,a,0.27866929073934443,colour,0.5
050,75,1,2,2,33,83,122.47934182125027,123.17580276535591,"[66, 0, 188]",188,a,0.1730769609566778,colour,0.5
050,75,1,2,2,34,84,123.68249282118632,124.51976887573255,"[12, 0, 242]",242,a,0.31387946830363944,colour,0.5
050,75,1,2,2,35,85,125.02618717821315,125.59977897393401,"[82, 0, 172]",172,l,0.05076392233604565,colour,0.5
050,75,1,2,2,36,86,126.11999013813329,126.66379106973181,"[9, 0, 245]",245,a,0.02043545918422751,colour,0.5
050,75,1,2,2,37,87,127.1824237013061,127.83172047056723,"[8, 0, 246]",246,a,0.12597580134752207,colour,0.5
050,75,1,2,2,38,88,128.33801668093656,128.9197555637802,"[52, 0, 202]",202,a,0.05835293044219725,colour,0.5
050,75,1,2,2,39,89,129.43184327156632,130.08773301375913,"[41, 0, 213]",213,a,0.13260658344370313,colour,0.5
050,75,1,2,2,40,90,130.6059434430208,131.24777211472974,"[56, 0, 198]",198,a,0.11850179612520151,colour,0.5
050,75,1,2,2,41,91,131.75460671185283,132.60774843674153,"[6, 0, 248]",248,a,0.3299227629613597,colour,0.5
050,75,1,2,2,42,92,133.11398753951653,133.64778361501521,"[83, 0, 171]",171,l,0.017837654537288472,colour,0.5
050,75,1,2,2,43,93,134.16909282031702,134.72774251329247,"[3, 0, 251]",251,a,0.035256257513538,colour,0.5
050,75,1,2,2,44,94,135.24721679263166,135.85572535108076,"[85, 0, 169]",169,l,0.08546170697081834,colour,0.5
050,75,1,2,2,45,95,136.37222058340558,136.93576262463466,"[55, 0, 199]",199,a,0.04682231703191064,colour,0.5
050,75,1,2,2,46,96,137.44469011650654,138.0877471921849,"[35, 0, 219]",219,a,0.11972074781078845,colour,0.5
050,75,1,2,2,47,97,138.6008722889237,139.27973779346212,"[51, 0, 203]",203,a,0.15543189682648517,colour,0.5
050,75,1,2,2,48,98,139.78836675046477,140.51171867462108,"[50, 0, 204]",204,a,0.19996991020161659,colour,0.5
050,75,1,2,2,49,99,141.02274733199738,141.6557282655558,"[97, 0, 157]",157,l,0.11012312790262513,colour,0.5
050,75,1,2,2,50,100,142.16344271341222,142.73572497299756,"[57, 0, 197]",197,a,0.04773288770229556,colour,0.5
050,75,1,2,3,1,101,148.49184798984788,149.519690500485,"[9, 0, 245]",245,a,0.5027157613367308,colour,0.5
050,75,1,2,3,2,102,150.02581893271417,150.67972290609032,"[75, 0, 179]",179,a,0.13080474047455937,colour,0.5
050,75,1,2,3,3,103,151.19779036947875,152.85571708032512,"[31, 0, 223]",223,a,1.1346557613287587,colour,0.5
050,75,1,2,3,4,104,153.369614508003,154.95971472986275,"[30, 0, 224]",224,a,1.0667985523759853,colour,0.5
050,75,1,2,3,5,105,155.48028232419165,156.15169154654723,"[77, 0, 177]",177,a,0.1482461864943616,colour,0.5
050,75,1,2,3,6,106,156.66777914881823,158.3357914541266,"[71, 0, 183]",183,a,1.1445775160973426,colour,0.5
050,75,1,2,3,7,107,158.85501958004897,159.43169361029868,"[72, 0, 182]",182,a,0.05325026871287264,colour,0.5
050,75,1,2,3,8,108,159.94869611554896,160.70368013132247,"[11, 0, 243]",243,a,0.23155552806565538,colour,0.5
050,75,1,2,3,9,109,161.21577610989334,161.8636928446649,"[76, 0, 178]",178,a,0.12464736061519943,colour,0.5
050,75,1,2,3,10,110,162.3720236606605,163.0237540009839,"[40, 0, 214]",214,a,0.12839322476065718,colour,0.5
050,75,1,2,3,11,111,163.54388797146385,164.2076817980851,"[66, 0, 188]",188,a,0.1404649818141479,colour,0.5
050,75,1,2,3,12,112,164.71579206062597,165.3836980276683,"[25, 0, 229]",229,a,0.15309757480281405,colour,0.5
050,75,1,2,3,13,113,165.89467981742928,166.52771667705383,"[58, 0, 196]",196,a,0.10960088885622099,colour,0.5
050,75,1,2,3,14,114,167.03539016499417,167.6797236937855,"[18, 0, 236]",236,a,0.12094442563829944,colour,0.5
050,75,1,2,3,15,115,168.1915896666178,169.91971184691647,"[90, 0, 164]",164,a,1.2102429750666488,colour,0.5
050,75,1,2,3,16,116,170.42691744645708,171.39967200552928,"[53, 0, 201]",201,a,0.4493422190134879,colour,0.5
050,75,1,2,3,17,117,171.9112764649617,172.51169740696787,"[97, 0, 157]",157,l,0.07706137726199813,colour,0.5
050,75,1,2,3,18,118,173.0207434463373,173.767665839463,"[60, 0, 194]",194,a,0.2240519844344817,colour,0.5
050,75,1,2,3,19,119,174.28628035416477,174.95166177183273,"[69, 0, 185]",185,a,0.14203760673990473,colour,0.5
050,75,1,2,3,20,120,175.4581899571931,176.21568158699665,"[81, 0, 173]",173,a,0.23289223955362104,colour,0.5
050,75,1,2,3,21,121,176.72515416095848,177.2556608392042,"[34, 0, 220]",220,a,0.00714553811121732,colour,0.5
050,75,1,2,3,22,122,177.78766413018457,178.47166301638936,"[26, 0, 228]",228,a,0.16073148130089976,colour,0.5
050,75,1,2,3,23,123,178.99080095169484,179.6557038471219,"[0, 0, 254]",254,a,0.14164809355861507,colour,0.5
050,75,1,2,3,24,124,180.16265699174255,180.78368786646752,"[20, 0, 234]",234,a,0.09774653447675519,colour,0.5
050,75,1,2,3,25,125,181.30320940725505,182.6717065756966,"[89, 0, 165]",165,l,0.8450860099401325,colour,0.5
050,75,1,2,3,26,126,183.17963291241904,183.74366489739623,"[24, 0, 230]",230,a,0.040823656891006976,colour,0.5
050,75,1,2,3,27,127,184.25770962325623,184.9276635866845,"[87, 0, 167]",167,l,0.1465873094566632,colour,0.5
050,75,1,2,3,28,128,185.44518045408768,186.01564275383134,"[3, 0, 251]",251,a,0.04712912262766622,colour,0.5
050,75,1,2,3,29,129,186.52330678945873,187.3596714856394,"[10, 0, 244]",244,a,0.31298386375419796,colour,0.5
050,75,1,2,3,30,130,187.86957177578006,188.55965084812487,"[95, 0, 159]",159,l,0.16714131608023308,colour,0.5
050,75,1,2,3,31,131,189.0726069851662,189.83962849347154,"[98, 0, 156]",156,l,0.24366076200385578,colour,0.5
050,75,1,2,3,32,132,190.3538441482815,190.96764638350578,"[84, 0, 170]",170,a,0.09037256598821841,colour,0.5
050,75,1,2,3,33,133,191.47887038823683,192.27962475980166,"[12, 0, 242]",242,a,0.2774168621690478,colour,0.5
050,75,1,2,3,34,134,192.79135485595907,193.47165553332889,"[33, 0, 221]",221,a,0.15700964172719978,colour,0.5
050,75,1,2,3,35,135,193.9802372288832,194.66361777772545,"[86, 0, 168]",168,l,0.16021711911889724,colour,0.5
050,75,1,2,3,36,136,195.18336932425154,196.75962233371683,"[57, 0, 197]",197,a,1.0529135308170225,colour,0.5
050,75,1,2,3,37,137,197.27693912765244,197.8876382545277,"[47, 0, 207]",207,a,0.08738800510764122,colour,0.5
050,75,1,2,3,38,138,198.40196812452632,199.22360378832673,"[64, 0, 190]",190,a,0.29825955754495226,colour,0.5
050,75,1,2,3,39,139,199.730040601542,200.3836168955022,"[43, 0, 211]",211,a,0.1304140457941685,colour,0.5
050,75,1,2,3,40,140,200.90191357693402,201.5036649288959,"[85, 0, 169]",169,l,0.07838745490880683,colour,0.5
050,75,1,2,3,41,141,202.00880559670622,202.67167388650705,"[48, 0, 206]",206,a,0.13534302165498957,colour,0.5
050,75,1,2,3,42,142,203.18503962282557,203.81563227754668,"[38, 0, 216]",216,a,0.10720000695437193,colour,0.5
050,75,1,2,3,43,143,204.32569207510096,204.94358951537288,"[63, 0, 191]",191,a,0.09465839224867523,colour,0.5
050,75,1,2,3,44,144,205.45504667659407,206.12758269082406,"[91, 0, 163]",163,l,0.14905908351647668,colour,0.5
050,75,1,2,3,45,145,206.64271364247543,208.30360561577254,"[8, 0, 246]",246,a,1.1375729746359866,colour,0.5
050,75,1,2,3,46,146,208.81452675335458,209.5357267059153,"[37, 0, 217]",217,a,0.1979707506543491,colour,0.5
050,75,1,2,3,47,147,210.04894829480327,210.84763537158142,"[41, 0, 213]",213,a,0.2754267610725947,colour,0.5
050,75,1,2,3,48,148,211.36138510721503,212.30359892040724,"[35, 0, 219]",219,a,0.4309579069959,colour,0.5
050,75,1,2,3,49,149,212.81798077799613,213.551588437811,"[50, 0, 204]",204,a,0.21022446433198638,colour,0.5
050,75,1,2,3,50,150,214.06801317178179,214.75162884636666,"[15, 0, 239]",239,a,0.16031400513020344,colour,0.5
050,75,1,2,4,1,151,220.14649672497762,220.7195887308335,"[91, 0, 163]",163,a,0.04914561135228723,colour,0.5
050,75,1,2,4,2,152,221.22546470811358,221.88757878387696,"[17, 0, 237]",237,a,0.13879980324418284,colour,0.5
050,75,1,2,4,3,153,222.3974778924894,223.08761840473744,"[51, 0, 203]",203,a,0.1668699565634597,colour,0.5
050,75,1,2,4,4,154,223.60162098912406,224.2235679483856,"[4, 0, 250]",250,a,0.09860551138990559,colour,0.5
050,75,1,2,4,5,155,224.7423652073776,225.31156956474297,"[10, 0, 244]",244,a,0.045947586273541674,colour,0.5
050,75,1,2,4,6,156,225.8202583862585,226.36757990240585,"[59, 0, 195]",195,a,0.023832770093576983,colour,0.5
050,75,1,2,4,7,157,226.88291250291513,227.40760484070051,"[88, 0, 166]",166,l,0.001459197432268411,colour,0.5
050,75,1,2,4,8,158,227.9297387583938,228.6235629071598,"[12, 0, 242]",242,a,0.17070404207333922,colour,0.5
050,75,1,2,4,9,159,229.13368020617054,229.7918294397241,"[6, 0, 248]",248,a,0.13563249807339162,colour,0.5
050,75,1,2,4,10,160,230.30476470294525,230.91955037027947,"[7, 0, 247]",247,a,0.09160608996171504,colour,0.5
050,75,1,2,4,11,161,231.42970390306436,232.0075771927368,"[66, 0, 188]",188,a,0.05457595249754377,colour,0.5
050,75,1,2,4,12,162,232.5247951314377,233.1115366392478,"[20, 0, 234]",234,a,0.06341226914082654,colour,0.5
050,75,1,2,4,13,163,233.6185862759885,234.18366904064897,"[27, 0, 227]",227,a,0.04166727385018021,colour,0.5
050,75,1,2,4,14,164,234.6966708637483,235.29557195617235,"[44, 0, 210]",210,a,0.0760287144803442,colour,0.5
050,75,1,2,4,15,165,235.80603505147155,236.39959835642367,"[11, 0, 243]",243,a,0.07007416503620334,colour,0.5
050,75,1,2,4,16,166,236.91543429141166,237.5356219430396,"[81, 0, 173]",173,l,0.09739010431803763,colour,0.5
050,75,1,2,4,17,167,238.05598788848147,238.5995560574229,"[71, 0, 183]",183,a,0.020123533584410325,colour,0.5
050,75,1,2,4,18,168,239.11547745688586,239.77558095159475,"[14, 0, 240]",240,a,0.13681245906627737,colour,0.5
050,75,1,2,4,19,169,240.28734688766417,240.91156003368087,"[79, 0, 175]",175,l,0.10094022727571428,colour,0.5
050,75,1,2,4,20,170,241.42792766005732,242.06358398578595,"[32, 0, 222]",222,a,0.11997359659289941,colour,0.5
050,75,1,2,4,21,171,242.579303736391,243.1435606071027,"[92, 0, 162]",162,l,0.041000099619850516,colour,0.5
050,75,1,2,4,22,172,243.6573981702968,245.31156405090587,"[1, 0, 253]",253,a,1.1307870174350683,colour,0.5
050,75,1,2,4,23,173,245.81895278856973,246.3995664549293,"[24, 0, 230]",230,a,0.057102077262243256,colour,0.5
050,75,1,2,4,24,174,246.91285105908173,247.6075578155287,"[84, 0, 170]",170,l,0.17522696327068843,colour,0.5
050,75,1,2,4,25,175,248.12787689338438,248.6635291624989,"[61, 0, 193]",193,a,0.012315941246924922,colour,0.5
050,75,1,2,4,26,176,249.17470984422835,249.81551176082576,"[82, 0, 172]",172,l,0.1174529856943991,colour,0.5
050,75,1,2,4,27,177,250.33098693340435,251.04754778035567,"[99, 0, 155]",155,l,0.19347854939405806,colour,0.5
050,75,1,2,4,28,178,251.56529819814023,252.207544739882,"[26, 0, 228]",228,a,0.1188231740379706,colour,0.5
050,75,1,2,4,29,179,252.7215114843566,253.4155506727693,"[48, 0, 206]",206,a,0.1707044359354768,colour,0.5
050,75,1,2,4,30,180,253.92622447537724,254.53556247235974,"[83, 0, 171]",171,l,0.0866113418887835,colour,0.5
050,75,1,2,4,31,181,255.0510908140859,255.6235506979574,"[55, 0, 199]",199,a,0.04911055910633877,colour,0.5
050,75,1,2,4,32,182,256.1448165802867,256.7835941312369,"[47, 0, 207]",207,a,0.11538647857378237,colour,0.5
050,75,1,2,4,33,183,257.3010613741353,257.92750604849425,"[43, 0, 211]",211,a,0.10308629114297219,colour,0.5
050,75,1,2,4,34,184,258.4416417526663,259.1035900194838,"[31, 0, 223]",223,a,0.1386635327071417,colour,0.5
050,75,1,2,4,35,185,259.61359940483817,260.1675359492365,"[89, 0, 165]",165,l,0.030816043843515217,colour,0.5
050,75,1,2,4,36,186,260.67604793416103,262.7755581085512,"[97, 0, 157]",157,l,1.5763416246918496,colour,0.5
050,75,1,2,4,37,187,263.28668522730004,263.91154979370185,"[65, 0, 189]",189,a,0.10137266956735402,colour,0.5
050,75,1,2,4,38,188,264.42738139641006,265.02394737911527,"[70, 0, 184]",184,a,0.0731335565506015,colour,0.5
050,75,1,2,4,39,189,265.5366120705148,266.15951174192014,"[56, 0, 198]",198,a,0.09934987931046635,colour,0.5
050,75,1,2,4,40,190,266.67736298413365,267.29548964247806,"[98, 0, 156]",156,l,0.0948060842929408,colour,0.5
050,75,1,2,4,41,191,267.8023860733083,268.4475565237226,"[45, 0, 209]",209,a,0.12180694719427265,colour,0.5
050,75,1,2,4,42,192,268.9603653625527,269.52752999428776,"[93, 0, 161]",161,l,0.04383854384650476,colour,0.5
050,75,1,2,4,43,193,270.03836645509,270.56750530804857,"[29, 0, 225]",225,a,0.005656408437062055,colour,0.5
050,75,1,2,4,44,194,271.08539987326367,271.79951415225514,"[15, 0, 239]",239,a,0.1908244248770643,colour,0.5
050,75,1,2,4,45,195,272.3195535998093,273.0395011238579,"[39, 0, 215]",215,a,0.19676637128577568,colour,0.5
050,75,1,2,4,46,196,273.55388928294997,274.3115163955954,"[62, 0, 192]",192,a,0.2342533694463782,colour,0.5
050,75,1,2,4,47,197,274.8217199467472,275.50350975379115,"[2, 0, 252]",252,a,0.15850113448686898,colour,0.5
050,75,1,2,4,48,198,276.0130473122699,276.99949824091163,"[18, 0, 236]",236,a,0.46328080355306156,colour,0.5
050,75,1,2,4,49,199,277.512984887755,278.29550421473687,"[63, 0, 191]",191,a,0.2633707578352187,colour,0.5
050,75,1,2,4,50,200,278.7932157757168,279.559479919204,"[80, 0, 174]",174,l,0.247517690557288,colour,0.5
050,75,1,2,5,1,201,285.7895703421964,286.3755048606545,"[26, 0, 228]",228,a,0.06181128736352548,colour,0.4
050,75,1,2,5,2,202,286.88407946698135,287.52745280059753,"[84, 0, 170]",170,l,0.12013704248238355,colour,0.4
050,75,1,2,5,3,203,288.0402750301582,288.78344643919263,"[0, 0, 254]",254,a,0.22010053298436105,colour,0.4
050,75,1,2,5,4,204,289.2903255408455,290.84746523035574,"[61, 0, 193]",193,a,1.03281362800044,colour,0.4
050,75,1,2,5,5,205,291.35387723130407,292.8315117324819,"[97, 0, 157]",157,l,0.9542698164586909,colour,0.4
050,75,1,2,5,6,206,293.33824235439533,294.83148140637786,"[80, 0, 174]",174,a,0.9698775180149823,colour,0.4
050,75,1,2,5,7,207,295.33825810821145,296.34355296651484,"[53, 0, 201]",201,a,0.4819668011914473,colour,0.4
050,75,1,2,5,8,208,296.85381480678916,297.51945616243756,"[85, 0, 169]",169,l,0.14222468330990523,colour,0.4
050,75,1,2,5,9,209,298.02568935757154,298.59147868095897,"[59, 0, 195]",195,a,0.04286771480110474,colour,0.4
050,75,1,2,5,10,210,299.10533278563526,299.78351142368047,"[20, 0, 234]",234,a,0.1549340761557687,colour,0.4
050,75,1,2,5,11,211,300.2927500534861,300.91144503079704,"[21, 0, 233]",233,a,0.09534447101759724,colour,0.4
050,75,1,2,5,12,212,301.4178542748268,302.1354954398703,"[25, 0, 229]",229,a,0.19456910746521316,colour,0.4
050,75,1,2,5,13,213,302.651925293816,303.31143447573413,"[5, 0, 249]",249,a,0.13615591867710464,colour,0.4
050,75,1,2,5,14,214,303.824675756885,304.5114425889624,"[68, 0, 186]",186,a,0.16427254577865824,colour,0.4
050,75,1,2,5,15,215,305.02842618964496,305.7274412215338,"[69, 0, 185]",185,a,0.17606742950738408,colour,0.4
050,75,1,2,5,16,216,306.2471281774051,306.77544980106177,"[93, 0, 161]",161,l,0.005227510730037466,colour,0.4
050,75,1,2,5,17,217,307.29394970674184,308.6474271848856,"[75, 0, 179]",179,a,0.83007537809317,colour,0.4
050,75,1,2,5,18,218,309.1689923897211,309.71143534220755,"[92, 0, 162]",162,l,0.01909205233096145,colour,0.4
050,75,1,2,5,19,219,310.23140980527387,310.9674565499881,"[88, 0, 166]",166,l,0.2102701504190918,colour,0.4
050,75,1,2,5,20,220,311.4838143302477,312.0394396839547,"[10, 0, 244]",244,a,0.03233234884100966,colour,0.4
050,75,1,2,5,21,221,312.54544129793067,313.1914246453671,"[71, 0, 183]",183,a,0.12267301336396486,colour,0.4
050,75,1,2,5,22,222,313.7016372549406,314.615420152375,"[44, 0, 210]",210,a,0.3903445635805838,colour,0.4
050,75,1,2,5,23,223,315.1235552271828,315.7594569186331,"[28, 0, 226]",226,a,0.11249762214720249,colour,0.4
050,75,1,2,5,24,224,316.2750069218455,316.82343750676955,"[16, 0, 238]",238,a,0.025067475566174835,colour,0.4
050,75,1,2,5,25,225,317.32860574376537,317.9514396429877,"[38, 0, 216]",216,a,0.09944873451604508,colour,0.4
050,75,1,2,5,26,226,318.4692566206504,319.0793937300623,"[17, 0, 237]",237,a,0.08685119374422356,colour,0.4
050,75,1,2,5,27,227,319.5817337628396,320.5753715833416,"[70, 0, 184]",184,a,0.4789688495802693,colour,0.4
050,75,1,2,5,28,228,321.08901222379063,322.6634180980618,"[27, 0, 227]",227,a,1.0510522171971388,colour,0.4
050,75,1,2,5,29,229,323.1733577727573,324.3514058510482,"[98, 0, 156]",156,l,0.6546995411918033,colour,0.4
050,75,1,2,5,30,230,324.8608473112399,327.68743991394877,"[87, 0, 167]",167,l,2.3031920780194923,colour,0.4
050,75,1,2,5,31,231,328.2045979881659,328.8474293904146,"[89, 0, 165]",165,l,0.11962661874713376,colour,0.4
050,75,1,2,5,32,232,329.36080182209844,330.1593585360388,"[79, 0, 175]",175,a,0.2752188106824178,colour,0.4
050,75,1,2,5,33,233,330.67340641267947,331.2794034186809,"[3, 0, 251]",251,a,0.08268155192490667,colour,0.4
050,75,1,2,5,34,234,331.80045623058686,332.5033955386025,"[96, 0, 158]",158,l,0.1795588694512844,colour,0.4
050,75,1,2,5,35,235,333.01930000272114,333.6153941585799,"[77, 0, 177]",177,a,0.07154596550390124,colour,0.4
050,75,1,2,5,36,236,334.1302628091362,334.87940373373567,"[83, 0, 171]",171,a,0.22591763036325574,colour,0.4
050,75,1,2,5,37,237,335.3959292921354,336.0554258710181,"[91, 0, 163]",163,l,0.1363047922786791,colour,0.4
050,75,1,2,5,38,238,336.5677758798993,337.1593987082888,"[78, 0, 176]",176,a,0.06832942969049327,colour,0.4
050,75,1,2,5,39,239,337.67714479373535,338.34336628377787,"[19, 0, 235]",235,a,0.14282884224667214,colour,0.4
050,75,1,2,5,40,240,338.8646581598732,339.48735066858353,"[90, 0, 164]",164,l,0.0992053380177822,colour,0.4
050,75,1,2,5,41,241,340.00536338743404,340.63137680102955,"[47, 0, 207]",207,a,0.10270071646664292,colour,0.4
050,75,1,2,5,42,242,341.1485226660152,341.7033473319316,"[95, 0, 159]",159,l,0.03160452246083878,colour,0.4
050,75,1,2,5,43,243,342.2097215237154,342.8553992470552,"[67, 0, 187]",187,a,0.1222945278568659,colour,0.4
050,75,1,2,5,44,244,343.36593441606965,344.07938979161554,"[18, 0, 236]",236,a,0.1900142847734969,colour,0.4
050,75,1,2,5,45,245,344.60034256678773,345.2874295952206,"[73, 0, 181]",181,a,0.1637605467112735,colour,0.4
050,75,1,2,5,46,246,345.80341204072465,346.4474328562501,"[2, 0, 252]",252,a,0.12064274001750164,colour,0.4
050,75,1,2,5,47,247,346.9611715642095,347.8954068561434,"[50, 0, 204]",204,a,0.41087730255094357,colour,0.4
050,75,1,2,5,48,248,348.41431084726355,349.7673617907858,"[14, 0, 240]",240,a,0.8300060612964444,colour,0.4
050,75,1,2,5,49,249,350.2744236367289,351.18341067802976,"[94, 0, 160]",160,l,0.3856873410695698,colour,0.4
050,75,1,2,5,50,250,351.69620376304374,352.2713528237073,"[22, 0, 232]",232,a,0.051888744957977906,colour,0.4
050,75,1,2,6,1,251,372.0442713800003,374.415312396246,"[80, 0, 174]",174,a,1.8458559777936898,colour,0.28
050,75,1,2,6,2,252,374.9369228933356,378.83934374319506,"[92, 0, 162]",162,l,3.379045925132232,colour,0.28
050,75,1,2,6,3,253,379.3590846559091,380.0793200809567,"[93, 0, 161]",161,l,0.19675455588730983,colour,0.28
050,75,1,2,6,4,254,380.5934928066272,381.11978494463256,"[85, 0, 169]",169,l,0.0028569549322128296,colour,0.28
050,75,1,2,6,5,255,381.64042579420493,383.35932214470813,"[87, 0, 167]",167,l,1.1956332778790966,colour,0.28
050,75,1,2,6,6,256,383.8761734133295,384.5593038702791,"[73, 0, 181]",181,a,0.1598555689852219,colour,0.28
050,75,1,2,6,7,257,385.07924406879465,385.631313785736,"[62, 0, 192]",192,a,0.029015776264714077,colour,0.28
050,75,1,2,6,8,258,386.1417044134869,386.81531483810977,"[52, 0, 202]",202,a,0.15425508661428466,colour,0.28
050,75,1,2,6,9,259,387.31392869900446,387.8713157234597,"[63, 0, 191]",191,a,0.034353957569692284,colour,0.28
050,75,1,2,6,10,260,388.3920845728135,389.04729611310177,"[66, 0, 188]",188,a,0.13029471060144715,colour,0.28
050,75,1,2,6,11,261,389.55471635842696,390.3832852776395,"[94, 0, 160]",160,l,0.30532041887636296,colour,0.28
050,75,1,2,6,12,262,390.89845797690214,392.0233786662575,"[18, 0, 236]",236,a,0.6016485583095346,colour,0.28
050,75,1,2,6,13,263,392.5336861926189,393.12730424207984,"[71, 0, 183]",183,a,0.07020137712243013,colour,0.28
050,75,1,2,6,14,264,393.64312678633723,394.3753492916876,"[32, 0, 222]",222,a,0.20946394876227714,colour,0.28
050,75,1,2,6,15,265,394.88469189667376,395.52727832706296,"[75, 0, 179]",179,a,0.11901537061203271,colour,0.28
050,75,1,2,6,16,266,396.0410449980409,396.67127413337585,"[45, 0, 209]",209,a,0.10695700428914279,colour,0.28
050,75,1,2,6,17,267,397.18164506883477,397.767297200131,"[55, 0, 199]",199,a,0.06875793353538029,colour,0.28
050,75,1,2,6,18,268,398.2846151755948,398.9353010377672,"[59, 0, 195]",195,a,0.12745154029107653,colour,0.28
050,75,1,2,6,19,269,399.4564145018812,400.07926573031,"[76, 0, 178]",178,a,0.09938532541855238,colour,0.28
050,75,1,2,6,20,270,400.5993677992956,401.279273055814,"[30, 0, 224]",224,a,0.15664375928463414,colour,0.28
050,75,1,2,6,21,271,401.786712599569,402.44739583478076,"[99, 0, 155]",155,l,0.13728625513613224,colour,0.28
050,75,1,2,6,22,272,402.95866237481823,403.6872721358086,"[81, 0, 173]",173,a,0.20516709485673346,colour,0.28
050,75,1,2,6,23,273,404.2086112733523,404.95928622601787,"[72, 0, 182]",182,a,0.22747804608661681,colour,0.28
050,75,1,2,6,24,274,405.47442938687163,406.13529339715024,"[26, 0, 228]",228,a,0.13767182984156534,colour,0.28
050,75,1,2,6,25,275,406.64616806095,407.3433209915529,"[28, 0, 226]",226,a,0.17404621464083903,colour,0.28
050,75,1,2,6,26,276,407.8507912552159,408.5272468194016,"[50, 0, 204]",204,a,0.15312908243504353,colour,0.28
050,75,1,2,6,27,277,409.0382849290909,409.9352431424777,"[38, 0, 216]",216,a,0.3735746240708977,colour,0.28
050,75,1,2,6,28,278,410.4445069783542,411.09524600967416,"[56, 0, 198]",198,a,0.12739364500157535,colour,0.28
050,75,1,2,6,29,279,411.61639570756233,412.33530466113007,"[4, 0, 250]",250,a,0.19558995487750508,colour,0.28
050,75,1,2,6,30,280,412.8507928306062,413.3753437778505,"[90, 0, 164]",164,l,0.0012638500484172255,colour,0.28
050,75,1,2,6,31,281,413.897624599922,414.95924644763,"[47, 0, 207]",207,a,0.5385490024636965,colour,0.28
050,75,1,2,6,32,282,415.4757613721886,416.27923918512533,"[74, 0, 180]",180,a,0.2783821774064563,colour,0.28
050,75,1,2,6,33,283,416.78994528306066,417.7832569995371,"[65, 0, 189]",189,a,0.4698725949274376,colour,0.28
050,75,1,2,6,34,284,418.2899903783691,418.9032034208067,"[31, 0, 223]",223,a,0.08985899153049104,colour,0.28
050,75,1,2,6,35,285,419.41496344917687,420.0472283716954,"[7, 0, 247]",247,a,0.10887897011707537,colour,0.28
050,75,1,2,6,36,286,420.5556533167546,421.23923984676367,"[89, 0, 165]",165,l,0.16023405446321703,colour,0.28
050,75,1,2,6,37,287,421.7587377568416,422.50321830814937,"[83, 0, 171]",171,l,0.2189926457067486,colour,0.28
050,75,1,2,6,38,288,423.01093433139613,423.7192133961071,"[82, 0, 172]",172,l,0.185207400994841,colour,0.28
050,75,1,2,6,39,289,424.22937874426134,424.9672671103326,"[41, 0, 213]",213,a,0.2146619210834615,colour,0.28
050,75,1,2,6,40,290,425.47936742118327,426.2632549672853,"[67, 0, 187]",187,a,0.26064337804564275,colour,0.28
050,75,1,2,6,41,291,426.77087174149347,427.3672218968859,"[19, 0, 235]",235,a,0.07302091675228439,colour,0.28
050,75,1,2,6,42,292,427.8712976065581,428.6232068708923,"[86, 0, 168]",168,l,0.22900065261637792,colour,0.28
050,75,1,2,6,43,293,429.13685420670663,429.98323714971775,"[48, 0, 206]",206,l,0.3228898646484595,colour,0.28
050,75,1,2,6,44,294,430.4962748127582,431.287214555603,"[54, 0, 200]",200,a,0.2737607948074583,colour,0.28
050,75,1,2,6,45,295,431.8025743314356,432.5832169848436,"[88, 0, 166]",166,l,0.2573047501500696,colour,0.28
050,75,1,2,6,46,296,433.10028486841475,433.81521125673316,"[69, 0, 185]",185,a,0.1923903544084169,colour,0.28
050,75,1,2,6,47,297,434.333926595893,434.93521242254064,"[58, 0, 196]",196,a,0.078381153405644,colour,0.28
050,75,1,2,6,48,298,435.4432356452162,436.38350149878534,"[84, 0, 170]",170,l,0.41704098394257016,colour,0.28
050,75,1,2,6,49,299,436.89793573782663,437.48718485963764,"[96, 0, 158]",158,l,0.0662648917932529,colour,0.28
050,75,1,2,6,50,300,438.0070927628258,438.83123525296105,"[95, 0, 159]",159,l,0.30093455588212237,colour,0.28
050,75,1,2,7,1,301,453.35265237191925,453.95921493999776,"[90, 0, 164]",164,a,0.08230385414208286,colour,0.14
050,75,1,2,7,2,302,454.47851080732653,455.15918681942276,"[96, 0, 158]",158,l,0.15732905038748868,colour,0.14
050,75,1,2,7,3,303,455.66599227197,456.40719681678456,"[55, 0, 199]",199,a,0.21785679541062564,colour,0.14
050,75,1,2,7,4,304,456.9160526288033,457.7191822823079,"[94, 0, 160]",160,l,0.2804569552245084,colour,0.14
050,75,1,2,7,5,305,458.2285118903965,459.13513782818336,"[99, 0, 155]",155,l,0.3832647976523731,colour,0.14
050,75,1,2,7,6,306,459.6504062319,460.35914412655984,"[87, 0, 167]",167,l,0.19767812348436564,colour,0.14
050,75,1,2,7,7,307,460.8699404151412,461.6231210125843,"[56, 0, 198]",198,a,0.22967412834987044,colour,0.14
050,75,1,2,7,8,308,462.13577664553304,462.83919132500887,"[9, 0, 245]",245,a,0.18017444989527576,colour,0.14
050,75,1,2,7,9,309,463.354366387357,464.11917684724904,"[77, 0, 177]",177,a,0.24912654922809452,colour,0.14
050,75,1,2,7,10,310,464.6282031943265,465.4551841286593,"[73, 0, 181]",181,a,0.30364775721682236,colour,0.14
050,75,1,2,7,11,311,465.972087384871,466.66318691079505,"[62, 0, 192]",192,a,0.16786599170882255,colour,0.14
050,75,1,2,7,12,312,467.17516079725465,467.8471210094285,"[81, 0, 173]",173,a,0.1486581488570664,colour,0.14
050,75,1,2,7,13,313,468.36256349281757,469.0551722345408,"[65, 0, 189]",189,a,0.16931494916207157,colour,0.14
050,75,1,2,7,14,314,469.5656845605117,470.5751640267845,"[85, 0, 169]",169,a,0.48600804939633235,colour,0.14
050,75,1,2,7,15,315,471.08132475434104,471.67917782400036,"[60, 0, 194]",194,a,0.07455730787478387,colour,0.14
050,75,1,2,7,16,316,472.1907322650368,472.8791544295673,"[82, 0, 172]",172,a,0.16299530497053638,colour,0.14
050,75,1,2,7,17,317,473.3959903382056,474.0951298252621,"[10, 0, 244]",244,a,0.17607176178717054,colour,0.14
050,75,1,2,7,18,318,474.614688387519,475.22320324750035,"[11, 0, 243]",243,a,0.08513678450253792,colour,0.14
050,75,1,2,7,19,319,475.7398260857444,476.37511062136036,"[57, 0, 197]",197,a,0.11217506273533218,colour,0.14
050,75,1,2,7,20,320,476.8959058583423,477.5591522397881,"[91, 0, 163]",163,l,0.13995770885958336,colour,0.14
050,75,1,2,7,21,321,478.06789935045526,478.6391249226581,"[68, 0, 186]",186,a,0.04817596383509226,colour,0.14
050,75,1,2,7,22,322,479.145923286007,479.7431367506215,"[71, 0, 183]",183,a,0.073930699727498,colour,0.14
050,75,1,2,7,23,323,480.25537411970436,480.99910085083684,"[97, 0, 157]",157,l,0.2203789817285724,colour,0.14
050,75,1,2,7,24,324,481.5053139598167,482.047150784143,"[54, 0, 200]",200,a,0.016892425453988835,colour,0.14
050,75,1,2,7,25,325,482.56937528628623,483.32710361719364,"[76, 0, 178]",178,a,0.23450621822848916,colour,0.14
050,75,1,2,7,26,326,483.8349377940758,484.4631311422854,"[51, 0, 203]",203,a,0.10484126649680547,colour,0.14
050,75,1,2,7,27,327,484.9756426278036,485.6311546721845,"[75, 0, 179]",179,a,0.13228717478341423,colour,0.14
050,75,1,2,7,28,328,486.1473391604086,486.9111338928924,"[86, 0, 168]",168,a,0.24056474288227037,colour,0.14
050,75,1,2,7,29,329,487.42873386171414,488.11912564735394,"[50, 0, 204]",204,a,0.16587628447450697,colour,0.14
050,75,1,2,7,30,330,488.63323496386874,489.23112032885547,"[63, 0, 191]",191,a,0.07461126468842849,colour,0.14
050,75,1,2,7,31,331,489.7425455886114,490.3991178649594,"[53, 0, 201]",201,a,0.13324106848449446,colour,0.14
050,75,1,2,7,32,332,490.91450127153075,491.5190867354104,"[84, 0, 170]",170,l,0.08192458096891642,colour,0.14
050,75,1,2,7,33,333,492.03945898238453,492.6391627318226,"[58, 0, 196]",196,a,0.07640365534462035,colour,0.14
050,75,1,2,7,34,334,493.14878496708116,493.7831187597767,"[70, 0, 184]",184,a,0.11093641878687777,colour,0.14
050,75,1,2,7,35,335,494.28945396086783,494.9830993038195,"[66, 0, 188]",188,a,0.17028538437443785,colour,0.14
050,75,1,2,7,36,336,495.4925376132305,496.17514307421516,"[67, 0, 187]",187,a,0.15931442534201778,colour,0.14
050,75,1,2,7,37,337,496.69567837321665,497.51111057723756,"[80, 0, 174]",174,a,0.2982575883215759,colour,0.14
050,75,1,2,7,38,338,498.018047968013,498.6390607258654,"[44, 0, 210]",210,a,0.09822899513528682,colour,0.14
050,75,1,2,7,39,339,499.15868899875204,499.75910167003167,"[2, 0, 252]",252,a,0.08489338800427504,colour,0.14
050,75,1,2,7,40,340,500.2759497878724,501.67110517367837,"[78, 0, 176]",176,l,0.8693429515697062,colour,0.14
050,75,1,2,7,41,341,502.18470879265806,502.70367422365234,"[64, 0, 190]",190,a,0.004475265915971249,colour,0.14
050,75,1,2,7,42,342,503.2381906424707,503.8151183092268,"[79, 0, 175]",175,a,0.05355746817076579,colour,0.14
050,75,1,2,7,43,343,504.3320609499642,504.9756804369681,"[20, 0, 234]",234,a,0.12036192821688019,colour,0.14
050,75,1,2,7,44,344,505.48835300526116,506.03113584636594,"[88, 0, 166]",166,l,0.019572937628254294,colour,0.14
050,75,1,2,7,45,345,506.5507231593365,507.1991069948126,"[61, 0, 193]",193,a,0.12519913809956051,colour,0.14
050,75,1,2,7,46,346,507.7069860700867,508.3750897475402,"[69, 0, 185]",185,a,0.14476183574879542,colour,0.14
050,75,1,2,7,47,347,508.8944253932859,510.1830625186558,"[89, 0, 165]",165,l,0.7652393576281611,colour,0.14
050,75,1,2,7,48,348,510.69131653479417,512.0471047042229,"[22, 0, 232]",232,a,0.8323813432361931,colour,0.14
050,75,1,2,7,49,349,512.5663383439824,513.4230884809222,"[74, 0, 180]",180,a,0.3333563076448627,colour,0.14
050,75,1,2,7,50,350,513.941385162354,514.5350666209415,"[93, 0, 161]",161,l,0.07091581277200021,colour,0.14
050,75,1,2,8,1,351,528.693652038346,531.0390631677001,"[53, 0, 201]",201,a,1.8212705690821167,colour,0.06
050,75,1,2,8,2,352,531.5551228069235,532.1110364555207,"[89, 0, 165]",165,a,0.032516274659428746,colour,0.06
050,75,1,2,8,3,353,532.6176193853898,533.231026987487,"[87, 0, 167]",167,a,0.08999880665214732,colour,0.06
050,75,1,2,8,4,354,533.7426432622888,534.4310571560345,"[78, 0, 176]",176,a,0.17564562099869363,colour,0.06
050,75,1,2,8,5,355,534.9511722219468,535.5350603194092,"[81, 0, 173]",173,a,0.06114017471554689,colour,0.06
050,75,1,2,8,6,356,536.0563069032796,537.4710683097364,"[95, 0, 159]",159,l,0.8914428016287275,colour,0.06
050,75,1,2,8,7,357,537.9913503661228,538.5749836455798,"[92, 0, 162]",162,l,0.06031979463296011,colour,0.06
050,75,1,2,8,8,358,539.0853069257573,539.6870177116361,"[60, 0, 194]",194,a,0.07842644563061185,colour,0.06
050,75,1,2,8,9,359,540.1945112122048,540.8230334213295,"[96, 0, 158]",158,l,0.1051910012611188,colour,0.06
050,75,1,2,8,10,360,541.33510261841,541.895041367563,"[97, 0, 157]",157,l,0.03653704293537885,colour,0.06
050,75,1,2,8,11,361,542.4019444937876,543.0070289598661,"[77, 0, 177]",177,a,0.08183202729560435,colour,0.06
050,75,1,2,8,12,362,543.5131735397445,544.2309777567862,"[34, 0, 220]",220,a,0.1947467317513656,colour,0.06
050,75,1,2,8,13,363,544.7433596671617,545.3510486332234,"[64, 0, 190]",190,a,0.0846996160398703,colour,0.06
050,75,1,2,8,14,364,545.8679432248173,546.4870871859603,"[51, 0, 203]",203,a,0.09564143046736717,colour,0.06
050,75,1,2,8,15,365,547.0086551477434,547.6629911696073,"[19, 0, 235]",235,a,0.1431809400964994,colour,0.06
050,75,1,2,8,16,366,548.1709080540459,548.831033210241,"[52, 0, 202]",202,a,0.13703458791133016,colour,0.06
050,75,1,2,8,17,367,549.3427542479185,550.0630369344435,"[80, 0, 174]",174,l,0.19692509097512811,colour,0.06
050,75,1,2,8,18,368,550.5771104110463,551.9750487088459,"[76, 0, 178]",178,a,0.8745814899739344,colour,0.06
050,75,1,2,8,19,369,552.4833452602907,553.1909985045786,"[54, 0, 200]",200,a,0.18425547651713714,colour,0.06
050,75,1,2,8,20,370,553.7039633062086,554.3989965605724,"[65, 0, 189]",189,a,0.17177254482521676,colour,0.06
050,75,1,2,8,21,371,554.9070981584955,555.7270028715429,"[63, 0, 191]",191,a,0.2965274252346717,colour,0.06
050,75,1,2,8,22,372,556.2352214415732,556.839010156109,"[55, 0, 199]",199,a,0.08039527904475108,colour,0.06
050,75,1,2,8,23,373,557.3602311400173,558.1030354850809,"[68, 0, 186]",186,a,0.21947038025246002,colour,0.06
050,75,1,2,8,24,374,558.6102391153981,559.3509903441009,"[66, 0, 188]",188,a,0.21746688842540607,colour,0.06
050,75,1,2,8,25,375,559.8621548781521,560.5110704050167,"[61, 0, 193]",193,a,0.1256390634807758,colour,0.06
050,75,1,2,8,26,376,561.0184063673951,561.7670585297747,"[62, 0, 192]",192,a,0.22599443022045307,colour,0.06
050,75,1,2,8,27,377,562.2839767521073,562.934992656752,"[82, 0, 172]",172,l,0.12761616765055805,colour,0.06
050,75,1,2,8,28,378,563.4559568534605,564.3829690197308,"[84, 0, 170]",170,l,0.40367623226484284,colour,0.06
050,75,1,2,8,29,379,564.8933962750889,565.6069379028049,"[71, 0, 183]",183,a,0.1902576812717598,colour,0.06
050,75,1,2,8,30,380,566.1144577910018,567.2389956625993,"[69, 0, 185]",185,a,0.6011034762195777,colour,0.06
050,75,1,2,8,31,381,567.7549993757566,568.5590021846583,"[57, 0, 197]",197,a,0.28053808739059605,colour,0.06
050,75,1,2,8,32,382,569.0674932957627,569.7429839386023,"[88, 0, 166]",166,l,0.1520144998212345,colour,0.06
050,75,1,2,8,33,383,570.2550992155739,571.0549741302675,"[94, 0, 160]",160,l,0.2765409498824738,colour,0.06
050,75,1,2,8,34,384,571.5653714533837,572.3189466839831,"[42, 0, 212]",212,a,0.22609840545919724,colour,0.06
050,75,1,2,8,35,385,572.8346904591308,573.5829653175897,"[75, 0, 179]",179,a,0.22559034480946139,colour,0.06
050,75,1,2,8,36,386,574.0996830725635,574.8469351143576,"[79, 0, 175]",175,a,0.23502570038544945,colour,0.06
050,75,1,2,8,37,387,575.354220270674,576.1749563914782,"[59, 0, 195]",195,a,0.29787516439682804,colour,0.06
050,75,1,2,8,38,388,576.6823526122025,577.4229872626602,"[74, 0, 180]",180,a,0.21742395928595215,colour,0.06
050,75,1,2,8,39,389,577.933352684282,578.6309435710136,"[99, 0, 155]",155,l,0.1742250204551965,colour,0.06
050,75,1,2,8,40,390,579.1521732195397,580.174935517658,"[86, 0, 168]",168,l,0.49941848719026893,colour,0.06
050,75,1,2,8,41,391,580.6785748465918,581.7990053039393,"[85, 0, 169]",169,l,0.597108307905728,colour,0.06
050,75,1,2,8,42,392,582.3192208004184,582.9509457607928,"[90, 0, 164]",164,l,0.10835830640280619,colour,0.06
050,75,1,2,8,43,393,583.4598425327276,584.0869413843902,"[70, 0, 184]",184,a,0.10372786541120149,colour,0.06
050,75,1,2,8,44,394,584.6005079818715,585.2309434922354,"[98, 0, 156]",156,a,0.10746703413315117,colour,0.06
050,75,1,2,8,45,395,585.7411088403896,586.4389332774736,"[67, 0, 187]",187,a,0.1746098074654583,colour,0.06
050,75,1,2,8,46,396,586.9598005881708,587.9749849058862,"[91, 0, 163]",163,l,0.4918783159228042,colour,0.06
050,75,1,2,8,47,397,588.4911390680354,589.2549696404312,"[72, 0, 182]",182,a,0.24091172072803602,colour,0.06
050,75,1,2,8,48,398,589.7723195173894,591.0309731882007,"[50, 0, 204]",204,a,0.735459521150915,colour,0.06
050,75,1,2,8,49,399,591.5382827629219,592.4469606355415,"[56, 0, 198]",198,a,0.38531830784631893,colour,0.06
050,75,1,2,8,50,400,592.9615350835666,593.758936648781,"[58, 0, 196]",196,a,0.2741487325693015,colour,0.06
050,75,1,2,9,1,401,599.2276442488655,599.9749207090645,"[99, 0, 155]",155,l,0.22314929065760225,colour,0.06
050,75,1,2,9,2,402,600.4940921212547,601.9269109480083,"[62, 0, 192]",192,a,0.9095825356198475,colour,0.06
050,75,1,2,9,3,403,602.4471441675269,603.1989029828692,"[71, 0, 183]",183,a,0.2284811704303138,colour,0.06
050,75,1,2,9,4,404,603.7127704783052,604.3828930075688,"[75, 0, 179]",179,a,0.14472678350284696,colour,0.06
050,75,1,2,9,5,405,604.9014425377536,605.5349015996908,"[55, 0, 199]",199,a,0.10848394312779419,colour,0.06
050,75,1,2,9,6,406,606.0420071624976,606.7829399539332,"[79, 0, 175]",175,a,0.2176141866366379,colour,0.06
050,75,1,2,9,7,407,607.292073820834,607.9029155197786,"[96, 0, 158]",158,l,0.08759516783175059,colour,0.06
050,75,1,2,9,8,408,608.4064390581334,609.6229051852715,"[69, 0, 185]",185,a,0.6930478794092778,colour,0.06
050,75,1,2,9,9,409,610.1408072335471,610.8788720423763,"[88, 0, 166]",166,l,0.21695607085712254,colour,0.06
050,75,1,2,9,10,410,611.3884765545954,612.0629286269541,"[91, 0, 163]",163,a,0.1570214570965618,colour,0.06
050,75,1,2,9,11,411,612.5586595391214,613.2228968357376,"[92, 0, 162]",162,l,0.1409600455663167,colour,0.06
050,75,1,2,9,12,412,613.7205268707185,614.4388588406728,"[98, 0, 156]",156,l,0.1952831492817495,colour,0.06
050,75,1,2,9,13,413,614.954901938414,615.8628842799517,"[67, 0, 187]",187,a,0.38459205685649067,colour,0.06
050,75,1,2,9,14,414,616.3767639845901,617.1509203971364,"[53, 0, 201]",201,a,0.2508433215843979,colour,0.06
050,75,1,2,9,15,415,617.6578849632642,618.398923699162,"[87, 0, 167]",167,l,0.21820180406211875,colour,0.06
050,75,1,2,9,16,416,618.9078657632926,619.4948880829033,"[85, 0, 169]",169,l,0.06446974418940954,colour,0.06
050,75,1,2,9,17,417,620.003112560662,620.8629122429702,"[59, 0, 195]",195,a,0.3365913542220369,colour,0.06
050,75,1,2,9,18,418,621.3780396500078,622.3669406912231,"[94, 0, 160]",160,l,0.46545679969131015,colour,0.06
050,75,1,2,9,19,419,622.8780851391493,623.5029209548375,"[78, 0, 176]",176,a,0.10133801118354313,colour,0.06
050,75,1,2,9,20,420,624.0188970988384,624.7588523658633,"[80, 0, 174]",174,a,0.2171455105417408,colour,0.06
050,75,1,2,9,21,421,625.2688522989047,625.8468583145004,"[52, 0, 202]",202,a,0.054657872358802706,colour,0.06
050,75,1,2,9,22,422,626.362509929837,627.0389150818228,"[51, 0, 203]",203,a,0.15304952568840235,colour,0.06
050,75,1,2,9,23,423,627.5499516160926,628.2788827549666,"[83, 0, 171]",171,l,0.20543963590171188,colour,0.06
050,75,1,2,9,24,424,628.8000671112677,629.6308415650565,"[90, 0, 164]",164,l,0.30744836590019986,colour,0.06
050,75,1,2,9,25,425,630.1438162128034,630.7908633368206,"[84, 0, 170]",170,l,0.12369346694322303,colour,0.06
050,75,1,2,9,26,426,631.3000503728399,632.030884179112,"[7, 0, 247]",247,a,0.20512377182603814,colour,0.06
050,75,1,2,9,27,427,632.5524671070161,633.3028352540568,"[89, 0, 165]",165,l,0.2270865636819508,colour,0.06
050,75,1,2,9,28,428,633.8180378855905,634.5189315603056,"[58, 0, 196]",196,a,0.17756601146538742,colour,0.06
050,75,1,2,9,29,429,635.0366481073725,635.6468903735222,"[97, 0, 157]",157,l,0.08675076317740604,colour,0.06
050,75,1,2,9,30,430,636.1617472087382,636.9988854173571,"[48, 0, 206]",206,a,0.31387789294240065,colour,0.06
050,75,1,2,9,31,431,637.5054321134521,638.2148549053818,"[70, 0, 184]",184,a,0.18604392872657627,colour,0.06
050,75,1,2,9,32,432,638.7241939657542,639.5348492182384,"[82, 0, 172]",172,a,0.2872637862456031,colour,0.06
050,75,1,2,9,33,433,640.0524271317117,640.9428353013354,"[66, 0, 188]",188,a,0.367143915471388,colour,0.06
050,75,1,2,9,34,434,641.458563322667,642.046822710865,"[73, 0, 181]",181,a,0.06485807581339031,colour,0.06
050,75,1,2,9,35,435,642.5700637281407,643.1828199098527,"[64, 0, 190]",190,a,0.08951870905002579,colour,0.06
050,75,1,2,9,36,436,643.6951395926299,644.366854439053,"[81, 0, 173]",173,a,0.14833204480237328,colour,0.06
050,75,1,2,9,37,437,644.8826687125838,645.6308529865637,"[76, 0, 178]",178,a,0.2248920568090398,colour,0.06
050,75,1,2,9,38,438,646.1472824466764,647.7508411554445,"[77, 0, 177]",177,a,1.077053106506355,colour,0.06
050,75,1,2,9,39,439,648.2597682534542,648.9588470883318,"[74, 0, 180]",180,a,0.1862369129958097,colour,0.06
050,75,1,2,9,40,440,649.4679250291665,650.0548417982063,"[56, 0, 198]",198,a,0.07082444062689319,colour,0.06
050,75,1,2,9,41,441,650.5700137097738,651.1508412342228,"[72, 0, 182]",182,a,0.05740179365966469,colour,0.06
050,75,1,2,9,42,442,651.6638320296479,652.1988647798717,"[86, 0, 168]",168,l,0.01204536942532286,colour,0.06
050,75,1,2,9,43,443,652.7047450894606,653.4708103409794,"[6, 0, 248]",248,a,0.24279430200112984,colour,0.06
050,75,1,2,9,44,444,653.9859487756912,654.7028388774488,"[63, 0, 191]",191,a,0.1935699215682689,colour,0.06
050,75,1,2,9,45,445,655.2203419602592,656.0548205305531,"[60, 0, 194]",194,a,0.31140690654865466,colour,0.06
050,75,1,2,9,46,446,656.5641954308376,657.2868888454104,"[54, 0, 200]",200,a,0.19959733242285438,colour,0.06
050,75,1,2,9,47,447,657.7985433232097,658.4948691783356,"[65, 0, 189]",189,a,0.17339518808876164,colour,0.06
050,75,1,2,9,48,448,659.0028671949403,659.7188538151968,"[57, 0, 197]",197,a,0.19255458796396852,colour,0.06
050,75,1,2,9,49,449,660.2372694379592,661.5908201713464,"[61, 0, 193]",193,a,0.8302683623332996,colour,0.06
050,75,1,2,9,50,450,662.1123089701869,662.670825543406,"[68, 0, 186]",186,a,0.0352783128619194,colour,0.06
050,75,1,2,10,1,451,668.5659716738446,669.1827887960535,"[89, 0, 165]",165,l,0.09281165088759735,colour,0.06
050,75,1,2,10,2,452,669.6917009279423,670.25479713612,"[72, 0, 182]",182,a,0.03976303106173873,colour,0.06
050,75,1,2,10,3,453,670.7697197435191,671.4467652882158,"[87, 0, 167]",167,l,0.15367022610735148,colour,0.06
050,75,1,2,10,4,454,671.9572878541658,672.5908599497343,"[92, 0, 162]",162,l,0.11029838913236745,colour,0.06
050,75,1,2,10,5,455,673.0978749280912,673.7348159776884,"[59, 0, 195]",195,a,0.11359802636434324,colour,0.06
050,75,1,2,10,6,456,674.2541531987954,675.3108488275611,"[81, 0, 173]",173,l,0.5334297992230859,colour,0.06
050,75,1,2,10,7,457,675.8322529496218,676.5988132648927,"[85, 0, 169]",169,l,0.24319444899447262,colour,0.06
050,75,1,2,10,8,458,677.11492843632,677.7827544527245,"[54, 0, 200]",200,a,0.14444715323043056,colour,0.06
050,75,1,2,10,9,459,678.3024906392966,678.9507425365446,"[96, 0, 158]",158,l,0.12484664641669951,colour,0.06
050,75,1,2,10,10,460,679.4587228300807,680.2067554735695,"[84, 0, 170]",170,l,0.22474987860186957,colour,0.06
050,75,1,2,10,11,461,680.7243062116904,681.382843776868,"[68, 0, 186]",186,a,0.13507205597124994,colour,0.06
050,75,1,2,10,12,462,681.8960669411463,682.5987699418911,"[88, 0, 166]",166,l,0.1793863651691936,colour,0.06
050,75,1,2,10,13,463,683.1166743532231,683.6707830080995,"[66, 0, 188]",188,a,0.030777053150814027,colour,0.06
050,75,1,2,10,14,464,684.1792319777305,684.9188000946888,"[67, 0, 187]",187,a,0.21634757964056917,colour,0.06
050,75,1,2,10,15,465,685.4291135287203,686.0547776013846,"[93, 0, 161]",161,l,0.10961349189165048,colour,0.06
050,75,1,2,10,16,466,686.5625251322635,687.4227871891635,"[90, 0, 164]",164,l,0.3374270942877047,colour,0.06
050,75,1,2,10,17,467,687.9373096495692,688.6307887897419,"[78, 0, 176]",176,a,0.17008176623494364,colour,0.06
050,75,1,2,10,18,468,689.1491697540914,689.9107971550256,"[7, 0, 247]",247,a,0.2383308514545206,colour,0.06
050,75,1,2,10,19,469,690.430449058651,691.3267424609221,"[91, 0, 163]",163,l,0.37328357226215303,colour,0.06
050,75,1,2,10,20,470,691.83660376037,692.4867669896048,"[10, 0, 244]",244,a,0.12672804616158828,colour,0.06
050,75,1,2,10,21,471,693.0003816362587,693.9347390202747,"[76, 0, 178]",178,l,0.41136882168939337,colour,0.06
050,75,1,2,10,22,472,694.4533685011265,695.2227873466909,"[83, 0, 171]",171,l,0.2522658913512714,colour,0.06
050,75,1,2,10,23,473,695.744249364041,696.5907713345077,"[79, 0, 175]",175,l,0.3232632301514968,colour,0.06
050,75,1,2,10,24,474,697.1034332689887,697.9587758023117,"[70, 0, 184]",184,a,0.34072358076809905,colour,0.06
050,75,1,2,10,25,475,698.4700147731637,699.5827656379261,"[52, 0, 202]",202,a,0.5892924448125996,colour,0.06
050,75,1,2,10,26,476,700.0951065883855,700.9747671093501,"[50, 0, 204]",204,a,0.35399026493541896,colour,0.06
050,75,1,2,10,27,477,701.4882655715628,702.2227010945498,"[80, 0, 174]",174,l,0.21112873349920847,colour,0.06
050,75,1,2,10,28,478,702.7381628763687,703.5987569449935,"[56, 0, 198]",198,a,0.33754958023200743,colour,0.06
050,75,1,2,10,29,479,704.113121867209,704.9907863794069,"[75, 0, 179]",179,a,0.354316762794042,colour,0.06
050,75,1,2,10,30,480,705.5037992302096,706.5427403057984,"[55, 0, 199]",199,a,0.5156275907647796,colour,0.06
050,75,1,2,10,31,481,707.0507257193385,707.7507521463558,"[65, 0, 189]",189,a,0.17664913920452818,colour,0.06
050,75,1,2,10,32,482,708.2694162855914,708.9748242169444,"[60, 0, 194]",194,a,0.18203970199101605,colour,0.06
050,75,1,2,10,33,483,709.4882435162435,710.1347164135659,"[63, 0, 191]",191,a,0.12323660621768795,colour,0.06
050,75,1,2,10,34,484,710.6444619224349,711.4466817929642,"[71, 0, 183]",183,a,0.2789398625609465,colour,0.06
050,75,1,2,10,35,485,711.9569148825249,712.8306889893138,"[98, 0, 156]",156,l,0.35040587742696516,colour,0.06
050,75,1,2,10,36,486,713.3489029631892,714.0387618759414,"[94, 0, 160]",160,l,0.1664922587806359,colour,0.06
050,75,1,2,10,37,487,714.5520823200059,715.3907033567957,"[77, 0, 177]",177,a,0.31535048110526986,colour,0.06
050,75,1,2,10,38,488,715.9113158494874,716.7907054047973,"[51, 0, 203]",203,a,0.3568515521765221,colour,0.06
050,75,1,2,10,39,489,717.3021007322823,717.9427604707016,"[64, 0, 190]",190,a,0.1173757919750642,colour,0.06
050,75,1,2,10,40,490,718.458219495602,719.0227272458724,"[53, 0, 201]",201,a,0.03978902485687286,colour,0.06
050,75,1,2,10,41,491,719.5377404377505,720.230744994129,"[69, 0, 185]",185,a,0.17492606534506194,colour,0.06
050,75,1,2,10,42,492,720.7512641454523,721.4786868562514,"[29, 0, 225]",225,a,0.20406708450173028,colour,0.06
050,75,1,2,10,43,493,721.9899195255712,722.6867191767669,"[73, 0, 181]",181,a,0.17341330496128649,colour,0.06
050,75,1,2,10,44,494,723.1821098064829,723.9187528332404,"[82, 0, 172]",172,a,0.21338546797051094,colour,0.06
050,75,1,2,10,45,495,724.4319732405711,725.774683771655,"[62, 0, 192]",192,a,0.8193044925574213,colour,0.06
050,75,1,2,10,46,496,726.2914212189207,727.3426924141822,"[86, 0, 168]",168,l,0.5280191503406968,colour,0.06
050,75,1,2,10,47,497,727.8391625742952,728.4788231267594,"[74, 0, 180]",180,a,0.11639747984008864,colour,0.06
050,75,1,2,10,48,498,728.9953719220648,729.582689625764,"[57, 0, 197]",197,a,0.06395301895099692,colour,0.06
050,75,1,2,10,49,499,730.0891630666156,730.7826721390302,"[99, 0, 155]",155,l,0.17143541309633292,colour,0.06
050,75,1,2,10,50,500,731.2911155948241,732.1586826972489,"[97, 0, 157]",157,l,0.34418666386045516,colour,0.06
050,75,1,2,11,1,501,737.0730366705684,738.2626768021728,"[99, 0, 155]",155,a,0.6655267466558143,colour,0.06
050,75,1,2,11,2,502,738.776797934057,739.4146783050674,"[64, 0, 190]",190,a,0.11444046179531142,colour,0.06
050,75,1,2,11,3,503,739.9329202419613,740.6866616753396,"[43, 0, 211]",211,a,0.23032712409622036,colour,0.06
050,75,1,2,11,4,504,741.1996122985438,741.910682546004,"[62, 0, 192]",192,a,0.18768665814423002,colour,0.06
050,75,1,2,11,5,505,742.4183406739612,743.382712232502,"[94, 0, 160]",160,l,0.44095921848202124,colour,0.06
050,75,1,2,11,6,506,743.9027508923609,744.5026657429698,"[66, 0, 188]",188,a,0.0764796675357502,colour,0.06
050,75,1,2,11,7,507,745.0121375292656,746.0386602637882,"[85, 0, 169]",169,l,0.5032175204250962,colour,0.06
050,75,1,2,11,8,508,746.5590797722398,747.166711236845,"[59, 0, 195]",195,a,0.08437311815214343,colour,0.06
050,75,1,2,11,9,509,747.6860764209996,748.4386997271213,"[51, 0, 203]",203,a,0.2294531810330227,colour,0.06
050,75,1,2,11,10,510,748.9517090332811,749.7346781317901,"[96, 0, 158]",158,l,0.25964616137207486,colour,0.06
050,75,1,2,11,11,511,750.248580679443,750.9506251706043,"[56, 0, 198]",198,a,0.1787975662155077,colour,0.06
050,75,1,2,11,12,512,751.4672452519007,752.2147162717883,"[61, 0, 193]",193,a,0.22267864536843263,colour,0.06
050,75,1,2,11,13,513,752.7343776276975,753.5187338498945,"[84, 0, 170]",170,l,0.26098838669713587,colour,0.06
050,75,1,2,11,14,514,754.0312492738594,754.8866134686687,"[90, 0, 164]",164,l,0.33266707812435925,colour,0.06
050,75,1,2,11,15,515,755.4061665170884,756.3266676302883,"[87, 0, 167]",167,l,0.3971305207815021,colour,0.06
050,75,1,2,11,16,516,756.8437083385361,757.5586729298811,"[68, 0, 186]",186,a,0.1860336887766607,colour,0.06
050,75,1,2,11,17,517,758.0681293561938,758.7666300259298,"[72, 0, 182]",182,a,0.1751222003949806,colour,0.06
050,75,1,2,11,18,518,759.2890853215067,760.0466297265957,"[89, 0, 165]",165,l,0.23414584962301888,colour,0.06
050,75,1,2,11,19,519,760.5603786745341,761.3585927429376,"[97, 0, 157]",157,l,0.2812556738499552,colour,0.06
050,75,1,2,11,20,520,761.8665683103318,762.6386408866092,"[73, 0, 181]",181,a,0.2487464883888606,colour,0.06
050,75,1,2,11,21,521,763.1467416968662,763.7906199403224,"[79, 0, 175]",175,a,0.1207285983255133,colour,0.06
050,75,1,2,11,22,522,764.3029534076923,765.1106071639806,"[80, 0, 174]",174,a,0.28428040695143864,colour,0.06
050,75,1,2,11,23,523,765.6311101676547,766.4146389205416,"[54, 0, 200]",200,l,0.26076389479567297,colour,0.06
050,75,1,2,11,24,524,766.9296958292252,767.6546727597306,"[88, 0, 166]",166,a,0.20204468807787634,colour,0.06
050,75,1,2,11,25,525,768.1637814205023,770.1586362234666,"[57, 0, 197]",197,a,1.4718591514101718,colour,0.06
050,75,1,2,11,26,526,770.6793676574889,771.6146348245384,"[77, 0, 177]",177,a,0.4120458420366049,colour,0.06
050,75,1,2,11,27,527,772.1325057590147,772.7986016123323,"[58, 0, 196]",196,a,0.1427410147152841,colour,0.06
050,75,1,2,11,28,528,773.3200187312905,773.9266214715899,"[95, 0, 159]",159,l,0.08322978479554877,colour,0.06
050,75,1,2,11,29,529,774.4450670265942,775.1026105258497,"[75, 0, 179]",179,a,0.1342347405734472,colour,0.06
050,75,1,2,11,30,530,775.6168738359411,776.3026280913618,"[46, 0, 208]",208,l,0.16238957067253068,colour,0.06
050,75,1,2,11,31,531,776.8199240114773,777.8785609044717,"[50, 0, 204]",204,a,0.5355569585226476,colour,0.06
050,75,1,2,11,32,532,778.3993844983343,779.3986027151113,"[86, 0, 168]",168,l,0.4761032300593797,colour,0.06
050,75,1,2,11,33,533,779.9150124829321,780.7106090544257,"[78, 0, 176]",176,a,0.27230553585104644,colour,0.06
050,75,1,2,11,34,534,781.2275166429463,781.9425930863654,"[82, 0, 172]",172,a,0.19165268188226037,colour,0.06
050,75,1,2,11,35,535,782.4618798952724,783.2786129708402,"[98, 0, 156]",156,l,0.30535035114735365,colour,0.06
050,75,1,2,11,36,536,783.7936820887553,785.1346049552958,"[60, 0, 194]",194,a,0.8176357693737373,colour,0.06
050,75,1,2,11,37,537,785.6508690003247,786.8145787409449,"[92, 0, 162]",162,l,0.6412729557778221,colour,0.06
050,75,1,2,11,38,538,787.3226311081962,788.1345864445611,"[55, 0, 199]",199,a,0.2885894700593781,colour,0.06
050,75,1,2,11,39,539,788.6507988958328,789.5265934297931,"[67, 0, 187]",187,a,0.3524897137249354,colour,0.06
050,75,1,2,11,40,540,790.0413545605552,790.6065822603414,"[65, 0, 189]",189,a,0.042403370985994115,colour,0.06
050,75,1,2,11,41,541,791.1210027147899,792.3425935589767,"[53, 0, 201]",201,a,0.6983380115416367,colour,0.06
050,75,1,2,11,42,542,792.8553263856447,793.7106011775322,"[63, 0, 191]",191,a,0.3320018731174059,colour,0.06
050,75,1,2,11,43,543,794.2359776248632,794.8866296163178,"[52, 0, 202]",202,a,0.12585134617984295,colour,0.06
050,75,1,2,11,44,544,795.3938714496326,796.222565217875,"[26, 0, 228]",228,a,0.30533341580303386,colour,0.06
050,75,1,2,11,45,545,796.7375894373981,797.430686153617,"[74, 0, 180]",180,a,0.1698348251520656,colour,0.06
050,75,1,2,11,46,546,797.9496799414919,798.7185785172333,"[83, 0, 171]",171,l,0.245644955401076,colour,0.06
050,75,1,2,11,47,547,799.2308852031128,800.174556638347,"[81, 0, 173]",173,a,0.42726048585609533,colour,0.06
050,75,1,2,11,48,548,800.6926697877643,801.5745732586074,"[76, 0, 178]",178,a,0.3585332722577732,colour,0.06
050,75,1,2,11,49,549,802.0833396677044,802.9825782462722,"[71, 0, 183]",183,a,0.37592627527192235,colour,0.06
050,75,1,2,11,50,550,803.4896282768459,804.1905388869345,"[70, 0, 184]",184,a,0.17766722972737625,colour,0.06
050,75,1,2,12,1,551,815.9447734148125,816.678550428187,"[81, 0, 173]",173,a,0.20969789297669195,colour,0.06
050,75,1,2,12,2,552,817.1954473828373,817.7825031793327,"[9, 0, 245]",245,a,0.06374152394710109,colour,0.06
050,75,1,2,12,3,553,818.289127069118,818.9425426741363,"[58, 0, 196]",196,a,0.12998239116859622,colour,0.06
050,75,1,2,12,4,554,819.4611749119067,820.3425565375073,"[96, 0, 158]",158,l,0.35810240532737225,colour,0.06
050,75,1,2,12,5,555,820.8539420188754,821.8145625932666,"[53, 0, 201]",201,a,0.43730196956312284,colour,0.06
050,75,1,2,12,6,556,822.3226878219575,823.0385267501988,"[56, 0, 198]",198,a,0.1924683358229231,colour,0.06
050,75,1,2,12,7,557,823.5570806126925,824.478517896554,"[93, 0, 161]",161,l,0.3984246969630476,colour,0.06
050,75,1,2,12,8,558,824.9945385450847,825.766530383029,"[78, 0, 176]",176,a,0.24867874695337377,colour,0.06
050,75,1,2,12,9,559,826.2758375419071,827.1105020072428,"[90, 0, 164]",164,l,0.31143998957122676,colour,0.06
050,75,1,2,12,10,560,827.6195555296727,828.4064938026422,"[80, 0, 174]",174,a,0.26393947066389956,colour,0.06
050,75,1,2,12,11,561,828.9164153604652,829.6385077668529,"[99, 0, 155]",155,l,0.19873008472495712,colour,0.06
050,75,1,2,12,12,562,830.152114142722,830.8385083969915,"[23, 0, 231]",231,a,0.16304729256080464,colour,0.06
050,75,1,2,12,13,563,831.3553435179347,832.1504863794544,"[59, 0, 195]",195,a,0.27181834902148694,colour,0.06
050,75,1,2,12,14,564,832.6687042917765,833.2864705815155,"[54, 0, 200]",200,a,0.09444374646409415,colour,0.06
050,75,1,2,12,15,565,833.7937876393262,834.4624505773245,"[51, 0, 203]",203,a,0.1454372807056643,colour,0.06
050,75,1,2,12,16,566,834.9712532201956,835.7505016606592,"[66, 0, 188]",188,a,0.2558955710846931,colour,0.06
050,75,1,2,12,17,567,836.268092177168,837.1104701057484,"[98, 0, 156]",156,l,0.31897622236283496,colour,0.06
050,75,1,2,12,18,568,837.6275777677365,838.2544682751759,"[73, 0, 181]",181,a,0.10360183485317975,colour,0.06
050,75,1,2,12,19,569,838.7681152171281,839.7024599981087,"[64, 0, 190]",190,a,0.41098285315092653,colour,0.06
050,75,1,2,12,20,570,840.2212481986498,840.9264536934206,"[8, 0, 246]",246,a,0.18186404689913616,colour,0.06
050,75,1,2,12,21,571,841.44009590926,842.1664985603129,"[85, 0, 169]",169,l,0.20208840491250157,colour,0.06
050,75,1,2,12,22,572,842.6757206485781,843.4864932670316,"[97, 0, 157]",157,l,0.28745598284876905,colour,0.06
050,75,1,2,12,23,573,844.0038864669623,844.814478704182,"[94, 0, 160]",160,l,0.28738863524631597,colour,0.06
050,75,1,2,12,24,574,845.3318896271812,846.2784751249419,"[70, 0, 184]",184,a,0.42311014243750833,colour,0.06
050,75,1,2,12,25,575,846.7851112239296,847.5664836729411,"[82, 0, 172]",172,a,0.25810819485923275,colour,0.06
050,75,1,2,12,26,576,848.0836578948074,848.8944899839407,"[91, 0, 163]",163,l,0.2875060012447648,colour,0.06
050,75,1,2,12,27,577,849.4118059901521,850.190460117854,"[55, 0, 199]",199,a,0.25560688239056617,colour,0.06
050,75,1,2,12,28,578,850.708617377968,851.5904987934628,"[95, 0, 159]",159,l,0.3587841518165078,colour,0.06
050,75,1,2,12,29,579,852.0992750486766,852.7426728006976,"[74, 0, 180]",180,a,0.12004015650018118,colour,0.06
050,75,1,2,12,30,580,853.2555001502624,854.0784729193838,"[62, 0, 192]",192,a,0.2995742136554327,colour,0.06
050,75,1,2,12,31,581,854.6005855694239,855.2464436739974,"[86, 0, 168]",168,a,0.12242331533343531,colour,0.06
050,75,1,2,12,32,582,855.7568843201152,856.3184346848866,"[88, 0, 166]",166,l,0.03826090451912023,colour,0.06
050,75,1,2,12,33,583,856.8349909632234,857.6864734172123,"[87, 0, 167]",167,a,0.3284356025105808,colour,0.06
050,75,1,2,12,34,584,858.1958762805443,859.2144559399167,"[63, 0, 191]",191,a,0.4952189130708575,colour,0.06
050,75,1,2,12,35,585,859.7272695049178,860.4224740820355,"[67, 0, 187]",187,a,0.17193795990897343,colour,0.06
050,75,1,2,12,36,586,860.930355126533,861.6624705059221,"[57, 0, 197]",197,a,0.20904292797786184,colour,0.06
050,75,1,2,12,37,587,862.1803757049493,862.9344881407451,"[61, 0, 193]",193,a,0.2287084192794282,colour,0.06
050,75,1,2,12,38,588,863.4481252365513,864.1984563621227,"[50, 0, 204]",204,l,0.22697943772072904,colour,0.06
050,75,1,2,12,39,589,864.7137539104151,865.3424576823018,"[75, 0, 179]",179,a,0.1057171787833795,colour,0.06
050,75,1,2,12,40,590,865.8543996672961,866.7024741765345,"[76, 0, 178]",178,a,0.3248689380707219,colour,0.06
050,75,1,2,12,41,591,867.21367061208,867.9584335506079,"[77, 0, 177]",177,a,0.22162786568515003,colour,0.06
050,75,1,2,12,42,592,868.4795064486389,869.1104512011807,"[68, 0, 186]",186,a,0.10581997246481478,colour,0.06
050,75,1,2,12,43,593,869.6218276240979,870.3104388344218,"[52, 0, 202]",202,a,0.16525794711196795,colour,0.06
050,75,1,2,12,44,594,870.825018402451,871.5664505899185,"[71, 0, 183]",183,a,0.21809467807179317,colour,0.06
050,75,1,2,12,45,595,872.0656914528226,872.6224172107468,"[69, 0, 185]",185,a,0.03341699924203567,colour,0.06
050,75,1,2,12,46,596,873.14378903748,873.8704504449852,"[84, 0, 170]",170,a,0.2032660028198734,colour,0.06
050,75,1,2,12,47,597,874.3782412988949,875.0944366572658,"[65, 0, 189]",189,a,0.19286257511703297,colour,0.06
050,75,1,2,12,48,598,875.612584465096,876.4303793480212,"[92, 0, 162]",162,l,0.29452353954548016,colour,0.06
050,75,1,2,12,49,599,876.9407301973552,877.6384053670336,"[79, 0, 175]",175,a,0.17443651545909233,colour,0.06
050,75,1,2,12,50,600,878.1452246041736,878.8304184174922,"[89, 0, 165]",165,a,0.1618988392292522,colour,0.06
050,75,1,2,13,1,601,883.5037566949031,884.0784421994467,"[63, 0, 191]",191,a,0.04903809155803174,colour,0.06
050,75,1,2,13,2,602,884.5998675891606,885.3185410231526,"[76, 0, 178]",178,a,0.19540839214459993,colour,0.06
050,75,1,2,13,3,603,885.83416152469,886.542456343217,"[72, 0, 182]",182,a,0.18484073085710406,colour,0.06
050,75,1,2,13,4,604,887.0529375554179,887.7504473099834,"[69, 0, 185]",185,a,0.17531400313600898,colour,0.06
050,75,1,2,13,5,605,888.2707120371342,889.3344204780878,"[75, 0, 179]",179,a,0.5404749067383818,colour,0.06
050,75,1,2,13,6,606,889.8511086946528,890.4463860150427,"[78, 0, 176]",176,a,0.0719039710238576,colour,0.06
050,75,1,2,13,7,607,890.9604610670067,891.6304075473454,"[95, 0, 159]",159,l,0.1466066078573931,colour,0.06
050,75,1,2,13,8,608,892.1479157501599,892.7984216249606,"[54, 0, 200]",200,a,0.12709471629932523,colour,0.06
050,75,1,2,13,9,609,893.3197816363245,893.982421101944,"[56, 0, 198]",198,a,0.13923224556492642,colour,0.06
050,75,1,2,13,10,610,894.4916849378205,895.4463923165458,"[87, 0, 167]",167,l,0.43142894611810334,colour,0.06
050,75,1,2,13,11,611,895.9628347735852,896.8224332008685,"[91, 0, 163]",163,l,0.33626643172465265,colour,0.06
050,75,1,2,13,12,612,897.3378233028343,898.0943941219593,"[4, 0, 250]",250,a,0.23324591279379092,colour,0.06
050,75,1,2,13,13,613,898.6033546968247,899.5024073803506,"[82, 0, 172]",172,l,0.3755911127955187,colour,0.06
050,75,1,2,13,14,614,900.009722862771,900.6064652882342,"[77, 0, 177]",177,a,0.07338994991732761,colour,0.06
050,75,1,2,13,15,615,901.1190433336305,902.5584275641595,"[73, 0, 181]",181,a,0.9159793735307176,colour,0.06
050,75,1,2,13,16,616,903.0734222452738,903.9184034923092,"[64, 0, 190]",190,a,0.32233021027059294,colour,0.06
050,75,1,2,13,17,617,904.4327577807126,905.1663618959428,"[86, 0, 168]",168,a,0.20942101962282322,colour,0.06
050,75,1,2,13,18,618,905.6835951946268,906.3183590665576,"[88, 0, 166]",166,a,0.1170733186590951,colour,0.06
050,75,1,2,13,19,619,906.8345281948277,907.7023741398007,"[80, 0, 174]",174,a,0.3445174940279685,colour,0.06
050,75,1,2,13,20,620,908.2147891331697,908.9423658375454,"[57, 0, 197]",197,a,0.20416042587021366,colour,0.06
050,75,1,2,13,21,621,909.4508297732973,910.1103783397703,"[68, 0, 186]",186,a,0.13624886621255428,colour,0.06
050,75,1,2,13,22,622,910.6226661210821,911.3103718807106,"[74, 0, 180]",180,a,0.16430838571977802,colour,0.06
050,75,1,2,13,23,623,911.8257474103884,912.5024247095571,"[51, 0, 203]",203,a,0.15330473752692342,colour,0.06
050,75,1,2,13,24,624,913.0132615641924,914.2463684495306,"[84, 0, 170]",170,l,0.7098950126382988,colour,0.06
050,75,1,2,13,25,625,914.7657549013093,915.2943671829125,"[67, 0, 187]",187,a,0.005239326099399477,colour,0.06
050,75,1,2,13,26,626,915.8126229043992,916.5023998972902,"[94, 0, 160]",160,l,0.16658638781518675,colour,0.06
050,75,1,2,13,27,627,917.0158609442005,917.7663460633485,"[38, 0, 216]",216,a,0.22754539363086224,colour,0.06
050,75,1,2,13,28,628,918.2813864305499,919.0143907191232,"[85, 0, 169]",169,a,0.2096262130944524,colour,0.06
050,75,1,2,13,29,629,919.5313873167033,920.9423756836914,"[50, 0, 204]",204,a,0.8876102915091906,colour,0.06
050,75,1,2,13,30,630,921.4532078121847,922.0943539497093,"[59, 0, 195]",195,a,0.11775506514823064,colour,0.06
050,75,1,2,13,31,631,922.6116699559498,923.3263312862546,"[65, 0, 189]",189,a,0.19137068852433003,colour,0.06
050,75,1,2,13,32,632,923.8460001252533,924.63035477206,"[66, 0, 188]",188,a,0.2610911803494673,colour,0.06
050,75,1,2,13,33,633,925.1428642883548,925.8303538268374,"[83, 0, 171]",171,l,0.16196264218888246,colour,0.06
050,75,1,2,13,34,634,926.3483011673379,927.2063127912697,"[79, 0, 175]",175,a,0.3351258552575018,colour,0.06
050,75,1,2,13,35,635,927.723184145987,928.4783587829734,"[93, 0, 161]",161,l,0.23181585990823805,colour,0.06
050,75,1,2,13,36,636,928.9886351955356,929.5744334434858,"[52, 0, 202]",202,a,0.06232840646407567,colour,0.06
050,75,1,2,13,37,637,930.0824877799605,930.8383418003505,"[71, 0, 183]",183,a,0.23313484832760878,colour,0.06
050,75,1,2,13,38,638,931.3481070015114,932.0303103462793,"[70, 0, 184]",184,a,0.15739797335118055,colour,0.06
050,75,1,2,13,39,639,932.5370232451533,933.3263513723796,"[92, 0, 162]",162,l,0.2663041187915951,colour,0.06
050,75,1,2,13,40,640,933.8338196668483,934.7343717200274,"[81, 0, 173]",173,l,0.37711687010596506,colour,0.06
050,75,1,2,13,41,641,935.2557305498631,936.046313468687,"[99, 0, 155]",155,l,0.26711110811447725,colour,0.06
050,75,1,2,13,42,642,936.5527112912096,937.4463328458951,"[15, 0, 239]",239,a,0.37066686307662167,colour,0.06
050,75,1,2,13,43,643,937.961098308966,938.7823562749836,"[61, 0, 193]",193,a,0.2979086412524339,colour,0.06
050,75,1,2,13,44,644,939.289197567472,940.1582817625604,"[89, 0, 165]",165,l,0.3456730365869589,colour,0.06
050,75,1,2,13,45,645,940.6798694166064,941.37432174891,"[96, 0, 158]",158,l,0.1711518443771638,colour,0.06
050,75,1,2,13,46,646,941.8830019058369,943.1823413876118,"[90, 0, 164]",164,l,0.7760578984161839,colour,0.06
050,75,1,2,13,47,647,943.6972021612746,944.5905271503434,"[98, 0, 156]",156,l,0.3699480951181613,colour,0.06
050,75,1,2,13,48,648,945.1034919519734,946.00641298556,"[58, 0, 196]",196,a,0.37970719166332856,colour,0.06
050,75,1,2,13,49,649,946.5181111802231,947.1583132701926,"[62, 0, 192]",192,a,0.12376357140601613,colour,0.06
050,75,1,2,13,50,650,947.6672372174507,948.2063458742923,"[60, 0, 194]",194,a,0.014482878934359178,colour,0.06
050,75,1,2,14,1,651,953.2525305555318,954.5022845005733,"[61, 0, 193]",193,a,0.7266109953052364,colour,0.06
050,75,1,2,14,2,652,955.0190184032253,955.7183107023302,"[18, 0, 236]",236,a,0.17632027828949504,colour,0.06
050,75,1,2,14,3,653,956.2376380772912,956.9422658007825,"[70, 0, 184]",184,a,0.18128942637122236,colour,0.06
050,75,1,2,14,4,654,957.4564727910038,958.4142840657732,"[64, 0, 190]",190,a,0.43318825380993076,colour,0.06
050,75,1,2,14,5,655,958.926455268811,959.6783917084686,"[84, 0, 170]",170,l,0.22848077659728006,colour,0.06
050,75,1,2,14,6,656,960.1920807918941,960.9582933416241,"[74, 0, 180]",180,a,0.24278406202211045,colour,0.06
050,75,1,2,14,7,657,961.473407357902,962.0623189541802,"[57, 0, 197]",197,a,0.06562489291536622,colour,0.06
050,75,1,2,14,8,658,962.5826663888874,963.8542484306381,"[50, 0, 204]",204,a,0.7481649755500257,colour,0.06
050,75,1,2,14,9,659,964.3639171396499,965.2063053082093,"[17, 0, 237]",237,a,0.318624912208179,colour,0.06
050,75,1,2,14,10,660,965.7237083542859,966.3263241970562,"[63, 0, 191]",191,a,0.07923934265272692,colour,0.06
050,75,1,2,14,11,661,966.8331493418664,967.6943302402215,"[89, 0, 165]",165,l,0.337783918279456,colour,0.06
050,75,1,2,14,12,662,968.2080902158341,968.9422602869454,"[93, 0, 161]",161,l,0.21085461706388742,colour,0.06
050,75,1,2,14,13,663,969.458098585048,970.1982452609809,"[83, 0, 171]",171,l,0.2167355174315162,colour,0.06
050,75,1,2,14,14,664,970.708127828053,971.3662554001203,"[75, 0, 179]",179,a,0.13482353949802928,colour,0.06
050,75,1,2,14,15,665,971.8799314866483,972.6142945420579,"[54, 0, 200]",200,a,0.2113225054636132,colour,0.06
050,75,1,2,14,16,666,973.1311154845462,973.8142644522595,"[51, 0, 203]",203,a,0.15968385236919858,colour,0.06
050,75,1,2,14,17,667,974.334270029125,975.0542281869857,"[56, 0, 198]",198,a,0.19657417468260974,colour,0.06
050,75,1,2,14,18,668,975.5686128014931,976.254261900147,"[53, 0, 201]",201,a,0.16228165698703378,colour,0.06
050,75,1,2,14,19,669,976.7728799594624,977.4702514742676,"[79, 0, 175]",175,l,0.17409583914559335,colour,0.06
050,75,1,2,14,20,670,977.9916662301694,979.0862419148616,"[67, 0, 187]",187,l,0.5712893751915544,colour,0.06
050,75,1,2,14,21,671,979.6009455441672,980.1506793637236,"[60, 0, 194]",194,a,0.026306513376766816,colour,0.06
050,75,1,2,14,22,672,980.6651262058294,981.4142301089305,"[59, 0, 195]",195,a,0.22571007380611263,colour,0.06
050,75,1,2,14,23,673,981.9307328243158,982.542218854418,"[86, 0, 168]",168,l,0.0884179109998513,colour,0.06
050,75,1,2,14,24,674,983.0571351602848,984.1183009349625,"[8, 0, 246]",246,a,0.5379223943164106,colour,0.06
050,75,1,2,14,25,675,984.6252410826564,985.3742658228439,"[95, 0, 159]",159,l,0.22562185244169086,colour,0.06
050,75,1,2,14,26,676,985.8861384910415,986.4783193984476,"[77, 0, 177]",177,a,0.06868940443382598,colour,0.06
050,75,1,2,14,27,677,986.9954668388236,987.7982215514639,"[72, 0, 182]",182,a,0.2794329570606351,colour,0.06
050,75,1,2,14,28,678,988.3079280696402,989.1824256705295,"[87, 0, 167]",167,l,0.3611287137900945,colour,0.06
050,75,1,2,14,29,679,989.688560798124,990.35021919469,"[62, 0, 192]",192,a,0.13818501046625897,colour,0.06
050,75,1,2,14,30,680,990.8605271148845,991.74225571836,"[85, 0, 169]",169,l,0.358426540158689,colour,0.06
050,75,1,2,14,31,681,992.251098533452,992.958267741662,"[52, 0, 202]",202,a,0.1838033419335261,colour,0.06
050,75,1,2,14,32,682,993.4698284842598,994.1982039072027,"[88, 0, 166]",166,l,0.2050422458560206,colour,0.06
050,75,1,2,14,33,683,994.7197785643511,995.5182537522633,"[80, 0, 174]",174,l,0.27511680469615385,colour,0.06
050,75,1,2,14,34,684,996.0323437703773,996.6702170521894,"[58, 0, 196]",196,a,0.11453537855413742,colour,0.06
050,75,1,2,14,35,685,997.1885830503888,997.9662206629582,"[92, 0, 162]",162,l,0.25205754712806083,colour,0.06
050,75,1,2,14,36,686,998.472468430351,999.2301668290165,"[65, 0, 189]",189,a,0.23442429839633405,colour,0.06
050,75,1,2,14,37,687,999.7380474796519,1000.4622256915609,"[97, 0, 157]",157,l,0.20087614859221503,colour,0.06
050,75,1,2,14,38,688,1000.9724319996312,1001.6061970794981,"[99, 0, 155]",155,l,0.11047640728065744,colour,0.06
050,75,1,2,14,39,689,1002.1129635413527,1002.7662338173832,"[78, 0, 176]",176,a,0.12996663735248148,colour,0.06
050,75,1,2,14,40,690,1003.2848589659261,1003.950215177465,"[81, 0, 173]",173,a,0.1419182715471834,colour,0.06
050,75,1,2,14,41,691,1004.4567776273761,1005.1822326862602,"[90, 0, 164]",164,l,0.20207343879155815,colour,0.06
050,75,1,2,14,42,692,1005.6911424550926,1006.3822077164659,"[94, 0, 160]",160,l,0.16770057662506588,colour,0.06
050,75,1,2,14,43,693,1006.8956904248917,1007.654210385168,"[68, 0, 186]",186,a,0.23534629060304724,colour,0.06
050,75,1,2,14,44,694,1008.1612489942345,1008.8542275568179,"[98, 0, 156]",156,l,0.16967965004732832,colour,0.06
050,75,1,2,14,45,695,1009.3642479698465,1009.9422031793802,"[76, 0, 178]",178,a,0.05450112189282663,colour,0.06
050,75,1,2,14,46,696,1010.4580690466391,1011.2461900375201,"[69, 0, 185]",185,a,0.26459286027238704,colour,0.06
050,75,1,2,14,47,697,1011.7549741696566,1012.4621721285803,"[82, 0, 172]",172,a,0.18383760648430325,colour,0.06
050,75,1,2,14,48,698,1012.9736257452169,1013.6941900312377,"[71, 0, 183]",183,a,0.1972567088669166,colour,0.06
050,75,1,2,14,49,699,1014.2080594958679,1014.8701408824709,"[96, 0, 158]",158,l,0.13851741605321877,colour,0.06
050,75,1,2,14,50,700,1015.379927351285,1016.0381632308417,"[55, 0, 199]",199,a,0.13505551448906772,colour,0.06
050,75,1,2,15,1,701,1020.2420030664944,1020.950179337553,"[53, 0, 201]",201,a,0.18401916924631223,colour,0.06
050,75,1,2,15,2,702,1021.4601603659976,1022.0301843157504,"[70, 0, 184]",184,a,0.04672228026902303,colour,0.06
050,75,1,2,15,3,703,1022.5382800060033,1023.2061694315344,"[43, 0, 211]",211,a,0.1452246041444596,colour,0.06
050,75,1,2,15,4,704,1023.7252443515754,1024.3741429430665,"[71, 0, 183]",183,a,0.12550554986228235,colour,0.06
050,75,1,2,15,5,705,1024.883497757255,1025.5021738299984,"[76, 0, 178]",178,a,0.09529957262566313,colour,0.06
050,75,1,2,15,6,706,1026.008561412542,1026.9341970889363,"[82, 0, 172]",172,a,0.4023655145720113,colour,0.06
050,75,1,2,15,7,707,1027.4460670002154,1028.4061803016812,"[79, 0, 175]",175,a,0.43724880044464953,colour,0.06
050,75,1,2,15,8,708,1028.914865972445,1029.6301759662165,"[72, 0, 182]",182,a,0.19200438586995006,colour,0.06
050,75,1,2,15,9,709,1030.1491008311568,1031.6461341902323,"[73, 0, 181]",181,a,0.9737419295997825,colour,0.06
050,75,1,2,15,10,710,1032.1647971479397,1033.1821972401813,"[92, 0, 162]",162,l,0.4941259919432923,colour,0.06
050,75,1,2,15,11,711,1033.6959737573052,1034.5982118628745,"[90, 0, 164]",164,l,0.37900929752504453,colour,0.06
050,75,1,2,15,12,712,1035.1178653418901,1035.9501557068143,"[64, 0, 190]",190,a,0.3089764862379525,colour,0.06
050,75,1,2,15,13,713,1036.4615522158565,1037.086127699673,"[61, 0, 193]",193,a,0.10024705925025046,colour,0.06
050,75,1,2,15,14,714,1037.6035898225673,1038.4301075946423,"[80, 0, 174]",174,a,0.3031838072638493,colour,0.06
050,75,1,2,15,15,715,1038.9473180503119,1039.4941224473587,"[55, 0, 199]",199,a,0.02356101671466604,colour,0.06
050,75,1,2,15,16,716,1040.009918997821,1040.718103145773,"[68, 0, 186]",186,a,0.18525702552869916,colour,0.06
050,75,1,2,15,17,717,1041.228575299523,1041.8701007102209,"[34, 0, 220]",220,a,0.11819380897213705,colour,0.06
050,75,1,2,15,18,718,1042.3847854349879,1042.9181537943077,"[75, 0, 179]",179,a,0.009910727065289393,colour,0.06
050,75,1,2,15,19,719,1043.4317211794842,1044.1101026479446,"[84, 0, 170]",170,l,0.15506286363233812,colour,0.06
050,75,1,2,15,20,720,1044.6192566009704,1045.2861366005673,"[35, 0, 219]",219,a,0.14356572707765736,colour,0.06
050,75,1,2,15,21,721,1045.807839257497,1046.4301741545205,"[88, 0, 166]",166,l,0.09897375688888133,colour,0.06
050,75,1,2,15,22,722,1046.9484716236475,1047.8701046486967,"[97, 0, 157]",157,l,0.3982825187558774,colour,0.06
050,75,1,2,15,23,723,1048.3858885960944,1049.0381959200022,"[54, 0, 200]",200,a,0.12860747668310069,colour,0.06
050,75,1,2,15,24,724,1049.5435453258979,1050.2381339287385,"[67, 0, 187]",187,a,0.17106716759735718,colour,0.06
050,75,1,2,15,25,725,1050.7469574454008,1051.4621276240505,"[66, 0, 188]",188,a,0.1921894932165742,colour,0.06
050,75,1,2,15,26,726,1051.9812498055398,1052.7821270569111,"[86, 0, 168]",168,l,0.27762244950281456,colour,0.06
050,75,1,2,15,27,727,1053.293749239383,1054.0541352394503,"[83, 0, 171]",171,l,0.23703549374477006,colour,0.06
050,75,1,2,15,28,728,1054.5750376023934,1055.3661018004059,"[81, 0, 173]",173,a,0.2678168792044744,colour,0.06
050,75,1,2,15,29,729,1055.8756047004717,1056.5181336294045,"[56, 0, 198]",198,a,0.11982275379705243,colour,0.06
050,75,1,2,15,30,730,1057.031893605017,1057.8940788092732,"[77, 0, 177]",177,a,0.33882012564572506,colour,0.06
050,75,1,2,15,31,731,1058.4068435374065,1059.1021556343476,"[62, 0, 192]",192,a,0.18072859046515077,colour,0.06
050,75,1,2,15,32,732,1059.6169266112556,1060.2781214517017,"[52, 0, 202]",202,a,0.13793098015594296,colour,0.06
050,75,1,2,15,33,733,1060.7887546882557,1061.7421162970713,"[94, 0, 160]",160,l,0.4301560376479756,colour,0.06
050,75,1,2,15,34,734,1062.2574532298895,1063.0780971908243,"[85, 0, 169]",169,l,0.3031219735275954,colour,0.06
050,75,1,2,15,35,735,1063.5836112241377,1064.4941177212168,"[99, 0, 155]",155,l,0.38364643391105346,colour,0.06
050,75,1,2,15,36,736,1065.0089347780158,1065.726089937758,"[50, 0, 204]",204,a,0.19390587171074003,colour,0.06
050,75,1,2,15,37,737,1066.2431928736041,1067.0460838568106,"[78, 0, 176]",176,a,0.2794940031308215,colour,0.06
050,75,1,2,15,38,738,1067.555699790537,1068.2381039964675,"[98, 0, 156]",156,l,0.15904661040985957,colour,0.06
050,75,1,2,15,39,739,1068.7588129813084,1069.4540967213688,"[93, 0, 161]",161,l,0.17193480912828818,colour,0.06
050,75,1,2,15,40,740,1069.96332865578,1070.7580697949452,"[89, 0, 165]",165,l,0.2716348170361016,colour,0.06
050,75,1,2,15,41,741,1071.2757757081708,1071.9660599740164,"[91, 0, 163]",163,l,0.16687822731910273,colour,0.06
050,75,1,2,15,42,742,1072.478997600323,1073.142073446681,"[63, 0, 191]",191,a,0.13985058292746544,colour,0.06
050,75,1,2,15,43,743,1073.650728791341,1074.2620891847473,"[58, 0, 196]",196,a,0.08787913041305728,colour,0.06
050,75,1,2,15,44,744,1074.7757955973793,1075.758089093375,"[96, 0, 158]",158,l,0.45930178291746415,colour,0.06
050,75,1,2,15,45,745,1076.2760833014618,1076.910062239418,"[65, 0, 189]",189,a,0.1105725055676885,colour,0.06
050,75,1,2,15,46,746,1077.4168231874355,1078.1100502664922,"[87, 0, 167]",167,l,0.1699821233341936,colour,0.06
050,75,1,2,15,47,747,1078.6198170430434,1079.3820486029144,"[74, 0, 180]",180,a,0.23882630903972313,colour,0.06
050,75,1,2,15,48,748,1079.9011648767046,1080.5900793480687,"[69, 0, 185]",185,a,0.16560531881987117,colour,0.06
050,75,1,2,15,49,749,1081.1042658583028,1081.8460816512525,"[59, 0, 195]",195,a,0.2162794443720486,colour,0.06
050,75,1,2,15,50,750,1082.3565230850654,1083.0540753749374,"[60, 0, 194]",194,a,0.17426282961969264,colour,0.06
050,75,1,2,16,1,751,1088.1695674041111,1089.1341075284872,"[96, 0, 158]",158,l,0.44039483796223067,colour,0.06
050,75,1,2,16,2,752,1089.6546963904693,1090.2060544286505,"[68, 0, 186]",186,a,0.02802604262251407,colour,0.06
050,75,1,2,16,3,753,1090.7171933627687,1091.3580031562888,"[61, 0, 193]",193,a,0.11738878887263127,colour,0.06
050,75,1,2,16,4,754,1091.8734397320077,1092.5022691405902,"[58, 0, 196]",196,a,0.10556830518180504,colour,0.06
050,75,1,2,16,5,755,1093.0149889703607,1093.766010113177,"[77, 0, 177]",177,l,0.22814285720232874,colour,0.06
050,75,1,2,16,6,756,1094.2806676625914,1095.078044415539,"[84, 0, 170]",170,l,0.27429248616681434,colour,0.06
050,75,1,2,16,7,757,1095.5931548872322,1096.2780103872938,"[65, 0, 189]",189,a,0.15880754624959081,colour,0.06
050,75,1,2,16,8,758,1096.7991431498376,1097.4460358864162,"[56, 0, 198]",198,a,0.12368125771172345,colour,0.06
050,75,1,2,16,9,759,1097.9553288668685,1098.6699968925677,"[75, 0, 179]",179,a,0.19137226391467266,colour,0.06
050,75,1,2,16,10,760,1099.1896692761802,1099.8940311539627,"[86, 0, 168]",168,l,0.17871564632514492,colour,0.06
050,75,1,2,16,11,761,1100.4107319735922,1101.0141055750137,"[63, 0, 191]",191,a,0.0800376673869323,colour,0.06
050,75,1,2,16,12,762,1101.535705438262,1102.190052093938,"[88, 0, 166]",166,l,0.131060346175218,colour,0.06
050,75,1,2,16,13,763,1102.7075685675081,1104.3100493212696,"[62, 0, 192]",192,a,1.0792759702599142,colour,0.06
050,75,1,2,16,14,764,1104.8169099121878,1105.4219935905712,"[99, 0, 155]",155,l,0.08174419973511249,colour,0.06
050,75,1,2,16,15,765,1105.9432512021158,1106.8220224200631,"[91, 0, 163]",163,l,0.35544276697328314,colour,0.06
050,75,1,2,16,16,766,1107.3339380174002,1108.0220647978422,"[29, 0, 225]",225,a,0.1648357447993476,colour,0.06
050,75,1,2,16,17,767,1108.537031515909,1109.3020723754016,"[87, 0, 167]",167,l,0.2416990177880507,colour,0.06
050,75,1,2,16,18,768,1109.8185770600103,1111.3419988523528,"[64, 0, 190]",190,a,1.0003662762755994,colour,0.06
050,75,1,2,16,19,769,1111.8494340637699,1112.7419808142295,"[0, 0, 254]",254,a,0.3692021518072579,colour,0.06
050,75,1,2,16,20,770,1113.2571015258727,1114.1659723827906,"[90, 0, 164]",164,l,0.38555422131321393,colour,0.06
050,75,1,2,16,21,771,1114.678943879786,1115.4540045615286,"[81, 0, 173]",173,l,0.25181493832496926,colour,0.06
050,75,1,2,16,22,772,1115.9601121199375,1116.702042915771,"[80, 0, 174]",174,l,0.21854838804574683,colour,0.06
050,75,1,2,16,23,773,1117.2101248214603,1117.9740042306948,"[92, 0, 162]",162,l,0.24053165985969827,colour,0.06
050,75,1,2,16,24,774,1118.4914293321199,1119.229967149353,"[67, 0, 187]",187,a,0.2152144862629939,colour,0.06
050,75,1,2,16,25,775,1119.7414963843185,1120.5180064173182,"[97, 0, 157]",157,l,0.25327768034185283,colour,0.06
050,75,1,2,16,26,776,1121.0396058867336,1121.8139970311895,"[89, 0, 165]",165,l,0.25096738288993947,colour,0.06
050,75,1,2,16,27,777,1122.3208056345175,1122.9660064110358,"[37, 0, 217]",217,a,0.12180419027572498,colour,0.06
050,75,1,2,16,28,778,1123.4771477082104,1124.19798807989,"[78, 0, 176]",176,a,0.1975142837909516,colour,0.06
050,75,1,2,16,29,779,1124.7115101728414,1125.4699824778363,"[73, 0, 181]",181,a,0.2351966293354053,colour,0.06
050,75,1,2,16,30,780,1125.9771419974568,1126.637948900141,"[74, 0, 180]",180,a,0.1374504887207877,colour,0.06
050,75,1,2,16,31,781,1127.1503871303867,1127.9900215315283,"[51, 0, 203]",203,a,0.3163150086184032,colour,0.06
050,75,1,2,16,32,782,1128.5097218781593,1129.357953925617,"[71, 0, 183]",183,a,0.32496306716348045,colour,0.06
050,75,1,2,16,33,783,1129.8690751366667,1130.5740246319037,"[82, 0, 172]",172,a,0.17689726187381893,colour,0.06
050,75,1,2,16,34,784,1131.092509965296,1131.7579571551469,"[59, 0, 195]",195,a,0.142169151105918,colour,0.06
050,75,1,2,16,35,785,1132.2668700747308,1132.9659485157463,"[83, 0, 171]",171,a,0.18142333385185339,colour,0.06
050,75,1,2,16,36,786,1133.474945718248,1134.109978192777,"[85, 0, 169]",169,l,0.11182847872260027,colour,0.06
050,75,1,2,16,37,787,1134.6312440751062,1135.477953122172,"[72, 0, 182]",182,a,0.32356294654891826,colour,0.06
050,75,1,2,16,38,788,1135.9905768536264,1136.6939860192942,"[76, 0, 178]",178,a,0.18019689910579473,colour,0.06
050,75,1,2,16,39,789,1137.2092209461262,1138.0059411587135,"[93, 0, 161]",161,l,0.2823005458340049,colour,0.06
050,75,1,2,16,40,790,1138.512802537327,1139.4060042527562,"[95, 0, 159]",159,l,0.3762003917072434,colour,0.06
050,75,1,2,16,41,791,1139.9127746530576,1140.6299384774175,"[69, 0, 185]",185,a,0.19396770547609776,colour,0.06
050,75,1,2,16,42,792,1141.147089068545,1142.0459263186203,"[70, 0, 184]",184,a,0.37574510637205094,colour,0.06
050,75,1,2,16,43,793,1142.5533315977955,1143.5739470443514,"[53, 0, 201]",201,a,0.5055490855593234,colour,0.06
050,75,1,2,16,44,794,1144.0919223478704,1144.9899758454703,"[52, 0, 202]",202,a,0.3805389932531398,colour,0.06
050,75,1,2,16,45,795,1145.5079074321548,1146.3819879507064,"[57, 0, 197]",197,a,0.3508658889331855,colour,0.06
050,75,1,2,16,46,796,1146.8984607338207,1147.502101756283,"[66, 0, 188]",188,a,0.08029327308759093,colour,0.06
050,75,1,2,16,47,797,1148.0148960228544,1148.6939253670862,"[79, 0, 175]",175,a,0.15584819146897644,colour,0.06
050,75,1,2,16,48,798,1149.2024097828253,1149.9259448451048,"[60, 0, 194]",194,a,0.20020424824906513,colour,0.06
050,75,1,2,16,49,799,1150.4367954843328,1151.0939242643071,"[54, 0, 200]",200,a,0.1403405266464688,colour,0.06
050,75,1,2,16,50,800,1151.602568975155,1152.2779647012067,"[98, 0, 156]",156,l,0.15221299792756326,colour,0.06
