id,age,condition,counterbalance,block,trialinblock,trial,tstart,tend,trialstim,trialintensity,response,RT,trialtype,colourfreq
160,21,1,2,Practice,1,NA,5.5138953030109406e-06,1.3310826350934803,"[40, 0, 214]",214,a,0.7971650182735175,colour,0.5
160,21,1,2,Practice,2,NA,1.8521167642902583,3.0110777041409165,"[25, 0, 229]",229,a,0.635820128954947,colour,0.5
160,21,1,2,Practice,3,NA,3.529107182752341,4.619078132789582,"[62, 0, 192]",192,a,0.5728520432021469,colour,0.5
160,21,1,2,Practice,4,NA,5.132899761432782,6.2190956983249635,"[91, 0, 163]",163,l,0.5673527726903558,colour,0.5
160,21,1,2,Practice,5,NA,6.731672773836181,8.187064603203908,"[42, 0, 212]",212,a,0.9324735412374139,colour,0.5
160,21,1,2,Practice,6,NA,8.694898198591545,10.59512993763201,"[58, 0, 196]",196,a,1.3770487864967436,colour,0.5
160,21,1,2,Practice,7,NA,11.109468686161563,11.851055743405595,"[8, 0, 246]",246,a,0.21827374189160764,colour,0.5
160,21,1,2,Practice,8,NA,12.359425756847486,14.651073387591168,"[29, 0, 225]",225,a,1.7683268322143704,colour,0.5
160,21,1,2,Practice,9,NA,15.162938783643767,15.97122049704194,"[57, 0, 197]",197,a,0.277211602544412,colour,0.5
160,21,1,2,Practice,10,NA,16.49022001796402,17.75511999684386,"[60, 0, 194]",194,a,0.7416902447585016,colour,0.5
160,21,1,2,1,1,1,4.810289539862424,8.111974333878607,"[54, 0, 200]",200,a,2.7776794913224876,colour,0.5
160,21,1,2,1,2,2,8.626474953023717,9.616036460734904,"[4, 0, 250]",250,a,0.46631750906817615,colour,0.5
160,21,1,2,1,3,3,10.126495826756582,10.983963775681332,"[23, 0, 231]",231,a,0.3342278888449073,colour,0.5
160,21,1,2,1,4,4,11.501508429879323,12.583962436532602,"[75, 0, 179]",179,l,0.5592832632828504,colour,0.5
160,21,1,2,1,5,5,13.08502857759595,14.11195385386236,"[88, 0, 166]",166,l,0.5101435016840696,colour,0.5
160,21,1,2,1,6,6,14.619599191006273,15.471997161163017,"[66, 0, 188]",188,a,0.32918744860216975,colour,0.5
160,21,1,2,1,7,7,15.978973747929558,16.99197735870257,"[11, 0, 243]",243,a,0.48963043093681335,colour,0.5
160,21,1,2,1,8,8,17.51030773553066,18.559951619943604,"[19, 0, 235]",235,a,0.5377103530336171,colour,0.5
160,21,1,2,1,9,9,19.075030798790976,20.055967474589124,"[76, 0, 178]",178,l,0.45764856645837426,colour,0.5
160,21,1,2,1,10,10,20.575052854139358,21.46396112907678,"[60, 0, 194]",194,a,0.3656465532258153,colour,0.5
160,21,1,2,1,11,11,21.981295863399282,22.895970719866455,"[99, 0, 155]",155,l,0.39142691949382424,colour,0.5
160,21,1,2,1,12,12,23.406213864684105,24.21594926319085,"[55, 0, 199]",199,a,0.29285634378902614,colour,0.5
160,21,1,2,1,13,13,24.73227811511606,25.616007316159084,"[22, 0, 232]",232,a,0.35943599697202444,colour,0.5
160,21,1,2,1,14,14,26.123901563696563,26.98394802189432,"[14, 0, 240]",240,a,0.3367028166539967,colour,0.5
160,21,1,2,1,15,15,27.498881083680317,28.359941695118323,"[71, 0, 183]",183,l,0.33783748652786016,colour,0.5
160,21,1,2,1,16,16,28.8693073510658,29.887982343090698,"[79, 0, 175]",175,l,0.5057414858601987,colour,0.5
160,21,1,2,1,17,17,30.4057715756353,31.255994335049763,"[18, 0, 236]",236,a,0.326944102300331,colour,0.5
160,21,1,2,1,18,18,31.76517645874992,32.703947596484795,"[41, 0, 213]",213,a,0.4154523084871471,colour,0.5
160,21,1,2,1,19,19,33.21905473829247,34.04791726404801,"[26, 0, 228]",228,a,0.3100343276746571,colour,0.5
160,21,1,2,1,20,20,34.565972342621535,35.48797706561163,"[17, 0, 237]",237,a,0.39873945666477084,colour,0.5
160,21,1,2,1,21,21,35.99299741955474,37.01593027985655,"[30, 0, 224]",224,a,0.4952257997356355,colour,0.5
160,21,1,2,1,22,22,37.527123774867505,38.47193532739766,"[59, 0, 195]",195,l,0.42149390489794314,colour,0.5
160,21,1,2,1,23,23,38.98930629552342,39.847934514516965,"[47, 0, 207]",207,a,0.33597144461236894,colour,0.5
160,21,1,2,1,24,24,40.36441814783029,40.95994429453276,"[44, 0, 210]",210,a,0.07227269583381712,colour,0.5
160,21,1,2,1,25,25,41.473768286406994,42.18396582361311,"[56, 0, 198]",198,a,0.18679324351251125,colour,0.5
160,21,1,2,1,26,26,42.6925500894431,43.4239641064778,"[53, 0, 201]",201,a,0.21859275712631643,colour,0.5
160,21,1,2,1,27,27,43.94126103166491,44.47195383813232,"[45, 0, 209]",209,a,0.013172964565455914,colour,0.5
160,21,1,2,1,28,28,44.982546718092635,45.61595454066992,"[29, 0, 225]",225,a,0.11009096261113882,colour,0.5
160,21,1,2,1,29,29,46.11583441775292,46.672230396652594,"[58, 0, 196]",196,a,0.032619106816127896,colour,0.5
160,21,1,2,1,30,30,47.17835509474389,47.75993318809196,"[74, 0, 180]",180,l,0.05827029189094901,colour,0.5
160,21,1,2,1,31,31,48.26757340505719,50.29592755436897,"[37, 0, 217]",217,a,1.5050672215875238,colour,0.5
160,21,1,2,1,32,32,50.814395383466035,51.55993744148873,"[87, 0, 167]",167,l,0.22221456398256123,colour,0.5
160,21,1,2,1,33,33,52.08013386046514,52.8399351099506,"[24, 0, 230]",230,a,0.23700466006994247,colour,0.5
160,21,1,2,1,34,34,53.35096949106082,53.93596577318385,"[84, 0, 170]",170,l,0.051125138998031616,colour,0.5
160,21,1,2,1,35,35,54.454221319407225,55.167933537624776,"[9, 0, 245]",245,a,0.19602735480293632,colour,0.5
160,21,1,2,1,36,36,55.690589130623266,56.21591460471973,"[7, 0, 247]",247,a,0.007223134161904454,colour,0.5
160,21,1,2,1,37,37,56.74153546360321,57.3359907430131,"[31, 0, 223]",223,a,0.07780071697197855,colour,0.5
160,21,1,2,1,38,38,57.852748493198305,58.38395645003766,"[65, 0, 189]",189,l,0.009946184698492289,colour,0.5
160,21,1,2,1,39,39,58.89304680773057,60.32796140620485,"[43, 0, 211]",211,a,0.9157630528789014,colour,0.5
160,21,1,2,1,40,40,60.84650958003476,61.66391000780277,"[57, 0, 197]",197,a,0.29046333604492247,colour,0.5
160,21,1,2,1,41,41,62.185987040866166,63.27193249179982,"[33, 0, 221]",221,a,0.5681924521923065,colour,0.5
160,21,1,2,1,42,42,63.77953293034807,64.39197082072496,"[92, 0, 162]",162,l,0.09504880523309112,colour,0.5
160,21,1,2,1,43,43,64.91496118251234,66.06389992544428,"[89, 0, 165]",165,l,0.6310029996093363,colour,0.5
160,21,1,2,1,44,44,66.5866098687984,67.40796175296418,"[42, 0, 212]",212,a,0.29524305020458996,colour,0.5
160,21,1,2,1,45,45,67.9245753553696,68.69599702884443,"[72, 0, 182]",182,l,0.23939451691694558,colour,0.5
160,21,1,2,1,46,46,69.20799948321655,69.77595956623554,"[83, 0, 171]",171,l,0.037435842445120215,colour,0.5
160,21,1,2,1,47,47,70.28707350417972,70.94398841471411,"[69, 0, 185]",185,l,0.13866724120453,colour,0.5
160,21,1,2,1,48,48,71.46374293835834,72.75191763578914,"[8, 0, 246]",246,a,0.7700042219366878,colour,0.5
160,21,1,2,1,49,49,73.26245025731623,73.92792422720231,"[0, 0, 254]",254,a,0.14508968661539257,colour,0.5
160,21,1,2,1,50,50,74.48033172846772,75.03194720577449,"[67, 0, 187]",187,l,0.019339016173034906,colour,0.5
160,21,1,2,2,1,51,91.00778633379377,93.12790579511784,"[56, 0, 198]",198,l,1.5959507124498487,colour,0.5
160,21,1,2,2,2,52,93.64323664153926,94.71196314855479,"[20, 0, 234]",234,a,0.5488691895734519,colour,0.5
160,21,1,2,2,3,53,95.22422396601178,96.15224823006429,"[87, 0, 167]",167,l,0.4047046471387148,colour,0.5
160,21,1,2,2,4,54,96.66171392286196,97.7359062237665,"[52, 0, 202]",202,a,0.5508214838337153,colour,0.5
160,21,1,2,2,5,55,98.25545949209481,99.26391142560169,"[28, 0, 226]",226,a,0.4966771218460053,colour,0.5
160,21,1,2,2,6,56,99.78355606645346,100.7599146773573,"[64, 0, 190]",190,a,0.4485054335091263,colour,0.5
160,21,1,2,2,7,57,101.27248426992446,102.27195533481427,"[13, 0, 241]",241,a,0.4760344757232815,colour,0.5
160,21,1,2,2,8,58,102.78821723279543,103.67989700147882,"[32, 0, 222]",222,a,0.36848618229851127,colour,0.5
160,21,1,2,2,9,59,104.19608761346899,105.1439172073733,"[1, 0, 253]",253,a,0.3859004736877978,colour,0.5
160,21,1,2,2,10,60,105.66431133681908,106.51226239278913,"[11, 0, 243]",243,a,0.3279039047192782,colour,0.5
160,21,1,2,2,11,61,107.02779922052287,107.95991239300929,"[3, 0, 251]",251,a,0.4069137289188802,colour,0.5
160,21,1,2,2,12,62,108.47417788603343,109.38392257946543,"[8, 0, 246]",246,a,0.38468545908108354,colour,0.5
160,21,1,2,2,13,63,109.90367986005731,110.70394483953714,"[90, 0, 164]",164,l,0.2810980740468949,colour,0.5
160,21,1,2,2,14,64,111.22078805416822,111.81590972119011,"[51, 0, 203]",203,a,0.07691968395374715,colour,0.5
160,21,1,2,2,15,65,112.33517981437035,113.72792257298715,"[31, 0, 223]",223,a,0.8758050210308284,colour,0.5
160,21,1,2,2,16,66,114.23717007529922,115.01592043368146,"[88, 0, 166]",166,l,0.2607208797708154,colour,0.5
160,21,1,2,2,17,67,115.53518855781294,116.39986900682561,"[72, 0, 182]",182,l,0.3476426745764911,colour,0.5
160,21,1,2,2,18,68,116.91000108700246,117.80789692583494,"[59, 0, 195]",195,l,0.3802117630839348,colour,0.5
160,21,1,2,2,19,69,118.31904591619968,119.11190541088581,"[12, 0, 242]",242,a,0.27523607132025063,colour,0.5
160,21,1,2,2,20,70,119.6250590768177,120.47995481803082,"[57, 0, 197]",197,l,0.3368012779392302,colour,0.5
160,21,1,2,2,21,71,120.99462754791602,122.03996236412786,"[65, 0, 189]",189,l,0.5268677750136703,colour,0.5
160,21,1,2,2,22,72,122.55737901851535,123.40794284828007,"[61, 0, 193]",193,l,0.33313929848372936,colour,0.5
160,21,1,2,2,23,73,123.91120940633118,124.77593120932579,"[68, 0, 186]",186,l,0.3389816088601947,colour,0.5
160,21,1,2,2,24,74,125.29085915116593,126.24792167521082,"[81, 0, 173]",173,l,0.43370273476466537,colour,0.5
160,21,1,2,2,25,75,126.75960511434823,127.54392012185417,"[23, 0, 231]",231,a,0.26100484281778336,colour,0.5
160,21,1,2,2,26,76,128.05651137582026,128.8718669556547,"[22, 0, 232]",232,a,0.2920820426661521,colour,0.5
160,21,1,2,2,27,77,129.38755068788305,130.19990004203282,"[91, 0, 163]",163,l,0.2890368262305856,colour,0.5
160,21,1,2,2,28,78,130.71565939253196,131.59991713473573,"[89, 0, 165]",165,l,0.36096845124848187,colour,0.5
160,21,1,2,2,29,79,132.10631319251843,132.94387459312566,"[93, 0, 161]",161,l,0.3142362697981298,colour,0.5
160,21,1,2,2,30,80,133.45146006555296,134.43997551850043,"[38, 0, 216]",216,a,0.4630863971542567,colour,0.5
160,21,1,2,2,31,81,134.96303086495027,135.81590696424246,"[35, 0, 219]",219,a,0.32518912479281425,colour,0.5
160,21,1,2,2,32,82,136.33726247143932,137.13589889812283,"[10, 0, 244]",244,a,0.2817183812148869,colour,0.5
160,21,1,2,2,33,83,137.65063779405318,138.62393779749982,"[60, 0, 194]",194,l,0.44054226274602115,colour,0.5
160,21,1,2,2,34,84,139.13412619777955,139.97592301736586,"[27, 0, 227]",227,a,0.3136265962384641,colour,0.5
160,21,1,2,2,35,85,140.49108884227462,141.33587652770802,"[58, 0, 196]",196,l,0.32608315511606634,colour,0.5
160,21,1,2,2,36,86,141.85253345337696,142.5038978930097,"[4, 0, 250]",250,a,0.1266915681771934,colour,0.5
160,21,1,2,2,37,87,143.01869232137688,143.7678869063966,"[5, 0, 249]",249,a,0.22644643858075142,colour,0.5
160,21,1,2,2,38,88,144.27852665400133,144.91097585577518,"[77, 0, 177]",177,l,0.10980581818148494,colour,0.5
160,21,1,2,2,39,89,145.42419056780636,146.61589349457063,"[39, 0, 215]",215,a,0.6689910138957202,colour,0.5
160,21,1,2,2,40,90,147.1272693402134,147.7599190096371,"[70, 0, 184]",184,l,0.10926743084564805,colour,0.5
160,21,1,2,2,41,91,148.27726319618523,149.25588523969054,"[15, 0, 239]",239,a,0.4553335402160883,colour,0.5
160,21,1,2,2,42,92,149.7715713349171,150.3038785159588,"[82, 0, 172]",172,l,0.008942271815612912,colour,0.5
160,21,1,2,2,43,93,150.81839528260753,151.51992427138612,"[53, 0, 201]",201,a,0.1785665899515152,colour,0.5
160,21,1,2,2,44,94,152.03720465488732,153.81593059492297,"[49, 0, 205]",205,a,1.2553826922085136,colour,0.5
160,21,1,2,2,45,95,154.32392606092617,155.68789246748202,"[37, 0, 217]",217,a,0.8458211373072118,colour,0.5
160,21,1,2,2,46,96,156.2026175786741,156.91188209527172,"[83, 0, 171]",171,l,0.18637301004491746,colour,0.5
160,21,1,2,2,47,97,157.42829680535942,158.43189143715426,"[48, 0, 206]",206,l,0.4805869406554848,colour,0.5
160,21,1,2,2,48,98,158.94383087637834,159.81583843496628,"[96, 0, 158]",158,l,0.35149527550674975,colour,0.5
160,21,1,2,2,49,99,160.3316281118896,161.07190760062076,"[47, 0, 207]",207,a,0.2169819271657616,colour,0.5
160,21,1,2,2,50,100,161.58154776715674,162.4239073926583,"[26, 0, 228]",228,a,0.3189639961346984,colour,0.5
160,21,1,2,3,1,101,220.3928825741168,221.38384499168023,"[5, 0, 249]",249,a,0.4675660007633269,colour,0.5
160,21,1,2,3,2,102,221.89383843820542,222.9118797320407,"[61, 0, 193]",193,l,0.49504384282045066,colour,0.5
160,21,1,2,3,3,103,223.42643785267137,224.28781038988382,"[82, 0, 172]",172,l,0.3389489196706563,colour,0.5
160,21,1,2,3,4,104,224.79052044381388,225.62424105894752,"[75, 0, 179]",179,l,0.31450723577290773,colour,0.5
160,21,1,2,3,5,105,226.13757589412853,227.00789621681906,"[54, 0, 200]",200,a,0.3470912901684642,colour,0.5
160,21,1,2,3,6,106,227.5282864079345,228.37584361806512,"[52, 0, 202]",202,a,0.32446326687932014,colour,0.5
160,21,1,2,3,7,107,228.8874723126646,229.8078709319234,"[62, 0, 192]",192,a,0.3954937723465264,colour,0.5
160,21,1,2,3,8,108,230.3286754488945,231.14383331802674,"[37, 0, 217]",217,a,0.2918705474585295,colour,0.5
160,21,1,2,3,9,109,231.65677667059936,232.55984331225045,"[55, 0, 199]",199,a,0.38201951584778726,colour,0.5
160,21,1,2,3,10,110,233.07639114256017,233.87982106790878,"[42, 0, 212]",212,a,0.2801922282669693,colour,0.5
160,21,1,2,3,11,111,234.3888692841865,235.26383659499697,"[17, 0, 237]",237,a,0.34404922439716756,colour,0.5
160,21,1,2,3,12,112,235.77976963156834,236.5678368092049,"[72, 0, 182]",182,l,0.26978327450342476,colour,0.5
160,21,1,2,3,13,113,237.0872431730386,237.9199886256829,"[41, 0, 213]",213,a,0.3094388325698674,colour,0.5
160,21,1,2,3,14,114,238.4309359670151,239.27185096568428,"[4, 0, 250]",250,a,0.31811328907497227,colour,0.5
160,21,1,2,3,15,115,239.7903652684763,240.75185501435772,"[60, 0, 194]",194,l,0.4345841617323458,colour,0.5
160,21,1,2,3,16,116,241.26276494027115,242.199828755809,"[92, 0, 162]",162,l,0.41378555237315595,colour,0.5
160,21,1,2,3,17,117,242.71581220487133,243.59983009495772,"[43, 0, 211]",211,a,0.3606840947177261,colour,0.5
160,21,1,2,3,18,118,244.10644434322603,245.06381879304536,"[59, 0, 195]",195,a,0.43398551596328616,colour,0.5
160,21,1,2,3,19,119,245.57297374145128,246.42386761424132,"[29, 0, 225]",225,a,0.3238902210723609,colour,0.5
160,21,1,2,3,20,120,246.9332021563314,247.8158187426161,"[24, 0, 230]",230,a,0.3622252135537565,colour,0.5
160,21,1,2,3,21,121,248.3277463663835,249.28790373145603,"[31, 0, 223]",223,a,0.4423842802643776,colour,0.5
160,21,1,2,3,22,122,249.80508722900413,250.5598236201331,"[77, 0, 177]",177,l,0.23629534360952675,colour,0.5
160,21,1,2,3,23,123,251.07490516197868,251.89587186463177,"[68, 0, 186]",186,l,0.30232676304876804,colour,0.5
160,21,1,2,3,24,124,252.40723431948572,253.27190374094062,"[45, 0, 209]",209,a,0.34604956791736186,colour,0.5
160,21,1,2,3,25,125,253.78525314852595,254.64780761720613,"[33, 0, 221]",221,a,0.3447699623648077,colour,0.5
160,21,1,2,3,26,126,255.17035253928043,256.1598226749338,"[6, 0, 248]",248,a,0.4721507611684501,colour,0.5
160,21,1,2,3,27,127,256.6738731281366,257.6478052542079,"[12, 0, 242]",242,a,0.4505628845654428,colour,0.5
160,21,1,2,3,28,128,258.1582354758866,259.2079155941028,"[16, 0, 238]",238,a,0.5263801936525851,colour,0.5
160,21,1,2,3,29,129,259.7260344757233,260.47180653968826,"[94, 0, 160]",160,l,0.2238974676001817,colour,0.5
160,21,1,2,3,30,130,260.9901952059008,262.1598313394934,"[50, 0, 204]",204,a,0.6463421166408807,colour,0.5
160,21,1,2,3,31,131,262.67775684269145,263.839788205456,"[79, 0, 175]",175,l,0.6386554257478565,colour,0.5
160,21,1,2,3,32,132,264.34953155973926,265.23181810299866,"[97, 0, 157]",157,l,0.35630728490650654,colour,0.5
160,21,1,2,3,33,133,265.75309917354025,266.62380585912615,"[93, 0, 161]",161,l,0.3435265908483416,colour,0.5
160,21,1,2,3,34,134,267.13834507530555,268.8078654182609,"[63, 0, 191]",191,l,1.1369827622547746,colour,0.5
160,21,1,2,3,35,135,269.32535257097334,269.95981432520784,"[96, 0, 158]",158,l,0.10319905285723507,colour,0.5
160,21,1,2,3,36,136,270.4839897695929,271.03185543976724,"[49, 0, 205]",205,a,0.029465582687407732,colour,0.5
160,21,1,2,3,37,137,271.5514189482201,272.96781097282656,"[47, 0, 207]",207,a,0.8828343830537051,colour,0.5
160,21,1,2,3,38,138,273.4868628755212,274.1518441441003,"[27, 0, 227]",227,a,0.14771427563391626,colour,0.5
160,21,1,2,3,39,139,274.6684746821411,275.3037910819985,"[76, 0, 178]",178,l,0.11207082611508667,colour,0.5
160,21,1,2,3,40,140,275.8247791312169,276.8958340554964,"[10, 0, 244]",244,a,0.5432336484082043,colour,0.5
160,21,1,2,3,41,141,277.41586387739517,277.9758867835626,"[73, 0, 181]",181,l,0.027430974645540118,colour,0.5
160,21,1,2,3,42,142,278.4951308828313,279.05582411470823,"[18, 0, 236]",236,a,0.02949787792749703,colour,0.5
160,21,1,2,3,43,143,279.57452706992626,280.1198630677536,"[44, 0, 210]",210,a,0.023097094148397446,colour,0.5
160,21,1,2,3,44,144,280.63081986131147,282.1917832712643,"[58, 0, 196]",196,a,1.0435617219191045,colour,0.5
160,21,1,2,3,45,145,282.70649774884805,283.47982327337377,"[1, 0, 253]",253,a,0.24742621672339737,colour,0.5
160,21,1,2,3,46,146,283.99960733554326,284.63176469760947,"[65, 0, 189]",189,l,0.10999683360569179,colour,0.5
160,21,1,2,3,47,147,285.1441330348607,285.68782630143687,"[34, 0, 220]",220,a,0.029828708618879318,colour,0.5
160,21,1,2,3,48,148,286.2065324073192,288.0479097808711,"[98, 0, 156]",156,l,1.3214412869419903,colour,0.5
160,21,1,2,3,49,149,288.56258172309026,289.1757734345738,"[2, 0, 252]",252,a,0.09564902656711638,colour,0.5
160,21,1,2,3,50,150,289.67551940400153,290.43183905561455,"[40, 0, 214]",214,a,0.23290236084721982,colour,0.5
160,21,1,2,4,1,151,295.27609071694314,296.4637882306706,"[4, 0, 250]",250,a,0.6699122197460383,colour,0.5
160,21,1,2,4,2,152,296.9730357329827,298.10381620936096,"[49, 0, 205]",205,a,0.6081469391938299,colour,0.5
160,21,1,2,4,3,153,298.6218000019435,299.4878203149419,"[65, 0, 189]",189,l,0.34349862788803875,colour,0.5
160,21,1,2,4,4,154,299.9957830917556,300.59183462895453,"[66, 0, 188]",188,l,0.08497895300388336,colour,0.5
160,21,1,2,4,5,155,301.09907036600634,301.6558227755595,"[12, 0, 242]",242,a,0.03348084166646004,colour,0.5
160,21,1,2,4,6,156,302.17718340293504,302.70384834730066,"[35, 0, 219]",219,a,0.00331224431283772,colour,0.5
160,21,1,2,4,7,157,303.2240294062067,304.3518891213462,"[28, 0, 226]",226,a,0.6044447876047343,colour,0.5
160,21,1,2,4,8,158,304.87200086330995,305.80791071034037,"[60, 0, 194]",194,a,0.4125217008404434,colour,0.5
160,21,1,2,4,9,159,306.3304646909237,307.0558619238436,"[23, 0, 231]",231,a,0.19845935353077948,colour,0.5
160,21,1,2,4,10,160,307.5684181258548,308.6877845537383,"[92, 0, 162]",162,l,0.5963705524336547,colour,0.5
160,21,1,2,4,11,161,309.2090482949279,310.0318428366445,"[90, 0, 164]",164,l,0.2993059647269547,colour,0.5
160,21,1,2,4,12,162,310.55672484030947,311.3677729272749,"[91, 0, 163]",163,l,0.2878332328982651,colour,0.5
160,21,1,2,4,13,163,311.8847157850396,312.7837931616232,"[79, 0, 175]",175,l,0.3758747319225222,colour,0.5
160,21,1,2,4,14,164,313.29100132966414,313.8958722583484,"[97, 0, 157]",157,l,0.08159739174880087,colour,0.5
160,21,1,2,4,15,165,314.4159308313392,315.0717835391406,"[53, 0, 201]",201,a,0.13282493082806468,colour,0.5
160,21,1,2,4,16,166,315.5940472553484,316.6397983666975,"[16, 0, 238]",238,a,0.5155092584900558,colour,0.5
160,21,1,2,4,17,167,317.1535420138389,318.07977388519794,"[47, 0, 207]",207,a,0.4029760572593659,colour,0.5
160,21,1,2,4,18,168,318.5910764753353,319.11979926470667,"[43, 0, 211]",211,a,0.005424439907073975,colour,0.5
160,21,1,2,4,19,169,319.6380000661593,320.2637972102966,"[87, 0, 167]",167,l,0.10262915771454573,colour,0.5
160,21,1,2,4,20,170,320.77294231252745,321.37578611657955,"[98, 0, 156]",156,l,0.07960571302101016,colour,0.5
160,21,1,2,4,21,171,321.8822231341619,322.47981618414633,"[32, 0, 222]",222,a,0.08235672651790082,colour,0.5
160,21,1,2,4,22,172,322.9990531944204,324.1117439339869,"[0, 0, 254]",254,a,0.5893482794053853,colour,0.5
160,21,1,2,4,23,173,324.62406028364785,325.15176301193424,"[67, 0, 187]",187,l,0.010557827539741993,colour,0.5
160,21,1,2,4,24,174,325.66448108432814,327.0078174476512,"[76, 0, 178]",178,l,0.8195854849182069,colour,0.5
160,21,1,2,4,25,175,327.52871057996526,328.7117701640818,"[88, 0, 166]",166,l,0.6649856008589268,colour,0.5
160,21,1,2,4,26,176,329.2306901284028,330.2238639907446,"[39, 0, 215]",215,a,0.4685132000595331,colour,0.5
160,21,1,2,4,27,177,330.7380152686965,331.3277751172427,"[85, 0, 169]",169,l,0.06380855315364897,colour,0.5
160,21,1,2,4,28,178,331.84430207358673,332.59181926888414,"[58, 0, 196]",196,a,0.22902140324003994,colour,0.5
160,21,1,2,4,29,179,333.1137836619746,333.68785308278166,"[18, 0, 236]",236,a,0.05536331492476165,colour,0.5
160,21,1,2,4,30,180,334.1972348866984,334.72779693617485,"[24, 0, 230]",230,a,0.0024390877224504948,colour,0.5
160,21,1,2,4,31,181,335.2501311507076,336.6157895193901,"[52, 0, 202]",202,a,0.8317915578372777,colour,0.5
160,21,1,2,4,32,182,337.1232351765502,338.0397548072506,"[64, 0, 190]",190,a,0.3930913123767823,colour,0.5
160,21,1,2,4,33,183,338.560749551747,339.45575337996706,"[29, 0, 225]",225,a,0.37167909112758934,colour,0.5
160,21,1,2,4,34,184,339.9721814810764,340.54381102649495,"[22, 0, 232]",232,a,0.04831780539825559,colour,0.5
160,21,1,2,4,35,185,341.049177570967,341.63979324675165,"[7, 0, 247]",247,a,0.06720311124809086,colour,0.5
160,21,1,2,4,36,186,342.1585856047459,343.23984980303794,"[3, 0, 251]",251,a,0.5577996459323913,colour,0.5
160,21,1,2,4,37,187,343.7557812642772,344.7597658035811,"[54, 0, 200]",200,a,0.48080631298944354,colour,0.5
160,21,1,2,4,38,188,345.270318511175,346.2717804671265,"[34, 0, 220]",220,a,0.47810531756840646,colour,0.5
160,21,1,2,4,39,189,346.78087240015157,347.6797666384373,"[8, 0, 246]",246,a,0.38203330035321414,colour,0.5
160,21,1,2,4,40,190,348.1964176562615,349.11173251247965,"[74, 0, 180]",180,l,0.39205195289105177,colour,0.5
160,21,1,2,4,41,191,349.61819749325514,350.36776859499514,"[48, 0, 206]",206,a,0.22636530618183315,colour,0.5
160,21,1,2,4,42,192,350.88384420401417,351.5277417190373,"[11, 0, 243]",243,a,0.11567806079983711,colour,0.5
160,21,1,2,4,43,193,352.04167519998737,352.59185274573974,"[95, 0, 159]",159,l,0.02706666709855199,colour,0.5
160,21,1,2,4,44,194,353.10399028938264,353.75175103894435,"[70, 0, 184]",184,l,0.1244600370991975,colour,0.5
160,21,1,2,4,45,195,354.26027110777795,354.8078134304378,"[6, 0, 248]",248,a,0.024341253330931067,colour,0.5
160,21,1,2,4,46,196,355.32274097856134,356.3917857131455,"[30, 0, 224]",224,a,0.545731812948361,colour,0.5
160,21,1,2,4,47,197,356.9146063274238,357.83973109768704,"[57, 0, 197]",197,a,0.3975740666501224,colour,0.5
160,21,1,2,4,48,198,358.350099879317,359.67176408320665,"[69, 0, 185]",185,l,0.804370429366827,colour,0.5
160,21,1,2,4,49,199,360.1903240722604,360.9837826064322,"[9, 0, 245]",245,a,0.2763175719883293,colour,0.5
160,21,1,2,4,50,200,361.50428031757474,362.3597904583439,"[50, 0, 204]",204,a,0.33815807732753456,colour,0.5
160,21,1,2,5,1,201,367.63962113601156,368.93572670873255,"[26, 0, 228]",228,a,0.7719450946897268,colour,0.4
160,21,1,2,5,2,202,369.4529031170532,370.4557935523335,"[33, 0, 221]",221,a,0.4864564265590161,colour,0.4
160,21,1,2,5,3,203,370.97731683799066,371.8797387541272,"[52, 0, 202]",202,a,0.38472169265151024,colour,0.4
160,21,1,2,5,4,204,372.39360646298155,373.17572499159724,"[92, 0, 162]",162,l,0.2588682286441326,colour,0.4
160,21,1,2,5,5,205,373.6904831859283,374.5437436788343,"[15, 0, 239]",239,a,0.3270787976216525,colour,0.4
160,21,1,2,5,6,206,375.0633434210904,375.9037767460104,"[99, 0, 155]",155,l,0.31711843400262296,colour,0.4
160,21,1,2,5,7,207,376.4135882356204,377.23176926607266,"[38, 0, 216]",216,a,0.2616834391374141,colour,0.4
160,21,1,2,5,8,208,377.7396095569711,378.663735140115,"[93, 0, 161]",161,l,0.3997114684898406,colour,0.4
160,21,1,2,5,9,209,379.1791400294751,380.36776977661066,"[2, 0, 252]",252,a,0.6711488957516849,colour,0.4
160,21,1,2,5,10,210,380.87624652241357,381.9437946425751,"[77, 0, 177]",177,l,0.5468381263781339,colour,0.4
160,21,1,2,5,11,211,382.46199701935984,383.42374473437667,"[81, 0, 173]",173,l,0.43844306422397494,colour,0.4
160,21,1,2,5,12,212,383.93079221318476,384.9517459976487,"[97, 0, 157]",157,l,0.49767709663137794,colour,0.4
160,21,1,2,5,13,213,385.46203010249883,386.43173468648456,"[62, 0, 192]",192,a,0.4462739024311304,colour,0.4
160,21,1,2,5,14,214,386.9497933096718,387.9117509445641,"[72, 0, 182]",182,l,0.43016954278573394,colour,0.4
160,21,1,2,5,15,215,388.43138455739245,389.45573408156633,"[12, 0, 242]",242,a,0.5014521100092679,colour,0.4
160,21,1,2,5,16,216,389.96262362832204,390.97575720818713,"[88, 0, 166]",166,l,0.48981593223288655,colour,0.4
160,21,1,2,5,17,217,391.4940485942643,392.47972835670225,"[19, 0, 235]",235,a,0.4623550253454596,colour,0.4
160,21,1,2,5,18,218,392.9940982188564,394.007757976884,"[22, 0, 232]",232,a,0.4904319071210921,colour,0.4
160,21,1,2,5,19,219,394.5253408343997,395.5038250316866,"[58, 0, 196]",196,a,0.45511259278282523,colour,0.4
160,21,1,2,5,20,220,396.02532271738164,397.07174494233914,"[67, 0, 187]",187,a,0.534795893356204,colour,0.4
160,21,1,2,5,21,221,397.5955411128234,398.5757491737604,"[39, 0, 215]",215,a,0.45525240805000067,colour,0.4
160,21,1,2,5,22,222,399.0971385517623,400.1757179023698,"[70, 0, 184]",184,l,0.5556228593923151,colour,0.4
160,21,1,2,5,23,223,400.68371848831885,401.6397837942932,"[53, 0, 201]",201,a,0.432853996520862,colour,0.4
160,21,1,2,5,24,224,402.146465390455,403.15179648878984,"[48, 0, 206]",206,a,0.4829177209176123,colour,0.4
160,21,1,2,5,25,225,403.66195456287824,404.59178264113143,"[87, 0, 167]",167,l,0.4065458767581731,colour,0.4
160,21,1,2,5,26,226,405.099137713667,406.02375127212144,"[27, 0, 227]",227,a,0.4013258428312838,colour,0.4
160,21,1,2,5,27,227,406.5277653497178,407.47976498422213,"[36, 0, 218]",218,a,0.43423954653553665,colour,0.4
160,21,1,2,5,28,228,407.9941860465333,408.9518212224357,"[47, 0, 207]",207,a,0.43315331963822246,colour,0.4
160,21,1,2,5,29,229,409.46450660564005,410.4557372322306,"[73, 0, 181]",181,l,0.46825680625624955,colour,0.4
160,21,1,2,5,30,230,410.9645353562664,411.943758408539,"[54, 0, 200]",200,a,0.46335027390159667,colour,0.4
160,21,1,2,5,31,231,412.4498835003469,413.34371996927075,"[84, 0, 170]",170,l,0.3705077935010195,colour,0.4
160,21,1,2,5,32,232,413.8561883433722,414.8477301085368,"[49, 0, 205]",205,a,0.46832021581940353,colour,0.4
160,21,1,2,5,33,233,415.3561517158523,416.3677426013164,"[31, 0, 223]",223,a,0.48830592702142894,colour,0.4
160,21,1,2,5,34,234,416.87932285293937,417.9198188781738,"[79, 0, 175]",175,l,0.5083845858462155,colour,0.4
160,21,1,2,5,35,235,418.42843268229626,419.38373825955205,"[0, 0, 254]",254,a,0.4230618055444211,colour,0.4
160,21,1,2,5,36,236,419.89699983922765,420.8317285424564,"[25, 0, 229]",229,a,0.41744280559942126,colour,0.4
160,21,1,2,5,37,237,421.35116759571247,422.28775800857693,"[21, 0, 233]",233,a,0.4041772873606533,colour,0.4
160,21,1,2,5,38,238,422.80418729106896,423.63969675451517,"[91, 0, 163]",163,l,0.31721335113979876,colour,0.4
160,21,1,2,5,39,239,424.15037746191956,425.06377547001466,"[85, 0, 169]",169,l,0.39536931714974344,colour,0.4
160,21,1,2,5,40,240,425.5747968542855,426.43169018183835,"[98, 0, 156]",156,l,0.3394400456454605,colour,0.4
160,21,1,2,5,41,241,426.92747642449103,427.79974825377576,"[50, 0, 204]",204,a,0.3458207433577627,colour,0.4
160,21,1,2,5,42,242,428.3151287245564,429.20790811115876,"[63, 0, 191]",191,a,0.36952317878603935,colour,0.4
160,21,1,2,5,43,243,429.7213331370149,430.60794135159813,"[83, 0, 171]",171,l,0.36334019154310226,colour,0.4
160,21,1,2,5,44,244,431.12760686618276,432.09574709413573,"[18, 0, 236]",236,a,0.45382826100103557,colour,0.4
160,21,1,2,5,45,245,432.6031529728789,433.5197383761406,"[65, 0, 189]",189,l,0.39363954588770866,colour,0.4
160,21,1,2,5,46,246,434.04058030829765,435.007693386171,"[61, 0, 193]",193,a,0.4437855838332325,colour,0.4
160,21,1,2,5,47,247,435.5202011449728,436.3437057908159,"[95, 0, 159]",159,l,0.3096361493226141,colour,0.4
160,21,1,2,5,48,248,436.85726236132905,437.9597245284822,"[60, 0, 194]",194,a,0.5845023994334042,colour,0.4
160,21,1,2,5,49,249,438.46979162399657,439.4237230727449,"[30, 0, 224]",224,a,0.4407986565493047,colour,0.4
160,21,1,2,5,50,250,439.94403134379536,440.91972277965397,"[64, 0, 190]",190,a,0.45242183725349605,colour,0.4
160,21,1,2,6,1,251,450.8108724318445,451.91974010900594,"[20, 0, 234]",234,a,0.5811287150718272,colour,0.28
160,21,1,2,6,2,252,452.42912073107436,453.5197549175937,"[92, 0, 162]",162,l,0.5722750588320196,colour,0.28
160,21,1,2,6,3,253,454.0413116803393,454.85572202992626,"[70, 0, 184]",184,a,0.2962229389231652,colour,0.28
160,21,1,2,6,4,254,455.3781054751016,456.19970784522593,"[45, 0, 209]",209,a,0.3030597101897001,colour,0.28
160,21,1,2,6,5,255,456.7190602521878,457.55972082633525,"[79, 0, 175]",175,l,0.30891107907518744,colour,0.28
160,21,1,2,6,6,256,458.0798991282936,458.9196952106431,"[87, 0, 167]",167,l,0.31514211534522474,colour,0.28
160,21,1,2,6,7,257,459.4322785877157,460.24769245670177,"[77, 0, 177]",177,l,0.2981689313892275,colour,0.28
160,21,1,2,6,8,258,460.7624975189101,461.31187595124356,"[60, 0, 194]",194,a,0.032498196233063936,colour,0.28
160,21,1,2,6,9,259,461.8295753868297,463.3757191626355,"[55, 0, 199]",199,a,1.026927639497444,colour,0.28
160,21,1,2,6,10,260,463.89154743636027,464.8396617809776,"[2, 0, 252]",252,a,0.43058505025692284,colour,0.28
160,21,1,2,6,11,261,465.36244813050143,465.9517826254014,"[93, 0, 161]",161,l,0.06951892515644431,colour,0.28
160,21,1,2,6,12,262,466.47024690988474,468.5597015279345,"[7, 0, 247]",247,a,1.565491063054651,colour,0.28
160,21,1,2,6,13,263,469.0707654473372,469.6878400859423,"[82, 0, 172]",172,l,0.08621484134346247,colour,0.28
160,21,1,2,6,14,264,470.19722307124175,472.1117029739544,"[63, 0, 191]",191,a,1.3971550145652145,colour,0.28
160,21,1,2,6,15,265,472.63144016847946,473.7597216926515,"[94, 0, 160]",160,l,0.6100748148746789,colour,0.28
160,21,1,2,6,16,266,474.27282415889204,475.0236681706738,"[72, 0, 182]",182,l,0.232617610367015,colour,0.28
160,21,1,2,6,17,267,475.5359872772824,476.21568578039296,"[52, 0, 202]",202,a,0.16129408334381878,colour,0.28
160,21,1,2,6,18,268,476.7333395299502,477.4637145814486,"[50, 0, 204]",204,a,0.20954138995148242,colour,0.28
160,21,1,2,6,19,269,477.9732476219069,478.6716648340225,"[48, 0, 206]",206,a,0.17790886713191867,colour,0.28
160,21,1,2,6,20,270,479.1891917651519,480.62369558238424,"[57, 0, 197]",197,a,0.911230280296877,colour,0.28
160,21,1,2,6,21,271,481.1329612014815,482.37568489811383,"[71, 0, 183]",183,a,0.7194753657095134,colour,0.28
160,21,1,2,6,22,272,482.8963043075055,483.8716991774272,"[31, 0, 223]",223,a,0.4521189699880779,colour,0.28
160,21,1,2,6,23,273,484.38063672278076,485.29564477317035,"[40, 0, 214]",214,a,0.39420235180296004,colour,0.28
160,21,1,2,6,24,274,485.8156017335132,486.75166990677826,"[56, 0, 198]",198,a,0.41277100541628897,colour,0.28
160,21,1,2,6,25,275,487.26176023925655,488.32770225568675,"[4, 0, 250]",250,a,0.5482729068025947,colour,0.28
160,21,1,2,6,26,276,488.84255418530665,489.5357060711831,"[98, 0, 156]",156,l,0.16968890884891152,colour,0.28
160,21,1,2,6,27,277,490.05110977916047,490.6637122971006,"[26, 0, 228]",228,a,0.08957986091263592,colour,0.28
160,21,1,2,6,28,278,491.17605976061895,491.80767125217244,"[88, 0, 166]",166,l,0.10821310547180474,colour,0.28
160,21,1,2,6,29,279,492.3159743119031,492.97563866060227,"[54, 0, 200]",200,a,0.13655228866264224,colour,0.28
160,21,1,2,6,30,280,493.4902625535615,494.1197019848041,"[62, 0, 192]",192,a,0.10616943892091513,colour,0.28
160,21,1,2,6,31,281,494.63090296275914,495.42368329432793,"[69, 0, 185]",185,a,0.26973916380666196,colour,0.28
160,21,1,2,6,32,282,495.94338464876637,496.58369068289176,"[65, 0, 189]",189,a,0.1170903923921287,colour,0.28
160,21,1,2,6,33,283,497.0996934303548,497.6876833352726,"[59, 0, 195]",195,a,0.06751897535286844,colour,0.28
160,21,1,2,6,34,284,498.24015030730516,498.9196097459644,"[96, 0, 158]",158,l,0.1615697753150016,colour,0.28
160,21,1,2,6,35,285,499.43746081227437,500.1436458474491,"[81, 0, 173]",173,a,0.188658497761935,colour,0.28
160,21,1,2,6,36,286,500.6585619740654,502.14370453055017,"[86, 0, 168]",168,l,0.9685112310107797,colour,0.28
160,21,1,2,6,37,287,502.65555889881216,503.34368649241515,"[89, 0, 165]",165,l,0.17012135195545852,colour,0.28
160,21,1,2,6,38,288,503.86410188954324,504.9836443664972,"[97, 0, 157]",157,l,0.6014011460356414,colour,0.28
160,21,1,2,6,39,289,505.50640669162385,506.0957230697386,"[36, 0, 218]",218,a,0.07102144742384553,colour,0.28
160,21,1,2,6,40,290,506.6051544980146,507.17563046864234,"[83, 0, 171]",171,l,0.05383637431077659,colour,0.28
160,21,1,2,6,41,291,507.6893091313541,508.25567413819954,"[49, 0, 205]",205,a,0.0350195977371186,colour,0.28
160,21,1,2,6,42,292,508.77708242088556,509.42370219901204,"[74, 0, 180]",180,l,0.12971591111272573,colour,0.28
160,21,1,2,6,43,293,509.93652582215145,510.54377242946066,"[99, 0, 155]",155,l,0.08993156533688307,colour,0.28
160,21,1,2,6,44,294,511.0643839619588,511.647668589605,"[24, 0, 230]",230,a,0.06627166527323425,colour,0.28
160,21,1,2,6,45,295,512.1602314868942,512.7197108855471,"[91, 0, 163]",163,l,0.04150308924727142,colour,0.28
160,21,1,2,6,46,296,513.2424113769084,514.4557648014743,"[30, 0, 224]",224,a,0.6954999952577055,colour,0.28
160,21,1,2,6,47,297,514.9695765841752,515.5837221904658,"[85, 0, 169]",169,l,0.09613030613400042,colour,0.28
160,21,1,2,6,48,298,516.1090303356759,516.7676872264128,"[61, 0, 193]",193,a,0.12732014618813992,colour,0.28
160,21,1,2,6,49,299,517.283902650699,517.9836695727427,"[95, 0, 159]",159,l,0.18628990836441517,colour,0.28
160,21,1,2,6,50,300,518.49615448853,519.1437053182162,"[44, 0, 210]",210,a,0.12946503120474517,colour,0.28
160,21,1,2,7,1,301,523.615706023993,525.6717026431579,"[61, 0, 193]",193,l,1.5375571469776332,colour,0.14
160,21,1,2,7,2,302,526.1898648478091,527.0876445020549,"[65, 0, 189]",189,l,0.3800168093293905,colour,0.14
160,21,1,2,7,3,303,527.5879162556957,528.5117578762583,"[67, 0, 187]",187,l,0.40654312004335225,colour,0.14
160,21,1,2,7,4,304,529.0274723283947,529.839690531604,"[58, 0, 196]",196,a,0.2894720258191228,colour,0.14
160,21,1,2,7,5,305,530.3599991966039,531.2076592005324,"[10, 0, 244]",244,a,0.3243553531356156,colour,0.14
160,21,1,2,7,6,306,531.7193564241752,532.5116728055291,"[40, 0, 214]",214,a,0.27171193808317184,colour,0.14
160,21,1,2,7,7,307,533.0323130886536,534.0956986511592,"[87, 0, 167]",167,l,0.5401163578499109,colour,0.14
160,21,1,2,7,8,308,534.6104915039614,535.4476326708682,"[96, 0, 158]",158,l,0.3138239129912108,colour,0.14
160,21,1,2,7,9,309,535.9542295902502,537.1596808903851,"[73, 0, 181]",181,l,0.6821880033239722,colour,0.14
160,21,1,2,7,10,310,537.6639576631133,538.5036899424158,"[83, 0, 171]",171,l,0.3215365977957845,colour,0.14
160,21,1,2,7,11,311,539.0105117475614,539.8716523097828,"[93, 0, 161]",161,l,0.3379658805206418,colour,0.14
160,21,1,2,7,12,312,540.3928041986655,541.9036444139201,"[68, 0, 186]",186,a,0.9876127580646425,colour,0.14
160,21,1,2,7,13,313,542.4126107101329,543.1916387300007,"[92, 0, 162]",162,l,0.27426287811249495,colour,0.14
160,21,1,2,7,14,314,543.7001966079697,544.4716828721575,"[55, 0, 199]",199,a,0.24807212431915104,colour,0.14
160,21,1,2,7,15,315,544.9722188964952,545.8237767934334,"[60, 0, 194]",194,a,0.3282729384955019,colour,0.14
160,21,1,2,7,16,316,546.3315875455737,547.1036665479187,"[54, 0, 200]",200,a,0.24882200686261058,colour,0.14
160,21,1,2,7,17,317,547.6221182295121,548.3916187225841,"[86, 0, 168]",168,l,0.24170993734151125,colour,0.14
160,21,1,2,7,18,318,548.9124618363567,549.6796902322676,"[85, 0, 169]",169,a,0.24915795726701617,colour,0.14
160,21,1,2,7,19,319,550.1896116049029,550.9996325417887,"[82, 0, 172]",172,l,0.2926133410073817,colour,0.14
160,21,1,2,7,20,320,551.5203389911912,553.6557058035396,"[76, 0, 178]",178,l,1.6192738742101938,colour,0.14
160,21,1,2,7,21,321,554.1666909537744,554.8796060280874,"[52, 0, 202]",202,a,0.19548778608441353,colour,0.14
160,21,1,2,7,22,322,555.3908259107266,556.0876905820332,"[39, 0, 215]",215,a,0.17915696487762034,colour,0.14
160,21,1,2,7,23,323,556.5976489761379,557.3116234960034,"[74, 0, 180]",180,l,0.18225653236731887,colour,0.14
160,21,1,2,7,24,324,557.8157884166576,558.5797144144308,"[66, 0, 188]",188,a,0.24609068525023758,colour,0.14
160,21,1,2,7,25,325,559.089392390335,559.855684220558,"[80, 0, 174]",174,l,0.2431143915746361,colour,0.14
160,21,1,2,7,26,326,560.3706125563476,561.199707057327,"[70, 0, 184]",184,a,0.3058737393002957,colour,0.14
160,21,1,2,7,27,327,561.714224218158,562.6556081296876,"[59, 0, 195]",195,a,0.41803593770600855,colour,0.14
160,21,1,2,7,28,328,563.1639765677974,564.1756643392146,"[95, 0, 159]",159,l,0.4884685850702226,colour,0.14
160,21,1,2,7,29,329,564.6951861002017,565.6316733253188,"[88, 0, 166]",166,l,0.4083729279227555,colour,0.14
160,21,1,2,7,30,330,566.1531662850175,567.0795990175102,"[75, 0, 179]",179,l,0.4033888077829033,colour,0.14
160,21,1,2,7,31,331,567.5906452140771,568.4956688764505,"[78, 0, 176]",176,l,0.3835452750790864,colour,0.14
160,21,1,2,7,32,332,569.0083357489202,569.8316619824618,"[77, 0, 177]",177,l,0.30583592993207276,colour,0.14
160,21,1,2,7,33,333,570.3542352614459,571.1916225822642,"[79, 0, 175]",175,l,0.30555905657820404,colour,0.14
160,21,1,2,7,34,334,571.708138117101,572.4956645441707,"[91, 0, 163]",163,l,0.2700420313049108,colour,0.14
160,21,1,2,7,35,335,573.0071022235788,573.7516261897981,"[11, 0, 243]",243,a,0.22654056758619845,colour,0.14
160,21,1,2,7,36,336,574.2658022798132,575.103702781722,"[89, 0, 165]",165,l,0.3191833682358265,colour,0.14
160,21,1,2,7,37,337,575.6126702595502,576.3676248413976,"[35, 0, 219]",219,a,0.23590110382065177,colour,0.14
160,21,1,2,7,38,338,576.8810805871617,577.8236275257077,"[81, 0, 173]",173,l,0.4102114005945623,colour,0.14
160,21,1,2,7,39,339,578.3316391394474,579.0076705431566,"[90, 0, 164]",164,l,0.15853243554010987,colour,0.14
160,21,1,2,7,40,340,579.5241014012136,580.4956267348025,"[72, 0, 182]",182,l,0.44823998119682074,colour,0.14
160,21,1,2,7,41,341,581.0084759581368,581.9116449998692,"[14, 0, 240]",240,a,0.37989392946474254,colour,0.14
160,21,1,2,7,42,342,582.4303385026287,583.1836208146997,"[98, 0, 156]",156,l,0.22908126772381365,colour,0.14
160,21,1,2,7,43,343,583.7010555858724,584.6876502521336,"[97, 0, 157]",157,l,0.4632911968510598,colour,0.14
160,21,1,2,7,44,344,585.2010516473092,586.1116025433876,"[64, 0, 190]",190,a,0.387239943491295,colour,0.14
160,21,1,2,7,45,345,586.6193573696073,587.6236428068951,"[32, 0, 222]",222,a,0.4812363926321268,colour,0.14
160,21,1,2,7,46,346,588.129427615786,589.0556275856216,"[94, 0, 160]",160,l,0.40824689739383757,colour,0.14
160,21,1,2,7,47,347,589.5775730742607,590.4236206728965,"[50, 0, 204]",204,a,0.3149262878578156,colour,0.14
160,21,1,2,7,48,348,590.9371500678826,591.7516352483071,"[99, 0, 155]",155,l,0.281977531965822,colour,0.14
160,21,1,2,7,49,349,592.2744267180096,593.1916580284014,"[84, 0, 170]",170,l,0.38533648615702987,colour,0.14
160,21,1,2,7,50,350,593.7117666194681,594.6636654294562,"[69, 0, 185]",185,l,0.4347700569778681,colour,0.14
160,21,1,2,8,1,351,604.8127853414044,606.5916325859725,"[54, 0, 200]",200,a,1.2548171295784414,colour,0.06
160,21,1,2,8,2,352,607.1060501034372,607.9596280362457,"[4, 0, 250]",250,a,0.3303004573099315,colour,0.06
160,21,1,2,8,3,353,608.4791021416895,609.9916591311339,"[55, 0, 199]",199,a,0.9526987110730261,colour,0.06
160,21,1,2,8,4,354,610.502691149246,611.0476242427249,"[53, 0, 201]",201,a,0.021833242615684867,colour,0.06
160,21,1,2,8,5,355,611.5652106446214,612.1116316879634,"[51, 0, 203]",203,a,0.023406263208016753,colour,0.06
160,21,1,2,8,6,356,612.6277053277008,613.9675782099366,"[97, 0, 157]",157,l,0.8166217943653464,colour,0.06
160,21,1,2,8,7,357,614.473986083176,615.3756372428034,"[98, 0, 156]",156,l,0.38255317718721926,colour,0.06
160,21,1,2,8,8,358,615.8918770854361,616.9356770841405,"[95, 0, 159]",159,l,0.5178451586980373,colour,0.06
160,21,1,2,8,9,359,617.4570262900088,618.279756634729,"[89, 0, 165]",165,l,0.2993961554020643,colour,0.06
160,21,1,2,8,10,360,618.798699835781,619.5916436135303,"[26, 0, 228]",228,a,0.25998714473098516,colour,0.06
160,21,1,2,8,11,361,620.1074671612587,621.0556516102515,"[61, 0, 193]",193,a,0.4305287303868681,colour,0.06
160,21,1,2,8,12,362,621.5755392538849,622.447648424888,"[76, 0, 178]",178,l,0.35452788905240595,colour,0.06
160,21,1,2,8,13,363,622.9664399952162,623.6556010404602,"[85, 0, 169]",169,l,0.1718164647463709,colour,0.06
160,21,1,2,8,14,364,624.1719527353998,624.799582444597,"[93, 0, 161]",161,l,0.10956399678252637,colour,0.06
160,21,1,2,8,15,365,625.3184279717971,625.9756063651294,"[68, 0, 186]",186,a,0.13834586273878813,colour,0.06
160,21,1,2,8,16,366,626.4958327163476,627.0396315334365,"[72, 0, 182]",182,a,0.025844169314950705,colour,0.06
160,21,1,2,8,17,367,627.5527556610759,628.1036330710631,"[84, 0, 170]",170,l,0.028369115432724357,colour,0.06
160,21,1,2,8,18,368,628.613541446859,630.0876823111903,"[57, 0, 197]",197,a,0.9416544835548848,colour,0.06
160,21,1,2,8,19,369,630.6046413166914,631.2236028709449,"[91, 0, 163]",163,l,0.0867867055349052,colour,0.06
160,21,1,2,8,20,370,631.7457267718855,632.895624923287,"[86, 0, 168]",168,l,0.6179556718561798,colour,0.06
160,21,1,2,8,21,371,633.414319607662,634.0078781000338,"[56, 0, 198]",198,a,0.07573066302575171,colour,0.06
160,21,1,2,8,22,372,634.518929810496,635.183617270086,"[74, 0, 180]",180,l,0.1441755702253431,colour,0.06
160,21,1,2,8,23,373,635.6978122647852,637.6315587160643,"[88, 0, 166]",166,l,1.4144578473642468,colour,0.06
160,21,1,2,8,24,374,638.1527397497557,638.759649225045,"[73, 0, 181]",181,l,0.09483967325650156,colour,0.06
160,21,1,2,8,25,375,639.2747406130657,639.9275906397961,"[82, 0, 172]",172,l,0.10246098577044904,colour,0.06
160,21,1,2,8,26,376,640.4424587171525,641.4715859859716,"[90, 0, 164]",164,l,0.5057355780154467,colour,0.06
160,21,1,2,8,27,377,641.9893689171877,643.207586732693,"[75, 0, 179]",179,l,0.6949663339182734,colour,0.06
160,21,1,2,8,28,378,643.7247005195823,644.4955877442844,"[63, 0, 191]",191,a,0.24750262312591076,colour,0.06
160,21,1,2,8,29,379,645.0059254118241,645.6476284174714,"[0, 0, 254]",254,a,0.11836842237971723,colour,0.06
160,21,1,2,8,30,380,646.1621605441906,647.0476037627086,"[96, 0, 158]",158,l,0.36204955843277276,colour,0.06
160,21,1,2,8,31,381,647.5684330919757,648.3518926659599,"[94, 0, 160]",160,l,0.2602017908357084,colour,0.06
160,21,1,2,8,32,382,648.8659360299353,649.5355772837065,"[83, 0, 171]",171,l,0.13861170900054276,colour,0.06
160,21,1,2,8,33,383,650.0441560354084,650.783668312477,"[99, 0, 155]",155,l,0.21613830933347344,colour,0.06
160,21,1,2,8,34,384,651.2942982139066,651.8956032616552,"[69, 0, 185]",185,a,0.0779358062427491,colour,0.06
160,21,1,2,8,35,385,652.4037156999111,653.0636222639587,"[59, 0, 195]",195,a,0.1366665039677173,colour,0.06
160,21,1,2,8,36,386,653.5756168414373,654.1195913138799,"[92, 0, 162]",162,l,0.0173953864723444,colour,0.06
160,21,1,2,8,37,387,654.6413918673061,655.2475719398353,"[62, 0, 192]",192,a,0.08544172183610499,colour,0.06
160,21,1,2,8,38,388,655.764232410118,656.5839758273214,"[71, 0, 183]",183,a,0.29640056332573295,colour,0.06
160,21,1,2,8,39,389,657.0922954285052,659.7035903781652,"[77, 0, 177]",177,a,2.088065129471943,colour,0.06
160,21,1,2,8,40,390,660.2156416694634,661.0795986237936,"[50, 0, 204]",204,a,0.34607438021339476,colour,0.06
160,21,1,2,8,41,391,661.5911434292793,662.3836094718426,"[81, 0, 173]",173,l,0.2605011137202382,colour,0.06
160,21,1,2,8,42,392,662.9036507154815,663.7355962670408,"[66, 0, 188]",188,a,0.2998345058877021,colour,0.06
160,21,1,2,8,43,393,664.2533587180078,665.167573168641,"[58, 0, 196]",196,a,0.3950790527742356,colour,0.06
160,21,1,2,8,44,394,665.6813971605152,666.7036116458476,"[79, 0, 175]",175,l,0.5041712222155184,colour,0.06
160,21,1,2,8,45,395,667.218183157267,668.1755875393283,"[65, 0, 189]",189,a,0.4395804910454899,colour,0.06
160,21,1,2,8,46,396,668.6828985011671,670.0876149637625,"[64, 0, 190]",190,a,0.8826177679002285,colour,0.06
160,21,1,2,8,47,397,670.5960881647188,671.3115691451821,"[80, 0, 174]",174,l,0.19216766487807035,colour,0.06
160,21,1,2,8,48,398,671.830519041745,673.0875291051343,"[78, 0, 176]",176,l,0.7337077755946666,colour,0.06
160,21,1,2,8,49,399,673.5975398807786,674.6395900221542,"[70, 0, 184]",184,l,0.5164166796021163,colour,0.06
160,21,1,2,8,50,400,675.1592697151937,675.9515880655963,"[67, 0, 187]",187,a,0.26900503505021334,colour,0.06
160,21,1,2,9,1,401,680.4075092237908,681.0235622262117,"[78, 0, 176]",176,l,0.09201579797081649,colour,0.06
160,21,1,2,9,2,402,681.5333154264372,682.1755367333535,"[91, 0, 163]",163,l,0.12198550347238779,colour,0.06
160,21,1,2,9,3,403,682.6865656005684,683.3835897794925,"[75, 0, 179]",179,l,0.17392747872509062,colour,0.06
160,21,1,2,9,4,404,683.8794358866289,684.5675804154016,"[54, 0, 200]",200,a,0.16480009956285357,colour,0.06
160,21,1,2,9,5,405,685.0823264005594,686.0155706985388,"[52, 0, 202]",202,a,0.41005307459272444,colour,0.06
160,21,1,2,9,6,406,686.5354989082552,687.3435844862834,"[55, 0, 199]",199,a,0.28498336393386126,colour,0.06
160,21,1,2,9,7,407,687.8635292376857,688.695609878283,"[19, 0, 235]",235,a,0.30878268531523645,colour,0.06
160,21,1,2,9,8,408,689.2082346093375,689.9995821295306,"[66, 0, 188]",188,a,0.24761250615119934,colour,0.06
160,21,1,2,9,9,409,690.5105286829639,691.3035433529876,"[40, 0, 214]",214,a,0.26976752071641386,colour,0.06
160,21,1,2,9,10,410,691.822915058583,692.7035561136436,"[96, 0, 158]",158,l,0.35733167827129364,colour,0.06
160,21,1,2,9,11,411,693.2136814983096,694.0875925144646,"[70, 0, 184]",184,a,0.3510766171384603,colour,0.06
160,21,1,2,9,12,412,694.6084403544664,695.424039331032,"[79, 0, 175]",175,a,0.2923376488033682,colour,0.06
160,21,1,2,9,13,413,695.9365986837074,696.7435161145404,"[69, 0, 185]",185,a,0.2838345153722912,colour,0.06
160,21,1,2,9,14,414,697.2614794271067,698.0235787676647,"[86, 0, 168]",168,l,0.23874664050526917,colour,0.06
160,21,1,2,9,15,415,698.542671630159,699.39953502547,"[68, 0, 186]",186,a,0.338923713658005,colour,0.06
160,21,1,2,9,16,416,699.9187200481538,700.6955657675862,"[90, 0, 164]",164,l,0.25698918965645134,colour,0.06
160,21,1,2,9,17,417,701.2121793699916,702.0315415444784,"[51, 0, 203]",203,a,0.29597796662710607,colour,0.06
160,21,1,2,9,18,418,702.5403467577416,703.3035823437385,"[62, 0, 192]",192,a,0.25032059056684375,colour,0.06
160,21,1,2,9,19,419,703.8111906591803,704.5995796089992,"[61, 0, 193]",193,a,0.2664694550912827,colour,0.06
160,21,1,2,9,20,420,705.1067869891413,705.7435787362047,"[71, 0, 183]",183,a,0.11348748998716474,colour,0.06
160,21,1,2,9,21,421,706.2630154262297,706.8955327633303,"[82, 0, 172]",172,a,0.10923592327162623,colour,0.06
160,21,1,2,9,22,422,707.4036719831638,707.9995900064241,"[58, 0, 196]",196,a,0.07285007392056286,colour,0.06
160,21,1,2,9,23,423,708.5130670201033,710.3916423532646,"[73, 0, 181]",181,a,1.3554628791753203,colour,0.06
160,21,1,2,9,24,424,710.9113992401399,711.4475330279674,"[1, 0, 253]",253,a,0.01286497712135315,colour,0.06
160,21,1,2,9,25,425,711.9520957330242,712.5916365243029,"[67, 0, 187]",187,a,0.11389315105043352,colour,0.06
160,21,1,2,9,26,426,713.110678974539,713.7195541348774,"[99, 0, 155]",155,l,0.08562170946970582,colour,0.06
160,21,1,2,9,27,427,714.2278516807128,714.9515514378436,"[81, 0, 173]",173,l,0.20040258928202093,colour,0.06
160,21,1,2,9,28,428,715.4697880793829,716.01558133238,"[93, 0, 161]",161,l,0.02272924198769033,colour,0.06
160,21,1,2,9,29,429,716.5322882763576,717.3515311153606,"[80, 0, 174]",174,a,0.29594842810183764,colour,0.06
160,21,1,2,9,30,430,717.8603579902556,718.6715415602084,"[57, 0, 197]",197,a,0.2879033375065774,colour,0.06
160,21,1,2,9,31,431,719.187438756926,720.1115572510753,"[95, 0, 159]",159,l,0.40628869528882205,colour,0.06
160,21,1,2,9,32,432,720.6220457616728,721.3676567429211,"[64, 0, 190]",190,a,0.22834201902151108,colour,0.06
160,21,1,2,9,33,433,721.8896455543581,722.807533405954,"[74, 0, 180]",180,a,0.38552080607041717,colour,0.06
160,21,1,2,9,34,434,723.3271449636668,723.9275603136048,"[60, 0, 194]",194,a,0.08340159989893436,colour,0.06
160,21,1,2,9,35,435,724.4416989882011,725.0875645512715,"[84, 0, 170]",170,l,0.12784671830013394,colour,0.06
160,21,1,2,9,36,436,725.6026011947542,727.0555082503706,"[63, 0, 191]",191,a,0.9355695643462241,colour,0.06
160,21,1,2,9,37,437,727.5695216821041,728.3515626231674,"[50, 0, 204]",204,a,0.2651622802950442,colour,0.06
160,21,1,2,9,38,438,728.8747014647815,729.439557648031,"[85, 0, 169]",169,l,0.04449513670988381,colour,0.06
160,21,1,2,9,39,439,729.9515388347208,730.6635378233623,"[92, 0, 162]",162,l,0.1913252284284681,colour,0.06
160,21,1,2,9,40,440,731.1756848192308,731.8795422250405,"[77, 0, 177]",177,a,0.1718081939034164,colour,0.06
160,21,1,2,9,41,441,732.3959730830975,732.9835667789448,"[88, 0, 166]",166,l,0.07092180429026484,colour,0.06
160,21,1,2,9,42,442,733.4947531847283,734.3995803177822,"[65, 0, 189]",189,a,0.38689926685765386,colour,0.06
160,21,1,2,9,43,443,734.9087506262586,735.5515367081389,"[97, 0, 157]",157,l,0.12172635272145271,colour,0.06
160,21,1,2,9,44,444,736.0720824683085,736.9835679605603,"[89, 0, 165]",165,l,0.39287351560778916,colour,0.06
160,21,1,2,9,45,445,737.49532071664,738.36751771532,"[83, 0, 171]",171,l,0.3541777601931244,colour,0.06
160,21,1,2,9,46,446,738.8886093457695,739.743566920748,"[94, 0, 160]",160,l,0.3343913347925991,colour,0.06
160,21,1,2,9,47,447,740.2679298354778,740.8078102797735,"[98, 0, 156]",156,l,0.020868320018053055,colour,0.06
160,21,1,2,9,48,448,741.326153653441,742.2635837458074,"[76, 0, 178]",178,a,0.41402501077391207,colour,0.06
160,21,1,2,9,49,449,742.7806423942093,743.7435633761343,"[87, 0, 167]",167,l,0.43964232481084764,colour,0.06
160,21,1,2,9,50,450,744.2650208896957,745.5995161996689,"[72, 0, 182]",182,a,0.8088622421491891,colour,0.06
160,21,1,2,10,1,451,761.1269904973451,762.4795105599333,"[73, 0, 181]",181,a,0.8284352030605078,colour,0.06
160,21,1,2,10,2,452,762.9870759460609,764.2315057832748,"[90, 0, 164]",164,l,0.72139772772789,colour,0.06
160,21,1,2,10,3,453,764.741386589827,765.5674953446724,"[88, 0, 166]",166,l,0.30528612108901143,colour,0.06
160,21,1,2,10,4,454,766.0827627819963,766.8235054335091,"[79, 0, 175]",175,l,0.21740491781383753,colour,0.06
160,21,1,2,10,5,455,767.3205200815573,767.9594945223071,"[95, 0, 159]",159,l,0.1158155130688101,colour,0.06
160,21,1,2,10,6,456,768.4766717185266,769.0235653768759,"[50, 0, 204]",204,a,0.023863912094384432,colour,0.06
160,21,1,2,10,7,457,769.5392782536801,770.2715851196554,"[72, 0, 182]",182,l,0.20955084240995347,colour,0.06
160,21,1,2,10,8,458,770.7937503741123,771.7995284877252,"[9, 0, 245]",245,a,0.4879947886802256,colour,0.06
160,21,1,2,10,9,459,772.3164894622751,773.1435190290213,"[98, 0, 156]",156,l,0.31003669067285955,colour,0.06
160,21,1,2,10,10,460,773.6597376042046,774.4715694445185,"[51, 0, 203]",203,a,0.28080623410642147,colour,0.06
160,21,1,2,10,11,461,774.9859901128802,775.7595129543915,"[2, 0, 252]",252,a,0.25216536480002105,colour,0.06
160,21,1,2,10,12,462,776.2756964771543,777.0075189124327,"[81, 0, 173]",173,l,0.21336917858570814,colour,0.06
160,21,1,2,10,13,463,777.531372978352,778.239559932379,"[82, 0, 172]",172,l,0.18934063892811537,colour,0.06
160,21,1,2,10,14,464,778.7544260404538,779.4957354364451,"[78, 0, 176]",176,l,0.22016971604898572,colour,0.06
160,21,1,2,10,15,465,780.0029487244319,781.0875700651668,"[85, 0, 169]",169,l,0.5244952470529824,colour,0.06
160,21,1,2,10,16,466,781.6073923304211,782.4235411160626,"[63, 0, 191]",191,a,0.2928870639298111,colour,0.06
160,21,1,2,10,17,467,782.9355065489653,783.5995059597772,"[80, 0, 174]",174,l,0.14067467395216227,colour,0.06
160,21,1,2,10,18,468,784.1104631470516,784.8154981520493,"[77, 0, 177]",177,l,0.1822687415406108,colour,0.06
160,21,1,2,10,19,469,785.324852780439,787.159508779645,"[86, 0, 168]",168,l,1.3114316929131746,colour,0.06
160,21,1,2,10,20,470,787.6686444296502,788.3116880867165,"[84, 0, 170]",170,l,0.12002690765075386,colour,0.06
160,21,1,2,10,21,471,788.8249595125671,789.5275207713712,"[64, 0, 190]",190,a,0.17962682293727994,colour,0.06
160,21,1,2,10,22,472,790.0319361779839,790.8155194197316,"[66, 0, 188]",188,a,0.2531042934861034,colour,0.06
160,21,1,2,10,23,473,791.3337521229405,791.9355553858913,"[62, 0, 192]",192,a,0.07905157189816236,colour,0.06
160,21,1,2,10,24,474,792.443114076741,793.1275147062261,"[97, 0, 157]",157,l,0.16138860629871488,colour,0.06
160,21,1,2,10,25,475,793.6461593720596,794.311525428202,"[54, 0, 200]",200,a,0.14192710374481976,colour,0.06
160,21,1,2,10,26,476,794.8180569689721,795.4954731350299,"[94, 0, 160]",160,l,0.16048669908195734,colour,0.06
160,21,1,2,10,27,477,796.0077252876945,796.7435074499808,"[83, 0, 171]",171,l,0.22157968441024423,colour,0.06
160,21,1,2,10,28,478,797.2641839671414,797.7915594093502,"[68, 0, 186]",186,a,0.0042082436848431826,colour,0.06
160,21,1,2,10,29,479,798.3268645454664,798.9595220915508,"[60, 0, 194]",194,a,0.1097542243078351,colour,0.06
160,21,1,2,10,30,480,799.469829433132,800.2075564067345,"[74, 0, 180]",180,l,0.21606938634067774,colour,0.06
160,21,1,2,10,31,481,800.7260096634272,801.7434991791379,"[52, 0, 202]",202,a,0.4839551108889282,colour,0.06
160,21,1,2,10,32,482,802.2519503249787,802.999508874258,"[70, 0, 184]",184,a,0.22474502422846854,colour,0.06
160,21,1,2,10,33,483,803.5177589063533,804.1435229675844,"[59, 0, 195]",195,a,0.10278000077232718,colour,0.06
160,21,1,2,10,34,484,804.6583260602783,806.6635161619633,"[65, 0, 189]",189,a,1.4832568222191185,colour,0.06
160,21,1,2,10,35,485,807.1724229874089,807.8874931863975,"[87, 0, 167]",167,l,0.19212670484557748,colour,0.06
160,21,1,2,10,36,486,808.3935639276169,809.1675215750001,"[61, 0, 193]",193,a,0.2508566149044782,colour,0.06
160,21,1,2,10,37,487,809.6749979520682,810.4715296661016,"[58, 0, 196]",196,a,0.27650149818509817,colour,0.06
160,21,1,2,10,38,488,811.0197813052218,811.7037140459288,"[56, 0, 198]",198,a,0.1681095869280398,colour,0.06
160,21,1,2,10,39,489,812.2162978169508,812.8475390931126,"[91, 0, 163]",163,l,0.10807132069021463,colour,0.06
160,21,1,2,10,40,490,813.3569638261106,813.8877393400762,"[57, 0, 197]",197,a,0.00723258638754487,colour,0.06
160,21,1,2,10,41,491,814.4002451298293,814.9594618331175,"[67, 0, 187]",187,a,0.03594592330045998,colour,0.06
160,21,1,2,10,42,492,815.4703201651573,816.8716137127485,"[93, 0, 161]",161,l,0.8779786566738039,colour,0.06
160,21,1,2,10,43,493,817.3922677806113,817.9996175756678,"[71, 0, 183]",183,a,0.08410185808315873,colour,0.06
160,21,1,2,10,44,494,818.5172933805734,819.4874839705881,"[89, 0, 165]",165,l,0.44694619765505195,colour,0.06
160,21,1,2,10,45,495,820.0017419804353,820.6634689003695,"[75, 0, 179]",179,a,0.13670549471862614,colour,0.06
160,21,1,2,10,46,496,821.1871366770938,822.2635073396377,"[53, 0, 201]",201,a,0.543664121767506,colour,0.06
160,21,1,2,10,47,497,822.7790945798624,823.6235281978734,"[18, 0, 236]",236,a,0.32616389356553555,colour,0.06
160,21,1,2,10,48,498,824.1404580585659,825.0714700378012,"[99, 0, 155]",155,l,0.4137524694669992,colour,0.06
160,21,1,2,10,49,499,825.5911398846656,826.3915990302339,"[92, 0, 162]",162,l,0.280172536149621,colour,0.06
160,21,1,2,10,50,500,826.9099754870404,827.7594625421334,"[69, 0, 185]",185,a,0.33186402544379234,colour,0.06
160,21,1,2,11,1,501,849.3009069485124,850.415491299238,"[94, 0, 160]",160,l,0.5905676265247166,colour,0.06
160,21,1,2,11,2,502,850.9247974844184,851.9354577120394,"[58, 0, 196]",196,a,0.47933096601627767,colour,0.06
160,21,1,2,11,3,503,852.4531606922392,853.3915068702772,"[88, 0, 166]",166,a,0.4214553078636527,colour,0.06
160,21,1,2,11,4,504,853.9063217784278,854.6634921373334,"[76, 0, 178]",178,a,0.22488090093247592,colour,0.06
160,21,1,2,11,5,505,855.1873072125018,855.9035892754328,"[54, 0, 200]",200,a,0.19873583340086043,colour,0.06
160,21,1,2,11,6,506,856.4126343408134,857.0074519587215,"[59, 0, 195]",195,a,0.07602959196083248,colour,0.06
160,21,1,2,11,7,507,857.5266740026418,858.9994899695739,"[53, 0, 201]",201,a,0.9544509316328913,colour,0.06
160,21,1,2,11,8,508,859.5201814526226,860.1514672336634,"[89, 0, 165]",165,l,0.10884010815061629,colour,0.06
160,21,1,2,11,9,509,860.6601507484447,861.3274805203546,"[72, 0, 182]",182,a,0.14963388070464134,colour,0.06
160,21,1,2,11,10,510,861.8360899921972,862.5834634338971,"[82, 0, 172]",172,a,0.22412235382944345,colour,0.06
160,21,1,2,11,11,511,863.1017489121296,863.6554643758573,"[95, 0, 159]",159,l,0.030585680389776826,colour,0.06
160,21,1,2,11,12,512,864.1641841246746,864.791540504666,"[70, 0, 184]",184,a,0.10397492931224406,colour,0.06
160,21,1,2,11,13,513,865.3019675754476,866.05544090271,"[78, 0, 176]",176,a,0.2227576777804643,colour,0.06
160,21,1,2,11,14,514,866.5752438693307,867.3434348248411,"[68, 0, 186]",186,a,0.2448670060839504,colour,0.06
160,21,1,2,11,15,515,867.8565550139174,868.4954435965046,"[93, 0, 161]",161,l,0.11562292231246829,colour,0.06
160,21,1,2,11,16,516,869.0128334693145,870.2555146305822,"[50, 0, 204]",204,a,0.7193583934567869,colour,0.06
160,21,1,2,11,17,517,870.7516848728992,871.5115117223468,"[85, 0, 169]",169,l,0.22969763656146824,colour,0.06
160,21,1,2,11,18,518,872.0218257594388,873.0557591300458,"[81, 0, 173]",173,a,0.5105885474476963,colour,0.06
160,21,1,2,11,19,519,873.5688060640823,874.3996366378851,"[86, 0, 168]",168,l,0.3082427226472646,colour,0.06
160,21,1,2,11,20,520,874.9125973193441,875.8794973266777,"[92, 0, 162]",162,l,0.45186493918299675,colour,0.06
160,21,1,2,11,21,521,876.4008079355117,878.0714499517344,"[77, 0, 177]",177,a,1.1473960482981056,colour,0.06
160,21,1,2,11,22,522,878.5882549632806,879.3915387718007,"[90, 0, 164]",164,l,0.27992835151962936,colour,0.06
160,21,1,2,11,23,523,879.9007551602554,880.767440285068,"[74, 0, 180]",180,l,0.33893159055151045,colour,0.06
160,21,1,2,11,24,524,881.2855217512697,882.1434516813606,"[55, 0, 199]",199,a,0.33941956562921405,colour,0.06
160,21,1,2,11,25,525,882.6625536023639,883.567466594046,"[52, 0, 202]",202,a,0.38021215703338385,colour,0.06
160,21,1,2,11,26,526,884.0771012466867,885.1195420832373,"[51, 0, 203]",203,a,0.523700859863311,colour,0.06
160,21,1,2,11,27,527,885.6347232682165,886.6474307067692,"[97, 0, 157]",157,l,0.47964171040803194,colour,0.06
160,21,1,2,11,28,528,887.1689791986719,888.1674857349135,"[6, 0, 248]",248,a,0.4795274951029569,colour,0.06
160,21,1,2,11,29,529,888.6863521360792,890.0234771554824,"[66, 0, 188]",188,a,0.8194129806943238,colour,0.06
160,21,1,2,11,30,530,890.5367111659143,891.4474708002526,"[56, 0, 198]",198,a,0.38729350664652884,colour,0.06
160,21,1,2,11,31,531,891.9663624076638,892.9514647917822,"[57, 0, 197]",197,a,0.4674892006441951,colour,0.06
160,21,1,2,11,32,532,893.4658196878154,894.3674519429915,"[60, 0, 194]",194,a,0.3840643640141934,colour,0.06
160,21,1,2,11,33,533,894.8884305397514,895.7194017164875,"[75, 0, 179]",179,l,0.30589776393026114,colour,0.06
160,21,1,2,11,34,534,896.2403799195308,897.047454494983,"[79, 0, 175]",175,l,0.2889895646367222,colour,0.06
160,21,1,2,11,35,535,897.5714818532579,898.2233984649647,"[84, 0, 170]",170,l,0.12537060910835862,colour,0.06
160,21,1,2,11,36,536,898.7411857282277,899.5434356913902,"[71, 0, 183]",183,l,0.28383648465387523,colour,0.06
160,21,1,2,11,37,537,900.0568103049882,900.9755126298405,"[69, 0, 185]",185,l,0.3944386593066156,colour,0.06
160,21,1,2,11,38,538,901.485435577808,902.415482240729,"[98, 0, 156]",156,l,0.40811692806892097,colour,0.06
160,21,1,2,11,39,539,902.9273074644152,903.7674107467756,"[91, 0, 163]",163,l,0.318687122547999,colour,0.06
160,21,1,2,11,40,540,904.2809389601462,905.2474478783552,"[80, 0, 174]",174,l,0.448563328711316,colour,0.06
160,21,1,2,11,41,541,905.7663875350263,906.4954428088386,"[40, 0, 214]",214,a,0.21148895821534097,colour,0.06
160,21,1,2,11,42,542,907.0045713696163,908.7114397273399,"[67, 0, 187]",187,a,1.189025562023744,colour,0.06
160,21,1,2,11,43,543,909.220534023596,910.3354031250346,"[65, 0, 189]",189,a,0.5972630071919411,colour,0.06
160,21,1,2,11,44,544,910.844531291863,911.887414023513,"[64, 0, 190]",190,a,0.5249863730277866,colour,0.06
160,21,1,2,11,45,545,912.4046396624763,913.2954537577461,"[29, 0, 225]",225,a,0.36745194299146533,colour,0.06
160,21,1,2,11,46,546,913.8083955347538,914.7754558373708,"[87, 0, 167]",167,l,0.44376707333140075,colour,0.06
160,21,1,2,11,47,547,915.292729525594,916.2634202998597,"[83, 0, 171]",171,l,0.44738848647102714,colour,0.06
160,21,1,2,11,48,548,916.7712869781535,917.8154308043886,"[62, 0, 192]",192,a,0.5208466583862901,colour,0.06
160,21,1,2,11,49,549,918.333855310455,919.1674317780416,"[73, 0, 181]",181,l,0.3103765796404332,colour,0.06
160,21,1,2,11,50,550,919.6783448546194,920.4554516940843,"[99, 0, 155]",155,l,0.26361249666661024,colour,0.06
160,21,1,2,12,1,551,925.5325942945201,927.1114261003677,"[64, 0, 190]",190,a,1.0613797053229064,colour,0.06
160,21,1,2,12,2,552,927.6234423394781,928.6794507740997,"[73, 0, 181]",181,l,0.5377131102140993,colour,0.06
160,21,1,2,12,3,553,929.1881567381788,930.0074106049724,"[72, 0, 182]",182,l,0.3014748743735254,colour,0.06
160,21,1,2,12,4,554,930.5275377067737,931.3434005603194,"[90, 0, 164]",164,l,0.29246367956511676,colour,0.06
160,21,1,2,12,5,555,931.899979677517,932.7114141273778,"[60, 0, 194]",194,a,0.2898056134581566,colour,0.06
160,21,1,2,12,6,556,933.2263420694508,934.2314171679318,"[59, 0, 195]",195,a,0.4817405154462904,colour,0.06
160,21,1,2,12,7,557,934.7473789553624,935.6394364223816,"[62, 0, 192]",192,a,0.36884261295199394,colour,0.06
160,21,1,2,12,8,558,936.156608892139,937.1594571857713,"[77, 0, 177]",177,l,0.4795924797654152,colour,0.06
160,21,1,2,12,9,559,937.6806673640385,939.6554608312435,"[74, 0, 180]",180,a,1.4515152040403336,colour,0.06
160,21,1,2,12,10,560,940.1554789482616,941.5753907740582,"[89, 0, 165]",165,l,0.89668358117342,colour,0.06
160,21,1,2,12,11,561,942.0887642060407,942.7274129365105,"[67, 0, 187]",187,a,0.11328308400698006,colour,0.06
160,21,1,2,12,12,562,943.2388068989385,944.0234224107116,"[86, 0, 168]",168,l,0.25389789300970733,colour,0.06
160,21,1,2,12,13,563,944.5343024043832,945.0794410854578,"[57, 0, 197]",197,a,0.0131323984824121,colour,0.06
160,21,1,2,12,14,564,945.5886429015081,946.2154207220301,"[50, 0, 204]",204,a,0.10561017761938274,colour,0.06
160,21,1,2,12,15,565,946.736493841745,947.3033751808107,"[61, 0, 193]",193,a,0.04971595830284059,colour,0.06
160,21,1,2,12,16,566,947.8180754797067,948.6634247896727,"[76, 0, 178]",178,l,0.31264631380327046,colour,0.06
160,21,1,2,12,17,567,949.1793684603181,950.1916493638419,"[27, 0, 227]",227,a,0.4929596104193479,colour,0.06
160,21,1,2,12,18,568,950.7041929624975,951.2314140172675,"[53, 0, 201]",201,a,0.0038250316865742207,colour,0.06
160,21,1,2,12,19,569,951.7623919681646,952.2953978315927,"[94, 0, 160]",160,l,0.0028687736485153437,colour,0.06
160,21,1,2,12,20,570,952.825911044376,954.0474954550155,"[85, 0, 169]",169,l,0.6898006508126855,colour,0.06
160,21,1,2,12,21,571,954.5580812457483,955.1354290400632,"[26, 0, 228]",228,a,0.05457641091197729,colour,0.06
160,21,1,2,12,22,572,955.6502967234701,956.9673958593048,"[78, 0, 176]",176,l,0.7855071790982038,colour,0.06
160,21,1,2,12,23,573,957.4913542943541,958.0714613732416,"[84, 0, 170]",170,l,0.05660786805674434,colour,0.06
160,21,1,2,12,24,574,958.595421383623,959.5597074355464,"[80, 0, 174]",174,l,0.44581546587869525,colour,0.06
160,21,1,2,12,25,575,960.0813973180484,960.6394230315927,"[65, 0, 189]",189,a,0.026142310816794634,colour,0.06
160,21,1,2,12,26,576,961.1474370083306,961.6794007555582,"[91, 0, 163]",163,l,0.006598494481295347,colour,0.06
160,21,1,2,12,27,577,962.2081196063664,962.7914073849097,"[82, 0, 172]",172,l,0.0654449830763042,colour,0.06
160,21,1,2,12,28,578,963.312172123231,963.9274043506011,"[70, 0, 184]",184,a,0.09195790253579617,colour,0.06
160,21,1,2,12,29,579,964.4457741121296,965.0474249566905,"[68, 0, 186]",186,a,0.07838400290347636,colour,0.06
160,21,1,2,12,30,580,965.56210083724,966.5597653309815,"[95, 0, 159]",159,l,0.4671272565610707,colour,0.06
160,21,1,2,12,31,581,967.0814099211711,967.959389365511,"[88, 0, 166]",166,l,0.35458735981956124,colour,0.06
160,21,1,2,12,32,582,968.4720345765818,969.3994282933418,"[75, 0, 179]",179,l,0.4040914289653301,colour,0.06
160,21,1,2,12,33,583,969.9094493088778,970.6953814476728,"[79, 0, 175]",175,l,0.2610595873557031,colour,0.06
160,21,1,2,12,34,584,971.208057772601,972.0074519587215,"[56, 0, 198]",198,a,0.27419080422259867,colour,0.06
160,21,1,2,12,35,585,972.5214807505254,973.3674460351467,"[66, 0, 188]",188,a,0.3229875259567052,colour,0.06
160,21,1,2,12,36,586,973.8872423067223,974.7194261350669,"[58, 0, 196]",196,a,0.3010707884095609,colour,0.06
160,21,1,2,12,37,587,975.2294455752708,976.0557551917154,"[51, 0, 203]",203,a,0.3087180946022272,colour,0.06
160,21,1,2,12,38,588,976.5649546447676,977.3514019339345,"[87, 0, 167]",167,l,0.26835873373784125,colour,0.06
160,21,1,2,12,39,589,977.865262159612,978.6234336746857,"[96, 0, 158]",158,l,0.24068199913017452,colour,0.06
160,21,1,2,12,40,590,979.1333625304978,979.9273956860416,"[54, 0, 200]",200,a,0.2763447475153953,colour,0.06
160,21,1,2,12,41,591,980.4482915753033,981.2233917696867,"[83, 0, 171]",171,l,0.25067544588819146,colour,0.06
160,21,1,2,12,42,592,981.724808433326,982.983408452943,"[55, 0, 199]",199,a,0.7317145215347409,colour,0.06
160,21,1,2,12,43,593,983.4944302309304,984.3833916750737,"[52, 0, 202]",202,a,0.3656430086120963,colour,0.06
160,21,1,2,12,44,594,984.9006870249286,985.6794094201177,"[99, 0, 155]",155,l,0.2653351784683764,colour,0.06
160,21,1,2,12,45,595,986.1876037784386,986.9514041393995,"[92, 0, 162]",162,l,0.24236175208352506,colour,0.06
160,21,1,2,12,46,596,987.4671820008662,988.2474116445519,"[98, 0, 156]",156,l,0.25925577292218804,colour,0.06
160,21,1,2,12,47,597,988.7617692977656,989.5994547596201,"[81, 0, 173]",173,l,0.3143229156266898,colour,0.06
160,21,1,2,12,48,598,990.1055499191862,990.8633988746442,"[17, 0, 237]",237,a,0.2345592707861215,colour,0.06
160,21,1,2,12,49,599,991.3711820577737,992.2234201265965,"[71, 0, 183]",183,l,0.3244904421735555,colour,0.06
160,21,1,2,12,50,600,992.7477598043624,993.6314145685174,"[63, 0, 191]",191,l,0.3667099371086806,colour,0.06
160,21,1,2,13,1,601,1000.3241588238161,1001.3673440292478,"[15, 0, 239]",239,a,0.5247776347678155,colour,0.06
160,21,1,2,13,2,602,1001.8754080242943,1003.1273587432224,"[74, 0, 180]",180,l,0.7342374986037612,colour,0.06
160,21,1,2,13,3,603,1003.6431354230735,1004.7113731673453,"[73, 0, 181]",181,l,0.5448830749373883,colour,0.06
160,21,1,2,13,4,604,1005.2212898139842,1006.263465592172,"[40, 0, 214]",214,a,0.5188845181837678,colour,0.06
160,21,1,2,13,5,605,1006.7727280603722,1007.767715977272,"[50, 0, 204]",204,a,0.4716682997532189,colour,0.06
160,21,1,2,13,6,606,1008.2884086419363,1009.3354271496646,"[98, 0, 156]",156,l,0.5236981029156595,colour,0.06
160,21,1,2,13,7,607,1009.8508726051077,1010.8313847149257,"[51, 0, 203]",203,a,0.4605953216087073,colour,0.06
160,21,1,2,13,8,608,1011.3475296408869,1012.3358477770817,"[89, 0, 165]",165,l,0.47060570353642106,colour,0.06
160,21,1,2,13,9,609,1012.8502263037954,1013.5994137998205,"[72, 0, 182]",182,l,0.23102804808877409,colour,0.06
160,21,1,2,13,10,610,1014.1171561647207,1014.9914043128956,"[54, 0, 200]",200,a,0.3433383326046169,colour,0.06
160,21,1,2,13,11,611,1015.5008227440994,1016.383380647283,"[69, 0, 185]",185,a,0.36541339638642967,colour,0.06
160,21,1,2,13,12,612,1016.907651402289,1017.8793965019286,"[90, 0, 164]",164,l,0.4532741198781878,colour,0.06
160,21,1,2,13,13,613,1018.3985712844878,1019.4153660561424,"[84, 0, 170]",170,l,0.498853120720014,colour,0.06
160,21,1,2,13,14,614,1019.9303420472424,1020.9116887168493,"[63, 0, 191]",191,a,0.462775259045884,colour,0.06
160,21,1,2,13,15,615,1021.4301786012948,1022.2953887733165,"[57, 0, 197]",197,a,0.33973385486751795,colour,0.06
160,21,1,2,13,16,616,1022.8054432657082,1023.6233639640268,"[64, 0, 190]",190,a,0.28943776129744947,colour,0.06
160,21,1,2,13,17,617,1024.1275863861665,1025.079387916252,"[86, 0, 168]",168,l,0.42863866384141147,colour,0.06
160,21,1,2,13,18,618,1025.5962571247946,1026.4553646540735,"[58, 0, 196]",196,a,0.3357288355473429,colour,0.06
160,21,1,2,13,19,619,1026.9716954752803,1027.9753283099271,"[66, 0, 188]",188,a,0.48038765462115407,colour,0.06
160,21,1,2,13,20,620,1028.4872378169093,1029.3993979671504,"[87, 0, 167]",167,l,0.389027216238901,colour,0.06
160,21,1,2,13,21,621,1029.9092287551612,1030.8553655992728,"[75, 0, 179]",179,l,0.4229475900065154,colour,0.06
160,21,1,2,13,22,622,1031.3622248198371,1032.247382499976,"[91, 0, 163]",163,l,0.36191840772517025,colour,0.06
160,21,1,2,13,23,623,1032.8084518546239,1033.815365032293,"[61, 0, 193]",193,a,0.4862646237015724,colour,0.06
160,21,1,2,13,24,624,1034.3370588531252,1035.2313533648849,"[55, 0, 199]",199,a,0.3711174668278545,colour,0.06
160,21,1,2,13,25,625,1035.7379483147524,1036.5674181510694,"[71, 0, 183]",183,a,0.312403311021626,colour,0.06
160,21,1,2,13,26,626,1037.0760866997298,1037.84739376395,"[60, 0, 194]",194,a,0.24792128126136959,colour,0.06
160,21,1,2,13,27,627,1038.35743801645,1039.4073820116464,"[88, 0, 166]",166,l,0.5265775104053319,colour,0.06
160,21,1,2,13,28,628,1039.9264039818663,1040.7353682301473,"[99, 0, 155]",155,l,0.2858289510477334,colour,0.06
160,21,1,2,13,29,629,1041.254381929757,1042.1193628832698,"[56, 0, 198]",198,a,0.34177712723612785,colour,0.06
160,21,1,2,13,30,630,1042.6358977167401,1043.6394376037642,"[97, 0, 157]",157,l,0.47479583020322025,colour,0.06
160,21,1,2,13,31,631,1044.1620719288476,1044.9513501825277,"[92, 0, 162]",162,l,0.27026494801975787,colour,0.06
160,21,1,2,13,32,632,1045.4666400689166,1046.2314407986123,"[67, 0, 187]",187,a,0.24766528140753508,colour,0.06
160,21,1,2,13,33,633,1046.7485502532218,1047.719372965861,"[83, 0, 171]",171,l,0.4526108833961189,colour,0.06
160,21,1,2,13,34,634,1048.2334907667246,1049.1195377509575,"[80, 0, 174]",174,l,0.36874572676606476,colour,0.06
160,21,1,2,13,35,635,1049.6412579596508,1050.4713567676954,"[59, 0, 195]",195,a,0.309928776929155,colour,0.06
160,21,1,2,13,36,636,1050.994933172362,1052.0313521046191,"[68, 0, 186]",186,l,0.5182011954020709,colour,0.06
160,21,1,2,13,37,637,1052.5393743522,1053.3433466034476,"[96, 0, 158]",158,l,0.28645713557489216,colour,0.06
160,21,1,2,13,38,638,1053.859021277167,1054.7433440040331,"[94, 0, 160]",160,l,0.3641452125739306,colour,0.06
160,21,1,2,13,39,639,1055.2621198205743,1056.1033774651587,"[62, 0, 192]",192,a,0.31802309839986265,colour,0.06
160,21,1,2,13,40,640,1056.6215026483405,1057.6233549055178,"[77, 0, 177]",177,l,0.47850073873996735,colour,0.06
160,21,1,2,13,41,641,1058.1432622415014,1058.9913326327223,"[95, 0, 159]",159,l,0.324713752605021,colour,0.06
160,21,1,2,13,42,642,1059.5027435307857,1060.3113938837778,"[70, 0, 184]",184,l,0.2897646534256637,colour,0.06
160,21,1,2,13,43,643,1060.8267574193887,1061.6233592380304,"[76, 0, 178]",178,l,0.27319319266825914,colour,0.06
160,21,1,2,13,44,644,1062.1393529269844,1062.9753704515751,"[53, 0, 201]",201,a,0.3242986393161118,colour,0.06
160,21,1,2,13,45,645,1063.4912849774119,1064.3274045081344,"[78, 0, 176]",176,l,0.31924717128276825,colour,0.06
160,21,1,2,13,46,646,1064.8359296969138,1065.4876411149744,"[93, 0, 161]",161,l,0.1197827230207622,colour,0.06
160,21,1,2,13,47,647,1066.0092167821713,1066.9273783566896,"[65, 0, 189]",189,a,0.3864045962691307,colour,0.06
160,21,1,2,13,48,648,1067.44477925729,1068.0713636993896,"[28, 0, 226]",226,a,0.10810519149526954,colour,0.06
160,21,1,2,13,49,649,1068.5948156486265,1069.551344511332,"[81, 0, 173]",173,l,0.4247285614255816,colour,0.06
160,21,1,2,13,50,650,1070.0637325409334,1070.9433570797555,"[52, 0, 202]",202,a,0.36205940460786223,colour,0.06
160,21,1,2,14,1,651,1077.4490237347782,1079.0073625557125,"[83, 0, 171]",171,l,1.039084087824449,colour,0.06
160,21,1,2,14,2,652,1079.5265046490822,1080.663349171169,"[63, 0, 191]",191,a,0.6182132470421493,colour,0.06
160,21,1,2,14,3,653,1081.1798591923434,1082.039300702978,"[65, 0, 189]",189,a,0.3408287463244051,colour,0.06
160,21,1,2,14,4,654,1082.5479133254848,1083.5913222352974,"[98, 0, 156]",156,l,0.5243963918182999,colour,0.06
160,21,1,2,14,5,655,1084.106339974096,1084.9033706909977,"[90, 0, 164]",164,l,0.273724096827209,colour,0.06
160,21,1,2,14,6,656,1085.4187657341827,1086.0553318073507,"[81, 0, 173]",173,l,0.11389787727966905,colour,0.06
160,21,1,2,14,7,657,1086.5751375309192,1087.1993419623468,"[97, 0, 157]",157,l,0.10093010659329593,colour,0.06
160,21,1,2,14,8,658,1087.7116472842172,1088.2873129625805,"[91, 0, 163]",163,l,0.052455156575888395,colour,0.06
160,21,1,2,14,9,659,1088.8053113273345,1089.9833135360386,"[86, 0, 168]",168,l,0.6546081549022347,colour,0.06
160,21,1,2,14,10,660,1090.4983797178138,1091.903326580301,"[89, 0, 165]",165,l,0.8816406361293048,colour,0.06
160,21,1,2,14,11,661,1092.420289130183,1093.559296260355,"[62, 0, 192]",192,a,0.6215948080644011,colour,0.06
160,21,1,2,14,12,662,1094.076041013468,1095.6953137060627,"[60, 0, 194]",194,a,1.0959203862585127,colour,0.06
160,21,1,2,14,13,663,1096.2132415724918,1097.4313979481813,"[84, 0, 170]",170,l,0.6947505064308643,colour,0.06
160,21,1,2,14,14,664,1097.9404410445131,1099.5913383830339,"[51, 0, 203]",203,a,1.1275978076737374,colour,0.06
160,21,1,2,14,15,665,1100.1123835397884,1100.8553628423251,"[78, 0, 176]",176,l,0.2197483009658754,colour,0.06
160,21,1,2,14,16,666,1101.362336672144,1102.0633485410362,"[54, 0, 200]",200,a,0.17782182712107897,colour,0.06
160,21,1,2,14,17,667,1102.581731299404,1103.4373288739007,"[50, 0, 204]",204,a,0.33096684445627034,colour,0.06
160,21,1,2,14,18,668,1103.949439635966,1104.6633712265175,"[68, 0, 186]",186,a,0.19066120428033173,colour,0.06
160,21,1,2,14,19,669,1105.18375314679,1105.8474670194555,"[46, 0, 208]",208,a,0.13287888769991696,colour,0.06
160,21,1,2,14,20,670,1106.3631905301008,1107.2633442876395,"[71, 0, 183]",183,a,0.3768719497602433,colour,0.06
160,21,1,2,14,21,671,1107.7669428577647,1108.4313034252264,"[88, 0, 166]",166,l,0.1442819086369127,colour,0.06
160,21,1,2,14,22,672,1108.951235573506,1109.7834221587982,"[76, 0, 178]",178,l,0.3089937868062407,colour,0.06
160,21,1,2,14,23,673,1110.2949748411775,1111.1033376867417,"[95, 0, 159]",159,l,0.2943856476340443,colour,0.06
160,21,1,2,14,24,674,1111.6138344681822,1112.3193251530174,"[72, 0, 182]",182,a,0.18205370171926916,colour,0.06
160,21,1,2,14,25,675,1112.835529549513,1113.5672767602373,"[70, 0, 184]",184,a,0.21387999667786062,colour,0.06
160,21,1,2,14,26,676,1114.0684484518133,1114.8553459069226,"[79, 0, 175]",175,l,0.26348567800596356,colour,0.06
160,21,1,2,14,27,677,1115.365319267381,1116.279302924173,"[99, 0, 155]",155,l,0.39062347379513085,colour,0.06
160,21,1,2,14,28,678,1116.7872428579722,1117.655259182211,"[53, 0, 201]",201,a,0.3449629470705986,colour,0.06
160,21,1,2,14,29,679,1118.1702828286216,1118.6953101616818,"[57, 0, 197]",197,a,0.002295728074386716,colour,0.06
160,21,1,2,14,30,680,1119.2171516749077,1119.887284842087,"[96, 0, 158]",158,l,0.14684781478717923,colour,0.06
160,21,1,2,14,31,681,1120.39749372215,1120.967332843924,"[12, 0, 242]",242,a,0.046498630894348025,colour,0.06
160,21,1,2,14,32,682,1121.4756225128658,1122.0234015369788,"[94, 0, 160]",160,l,0.024469647090882063,colour,0.06
160,21,1,2,14,33,683,1122.538153823698,1123.1273977339733,"[52, 0, 202]",202,a,0.0565003480296582,colour,0.06
160,21,1,2,14,34,684,1123.6365168425255,1124.5513110342436,"[69, 0, 185]",185,a,0.39668870088644326,colour,0.06
160,21,1,2,14,35,685,1125.0687272949144,1125.8233033905271,"[24, 0, 230]",230,a,0.2290588184259832,colour,0.06
160,21,1,2,14,36,686,1126.3369729947299,1127.1675160611048,"[80, 0, 174]",174,l,0.30760587379336357,colour,0.06
160,21,1,2,14,37,687,1127.6807138379663,1128.4713012354914,"[74, 0, 180]",180,a,0.2662236951291561,colour,0.06
160,21,1,2,14,38,688,1128.9786334650125,1129.7513867316302,"[61, 0, 193]",193,a,0.2494679142255336,colour,0.06
160,21,1,2,14,39,689,1130.2598485110793,1130.895295274211,"[93, 0, 161]",161,l,0.11198418005369604,colour,0.06
160,21,1,2,14,40,690,1131.4160895510577,1132.5433742513414,"[59, 0, 195]",195,a,0.6039091569837183,colour,0.06
160,21,1,2,14,41,691,1133.0592749926727,1133.93527260446,"[75, 0, 179]",179,l,0.3440035383682698,colour,0.06
160,21,1,2,14,42,692,1134.4466204869095,1135.2073228559457,"[87, 0, 167]",167,l,0.23364082188345492,colour,0.06
160,21,1,2,14,43,693,1135.7160496939905,1136.591275367653,"[92, 0, 162]",162,l,0.3518903029616922,colour,0.06
160,21,1,2,14,44,694,1137.1066991616972,1138.0713715762831,"[58, 0, 196]",196,a,0.4420317879412323,colour,0.06
160,21,1,2,14,45,695,1138.5922993670683,1139.4232996883802,"[56, 0, 198]",198,a,0.3078090981580317,colour,0.06
160,21,1,2,14,46,696,1139.9360555701423,1140.5513047326822,"[82, 0, 172]",172,l,0.09213080094195902,colour,0.06
160,21,1,2,14,47,697,1141.0526209657546,1141.5912954537198,"[67, 0, 187]",187,a,0.015565578360110521,colour,0.06
160,21,1,2,14,48,698,1142.099486267427,1143.7953517516144,"[64, 0, 190]",190,a,1.1724950610660017,colour,0.06
160,21,1,2,14,49,699,1144.3027481781319,1145.0633044303395,"[77, 0, 177]",177,l,0.2374103213660419,colour,0.06
160,21,1,2,14,50,700,1145.578458833741,1146.4312660098076,"[85, 0, 169]",169,l,0.32964982371777296,colour,0.06
160,21,1,2,15,1,701,1150.9543568023946,1151.751270153094,"[91, 0, 163]",163,l,0.2728186449967325,colour,0.06
160,21,1,2,15,2,702,1152.2676541435067,1152.983311566757,"[95, 0, 159]",159,l,0.19236419396474957,colour,0.06
160,21,1,2,15,3,703,1153.5000752245542,1154.1592590813525,"[93, 0, 161]",161,l,0.12715670024044812,colour,0.06
160,21,1,2,15,4,704,1154.679163266439,1155.3353003312368,"[50, 0, 204]",204,a,0.12402444379404187,colour,0.06
160,21,1,2,15,5,705,1155.8582020776812,1156.4713335307315,"[64, 0, 190]",190,a,0.09108789684250951,colour,0.06
160,21,1,2,15,6,706,1156.9894484740216,1157.5433199005201,"[0, 0, 254]",254,a,0.021637107245624065,colour,0.06
160,21,1,2,15,7,707,1158.0548524968326,1159.0713105301838,"[53, 0, 201]",201,a,0.49814301636070013,colour,0.06
160,21,1,2,15,8,708,1159.58795485273,1160.6073190751486,"[58, 0, 196]",196,a,0.5001784123014659,colour,0.06
160,21,1,2,15,9,709,1161.1227562597487,1161.7993146292865,"[80, 0, 174]",174,l,0.15793890971690416,colour,0.06
160,21,1,2,15,10,710,1162.3141779806465,1162.9592814517673,"[73, 0, 181]",181,l,0.12422688049264252,colour,0.06
160,21,1,2,15,11,711,1163.463008809602,1164.143298081588,"[74, 0, 180]",180,l,0.14819240476936102,colour,0.06
160,21,1,2,15,12,712,1164.654449434951,1165.343319034204,"[4, 0, 250]",250,a,0.17183694476261735,colour,0.06
160,21,1,2,15,13,713,1165.8640758956317,1166.5512657419313,"[59, 0, 195]",195,a,0.16441964427940547,colour,0.06
160,21,1,2,15,14,714,1167.066924268147,1167.671306828037,"[96, 0, 158]",158,l,0.08119881968013942,colour,0.06
160,21,1,2,15,15,715,1168.1925441815984,1168.9512765335385,"[75, 0, 179]",179,l,0.2355371902231127,colour,0.06
160,21,1,2,15,16,716,1169.4581109418068,1170.5513063082471,"[61, 0, 193]",193,a,0.5705015708226711,colour,0.06
160,21,1,2,15,17,717,1171.067450840259,1171.6712646866217,"[57, 0, 197]",197,a,0.08055685088038445,colour,0.06
160,21,1,2,15,18,718,1172.1926847847644,1172.8873025651556,"[72, 0, 182]",182,l,0.17161402804777026,colour,0.06
160,21,1,2,15,19,719,1173.384019859368,1173.9033320939634,"[52, 0, 202]",202,a,0.0019723803270608187,colour,0.06
160,21,1,2,15,20,720,1174.4174975503702,1175.0872951608617,"[68, 0, 186]",186,a,0.1375794387422502,colour,0.06
160,21,1,2,15,21,721,1175.6068909645546,1176.3433154895902,"[97, 0, 157]",157,l,0.21852028951980174,colour,0.06
160,21,1,2,15,22,722,1176.8596608829685,1177.3992947794031,"[62, 0, 192]",192,a,0.01952688070014119,colour,0.06
160,21,1,2,15,23,723,1177.9121266733855,1178.5033051550854,"[60, 0, 194]",194,a,0.07443451602011919,colour,0.06
160,21,1,2,15,24,724,1179.0239887612406,1179.9512785025872,"[82, 0, 172]",172,l,0.4092256042640656,colour,0.06
160,21,1,2,15,25,725,1180.4700409285724,1181.1672734520398,"[89, 0, 165]",165,l,0.1793452233541757,colour,0.06
160,21,1,2,15,26,726,1181.6770928185433,1182.3592859415803,"[98, 0, 156]",156,l,0.163798549445346,colour,0.06
160,21,1,2,15,27,727,1182.8807442428079,1183.5272872208152,"[54, 0, 200]",200,a,0.12161607574671507,colour,0.06
160,21,1,2,15,28,728,1184.0473225566093,1184.73527646414,"[88, 0, 166]",166,l,0.16165720904245973,colour,0.06
160,21,1,2,15,29,729,1185.246121405391,1186.279281262774,"[63, 0, 191]",191,a,0.5085752073209733,colour,0.06
160,21,1,2,15,30,730,1186.8002492256928,1187.5752864046954,"[65, 0, 189]",189,a,0.257336561800912,colour,0.06
160,21,1,2,15,31,731,1188.0844736485742,1188.631449620938,"[66, 0, 188]",188,a,0.014194994699209929,colour,0.06
160,21,1,2,15,32,732,1189.1502797880676,1189.727259336505,"[90, 0, 164]",164,l,0.057560975197702646,colour,0.06
160,21,1,2,15,33,733,1190.250009846175,1190.807315609185,"[92, 0, 162]",162,l,0.02969519468024373,colour,0.06
160,21,1,2,15,34,734,1191.3269255915657,1192.4793238767888,"[83, 0, 171]",171,l,0.6338977669365704,colour,0.06
160,21,1,2,15,35,735,1192.9999866092112,1193.5672842434142,"[77, 0, 177]",177,l,0.055433813482522964,colour,0.06
160,21,1,2,15,36,736,1194.0917495582253,1194.647314916132,"[81, 0, 173]",173,l,0.03053960041143,colour,0.06
160,21,1,2,15,37,737,1195.1646961243823,1196.047260722844,"[85, 0, 169]",169,l,0.3620243521872908,colour,0.06
160,21,1,2,15,38,738,1196.5588311282918,1197.1192455173004,"[76, 0, 178]",178,l,0.04391145706176758,colour,0.06
160,21,1,2,15,39,739,1197.6406427724287,1198.19933447917,"[55, 0, 199]",199,a,0.04065789585001767,colour,0.06
160,21,1,2,15,40,740,1198.7236859723926,1199.3272694190964,"[86, 0, 168]",168,l,0.08530860207974911,colour,0.06
160,21,1,2,15,41,741,1199.838309314102,1200.551293311175,"[84, 0, 170]",170,l,0.19261152925901115,colour,0.06
160,21,1,2,15,42,742,1201.0598815153353,1201.6312605747953,"[67, 0, 187]",187,a,0.053625666769221425,colour,0.06
160,21,1,2,15,43,743,1202.1417412084993,1202.8632775701117,"[71, 0, 183]",183,a,0.20405826717615128,colour,0.06
160,21,1,2,15,44,744,1203.3814862484578,1204.8232730643358,"[78, 0, 176]",176,a,0.9277651133015752,colour,0.06
160,21,1,2,15,45,745,1205.3423552932218,1206.207254720619,"[51, 0, 203]",203,a,0.34171489952132106,colour,0.06
160,21,1,2,15,46,746,1206.7172528931405,1207.3752902643755,"[56, 0, 198]",198,a,0.1356232059188187,colour,0.06
160,21,1,2,15,47,747,1207.8883576781955,1208.5272470484488,"[70, 0, 184]",184,a,0.11580921150743961,colour,0.06
160,21,1,2,15,48,748,1209.037759583909,1209.8395542609505,"[99, 0, 155]",155,l,0.27898154594004154,colour,0.06
160,21,1,2,15,49,749,1210.3501530485228,1211.2312556910329,"[44, 0, 210]",210,a,0.36490218434482813,colour,0.06
160,21,1,2,15,50,750,1211.7492040374782,1212.703255215427,"[87, 0, 167]",167,l,0.4307780347298831,colour,0.06
160,21,1,2,16,1,751,1217.1362612363882,1217.7272809981368,"[98, 0, 156]",156,l,0.07240542187355459,colour,0.06
160,21,1,2,16,2,752,1218.250202042982,1218.7753550128546,"[77, 0, 177]",177,a,0.007046297425404191,colour,0.06
160,21,1,2,16,3,753,1219.3119826833718,1220.3512148570735,"[62, 0, 192]",192,a,0.5183768505230546,colour,0.06
160,21,1,2,16,4,754,1220.870977257844,1221.7352201440372,"[66, 0, 188]",188,a,0.34558561723679304,colour,0.06
160,21,1,2,16,5,755,1222.25661621755,1223.0472808089107,"[58, 0, 196]",196,a,0.2734153214842081,colour,0.06
160,21,1,2,16,6,756,1223.5623714092653,1224.1832592641003,"[61, 0, 193]",193,a,0.10765423788689077,colour,0.06
160,21,1,2,16,7,757,1224.698004461592,1225.3192956144921,"[57, 0, 197]",197,a,0.08911945507861674,colour,0.06
160,21,1,2,16,8,758,1225.8404683773406,1226.4872386045754,"[93, 0, 161]",161,l,0.1298320956993848,colour,0.06
160,21,1,2,16,9,759,1226.9987582038157,1227.7592604991514,"[76, 0, 178]",178,l,0.22947905212640762,colour,0.06
160,21,1,2,16,10,760,1228.2704945602454,1228.9352627582848,"[20, 0, 234]",234,a,0.14700338384136558,colour,0.06
160,21,1,2,16,11,761,1229.447332954267,1230.7992614600807,"[71, 0, 183]",183,a,0.834025451913476,colour,0.06
160,21,1,2,16,12,762,1231.3128152736463,1232.2712582275271,"[60, 0, 194]",194,a,0.4400086016394198,colour,0.06
160,21,1,2,16,13,763,1232.7830294943415,1233.5992365691345,"[64, 0, 190]",190,a,0.28418582607991993,colour,0.06
160,21,1,2,16,14,764,1234.11068133777,1234.9032312694471,"[89, 0, 165]",165,l,0.2744180532172322,colour,0.06
160,21,1,2,16,15,765,1235.4215537693817,1236.063256775029,"[32, 0, 222]",222,a,0.12403586530126631,colour,0.06
160,21,1,2,16,16,766,1236.5809699953534,1238.4632888340857,"[73, 0, 181]",181,a,1.3588377449195832,colour,0.06
160,21,1,2,16,17,767,1238.9857289930806,1239.7032051968854,"[92, 0, 162]",162,l,0.1986491873394698,colour,0.06
160,21,1,2,16,18,768,1240.2251231162809,1241.2231991789304,"[84, 0, 170]",170,l,0.46890586451627314,colour,0.06
160,21,1,2,16,19,769,1241.7377592688426,1242.543221439002,"[91, 0, 163]",163,l,0.2871699964161962,colour,0.06
160,21,1,2,16,20,770,1243.0654638875276,1243.8872789342422,"[87, 0, 167]",167,l,0.2966994922608137,colour,0.06
160,21,1,2,16,21,771,1244.3995661393274,1245.0712569672614,"[97, 0, 157]",157,l,0.13993503130041063,colour,0.06
160,21,1,2,16,22,772,1245.5923025177326,1246.2472596201114,"[88, 0, 166]",166,l,0.12751116161234677,colour,0.06
160,21,1,2,16,23,773,1246.7599327941425,1247.3992762686685,"[74, 0, 180]",180,a,0.12215879536233842,colour,0.06
160,21,1,2,16,24,774,1247.919804699719,1248.6152349843178,"[78, 0, 176]",176,a,0.16317548509687185,colour,0.06
160,21,1,2,16,25,775,1249.1343050037976,1250.127253192477,"[81, 0, 173]",173,l,0.45970286685042083,colour,0.06
160,21,1,2,16,26,776,1250.6356814953033,1251.3512203709688,"[51, 0, 203]",203,a,0.19665672071278095,colour,0.06
160,21,1,2,16,27,777,1251.8754265352618,1252.6792672418524,"[1, 0, 253]",253,a,0.28234892850741744,colour,0.06
160,21,1,2,16,28,778,1253.195624844404,1253.9271912800614,"[50, 0, 204]",204,a,0.21193636721000075,colour,0.06
160,21,1,2,16,29,779,1254.441658422118,1255.039252653718,"[54, 0, 200]",200,a,0.051827366231009364,colour,0.06
160,21,1,2,16,30,780,1255.5499530537054,1256.2472497739363,"[72, 0, 182]",182,l,0.17980681057088077,colour,0.06
160,21,1,2,16,31,781,1256.7566733253188,1257.4872386045754,"[69, 0, 185]",185,a,0.21230225008912385,colour,0.06
160,21,1,2,16,32,782,1258.0089588132687,1258.7032512768637,"[53, 0, 201]",201,a,0.1767312679439783,colour,0.06
160,21,1,2,16,33,783,1259.2153254111763,1260.5191869917326,"[70, 0, 184]",184,l,0.7855816157534719,colour,0.06
160,21,1,2,16,34,784,1261.0426338210236,1261.7192748982925,"[67, 0, 187]",187,a,0.15745408553630114,colour,0.06
160,21,1,2,16,35,785,1262.2355529440101,1263.1352301477455,"[63, 0, 191]",191,a,0.36694624461233616,colour,0.06
160,21,1,2,16,36,786,1263.6530867279507,1264.4472474895883,"[85, 0, 169]",169,l,0.27663146727718413,colour,0.06
160,21,1,2,16,37,787,1264.9679192805197,1265.751260306919,"[82, 0, 172]",172,l,0.26434465614147484,colour,0.06
160,21,1,2,16,38,788,1266.266979879234,1267.0712376686279,"[99, 0, 155]",155,l,0.28096298477612436,colour,0.06
160,21,1,2,16,39,789,1267.5919697179925,1268.1192522125784,"[55, 0, 199]",199,a,0.004311037482693791,colour,0.06
160,21,1,2,16,40,790,1268.6387121395674,1269.175324450247,"[65, 0, 189]",189,a,0.012447500368580222,colour,0.06
160,21,1,2,16,41,791,1269.6863978221081,1270.9432227781508,"[56, 0, 198]",198,a,0.7457374054938555,colour,0.06
160,21,1,2,16,42,792,1271.4554721741006,1272.1032667944673,"[80, 0, 174]",174,l,0.12458212953060865,colour,0.06
160,21,1,2,16,43,793,1272.6116687094327,1273.2552413016092,"[75, 0, 179]",179,l,0.12024273513816297,colour,0.06
160,21,1,2,16,44,794,1273.7678888756782,1274.879172403831,"[59, 0, 195]",195,a,0.5869277026504278,colour,0.06
160,21,1,2,16,45,795,1275.3914757564198,1276.095233519096,"[83, 0, 171]",171,l,0.18630408681929111,colour,0.06
160,21,1,2,16,46,796,1276.613121607108,1277.2711885166354,"[90, 0, 164]",164,l,0.13937537604942918,colour,0.06
160,21,1,2,16,47,797,1277.7876260702033,1278.359216624638,"[68, 0, 186]",186,a,0.054971044417470694,colour,0.06
160,21,1,2,16,48,798,1278.8825929556042,1279.7271884442307,"[94, 0, 160]",160,l,0.32331323670223355,colour,0.06
160,21,1,2,16,49,799,1280.2492292434908,1280.9432724027429,"[52, 0, 202]",202,a,0.17185663687996566,colour,0.06
160,21,1,2,16,50,800,1281.4608828292694,1281.9992280621082,"[96, 0, 158]",158,l,0.014695572899654508,colour,0.06
