id,age,condition,counterbalance,block,trialinblock,trial,tstart,tend,trialstim,trialintensity,response,RT,trialtype,colourfreq
163,23,1,2,Practice,1,NA,5.907611921429634e-06,4.633931061020121,"[66, 0, 188]",188,a,4.109305412159301,colour,0.5
163,23,1,2,Practice,2,NA,5.1417650625808164,6.409861917374656,"[63, 0, 191]",191,a,0.7432010271586478,colour,0.5
163,23,1,2,Practice,3,NA,6.924470867146738,7.761800823849626,"[59, 0, 195]",195,a,0.3139331090496853,colour,0.5
163,23,1,2,Practice,4,NA,8.268382787238806,9.073783998726867,"[19, 0, 235]",235,a,0.2825640197843313,colour,0.5
163,23,1,2,Practice,5,NA,9.581022504367866,10.153855757554993,"[37, 0, 217]",217,a,0.04954313801135868,colour,0.5
163,23,1,2,Practice,6,NA,10.6751691569807,12.249762510531582,"[60, 0, 194]",194,a,1.0514871645718813,colour,0.5
163,23,1,2,Practice,7,NA,12.768726615351625,13.657832032302395,"[17, 0, 237]",237,a,0.3779520767275244,colour,0.5
163,23,1,2,Practice,8,NA,14.178507794160396,15.065803880104795,"[21, 0, 233]",233,a,0.36397170601412654,colour,0.5
163,23,1,2,Practice,9,NA,15.584824305027723,16.49782833014615,"[50, 0, 204]",204,a,0.402010980527848,colour,0.5
163,23,1,2,Practice,10,NA,17.010049388278276,17.937808874063194,"[28, 0, 226]",226,a,0.40442644129507244,colour,0.5
163,23,1,2,1,1,1,4.56111356173642,5.375928493216634,"[92, 0, 162]",162,l,0.29068316612392664,colour,0.5
163,23,1,2,1,2,2,5.890352335176431,6.695916599128395,"[45, 0, 209]",209,a,0.28234937344677746,colour,0.5
163,23,1,2,1,3,3,7.190510661457665,8.007954124826938,"[18, 0, 236]",236,a,0.2913184406934306,colour,0.5
163,23,1,2,1,4,4,8.521565067465417,9.49603435921017,"[53, 0, 201]",201,a,0.45110552723053843,colour,0.5
163,23,1,2,1,5,5,10.005993950529955,10.887976652826183,"[51, 0, 203]",203,a,0.3584992083488032,colour,0.5
163,23,1,2,1,6,6,11.396788969170302,12.29596898064483,"[7, 0, 247]",247,a,0.37592101003974676,colour,0.5
163,23,1,2,1,7,7,12.806054996792227,13.688020369736478,"[15, 0, 239]",239,a,0.35845470370259136,colour,0.5
163,23,1,2,1,8,8,14.196795664611273,14.975942671764642,"[86, 0, 168]",168,l,0.25482225709129125,colour,0.5
163,23,1,2,1,9,9,15.494744511786848,16.303977062460035,"[42, 0, 212]",212,a,0.28293384169228375,colour,0.5
163,23,1,2,1,10,10,16.810322324046865,17.647927185636945,"[16, 0, 238]",238,a,0.31418674625456333,colour,0.5
163,23,1,2,1,11,11,18.154177924152464,18.98395666119177,"[94, 0, 160]",160,l,0.30534370988607407,colour,0.5
163,23,1,2,1,12,12,19.500895213219337,20.36797161155846,"[89, 0, 165]",165,l,0.3438788370694965,colour,0.5
163,23,1,2,1,13,13,20.875996628659777,21.775952517869882,"[75, 0, 179]",179,l,0.37655667844228446,colour,0.5
163,23,1,2,1,14,14,22.28237576119136,23.487997920485213,"[64, 0, 190]",190,l,0.6822812379105017,colour,0.5
163,23,1,2,1,15,15,24.00130323821213,24.904044410213828,"[5, 0, 249]",249,a,0.37882326531689614,colour,0.5
163,23,1,2,1,16,16,25.42429915012326,26.38395744888112,"[50, 0, 204]",204,a,0.43619449716061354,colour,0.5
163,23,1,2,1,17,17,26.893149827141315,27.76801296544727,"[69, 0, 185]",185,l,0.3514123336644843,colour,0.5
163,23,1,2,1,18,18,28.283938150387257,29.1839554796461,"[32, 0, 222]",222,a,0.37671854940708727,colour,0.5
163,23,1,2,1,19,19,29.690290107391775,30.560067505342886,"[99, 0, 155]",155,l,0.3463714917888865,colour,0.5
163,23,1,2,1,20,20,31.08106425218284,31.784007467329502,"[29, 0, 225]",225,a,0.17960268759634346,colour,0.5
163,23,1,2,1,21,21,32.29885114962235,33.11204264569096,"[8, 0, 246]",246,a,0.28987735614646226,colour,0.5
163,23,1,2,1,22,22,33.62711672822479,34.40795373090077,"[95, 0, 159]",159,l,0.25752010580617934,colour,0.5
163,23,1,2,1,23,23,34.92593676398974,35.65596795664169,"[23, 0, 231]",231,a,0.20664143422618508,colour,0.5
163,23,1,2,1,24,24,36.17750860564411,37.02403330372181,"[55, 0, 199]",199,a,0.32324049063026905,colour,0.5
163,23,1,2,1,25,25,37.536909722490236,38.28800855437294,"[10, 0, 244]",244,a,0.22772600885946304,colour,0.5
163,23,1,2,1,26,26,38.80260056874249,39.85598252899945,"[35, 0, 219]",219,a,0.5303569036768749,colour,0.5
163,23,1,2,1,27,27,40.365329295163974,40.94400801870506,"[0, 0, 254]",254,a,0.05535749450791627,colour,0.5
163,23,1,2,1,28,28,41.45908328285441,42.055995525908656,"[1, 0, 253]",253,a,0.07148629799485207,colour,0.5
163,23,1,2,1,29,29,42.570602112682536,43.176071853376925,"[90, 0, 164]",164,l,0.08201105915941298,colour,0.5
163,23,1,2,1,30,30,43.69570864806883,44.447996502625756,"[21, 0, 233]",233,a,0.22888628067448735,colour,0.5
163,23,1,2,1,31,31,44.96145778358914,45.67195300629828,"[59, 0, 195]",195,a,0.18779430189169943,colour,0.5
163,23,1,2,1,32,32,46.18021669436712,46.81599725887645,"[27, 0, 227]",227,a,0.11233724292833358,colour,0.5
163,23,1,2,1,33,33,47.33660842990503,47.968015722348355,"[31, 0, 223]",223,a,0.10795373085420579,colour,0.5
163,23,1,2,1,34,34,48.47730813769158,49.12797137524467,"[12, 0, 242]",242,a,0.12722424836829305,colour,0.5
163,23,1,2,1,35,35,49.64930840546731,50.288001071312465,"[22, 0, 232]",232,a,0.11539703665766865,colour,0.5
163,23,1,2,1,36,36,50.80560679943301,51.560006852960214,"[96, 0, 158]",158,l,0.23096697207074612,colour,0.5
163,23,1,2,1,37,37,52.07134451332968,52.655982529046014,"[88, 0, 166]",166,l,0.06120532797649503,colour,0.5
163,23,1,2,1,38,38,53.16520602116361,54.248042582767084,"[85, 0, 169]",169,l,0.559405843145214,colour,0.5
163,23,1,2,1,39,39,54.75894661806524,56.27998865721747,"[57, 0, 197]",197,l,0.9976534622255713,colour,0.5
163,23,1,2,1,40,40,56.79054728918709,57.663988247630186,"[58, 0, 196]",196,l,0.35013390774838626,colour,0.5
163,23,1,2,1,41,41,58.18129110778682,59.03204493003432,"[46, 0, 208]",208,l,0.32741368853021413,colour,0.5
163,23,1,2,1,42,42,59.54140311770607,60.32000385969877,"[76, 0, 178]",178,l,0.25593132886569947,colour,0.5
163,23,1,2,1,43,43,60.83771671412978,61.59999369853176,"[44, 0, 210]",210,a,0.2388742291368544,colour,0.5
163,23,1,2,1,44,44,62.11909368040506,62.8960016699275,"[91, 0, 163]",163,l,0.2539833638584241,colour,0.5
163,23,1,2,1,45,45,63.416055941954255,64.13604916783515,"[19, 0, 235]",235,a,0.19661843357607722,colour,0.5
163,23,1,2,1,46,46,64.6385256749345,65.55200979893561,"[77, 0, 177]",177,l,0.39009909180458635,colour,0.5
163,23,1,2,1,47,47,66.06055902584922,66.7600261514308,"[3, 0, 251]",251,a,0.17613171797711402,colour,0.5
163,23,1,2,1,48,48,67.27937977050897,68.41602404043078,"[66, 0, 188]",188,l,0.613125329837203,colour,0.5
163,23,1,2,1,49,49,68.93576953676529,69.78399092576001,"[67, 0, 187]",187,l,0.3248454151907936,colour,0.5
163,23,1,2,1,50,50,70.29523485072423,70.95997455751058,"[9, 0, 245]",245,a,0.1414106007432565,colour,0.5
163,23,1,2,2,1,51,75.73241750884335,76.83210873324424,"[55, 0, 199]",199,a,0.575564972939901,colour,0.5
163,23,1,2,2,2,52,77.34284814074636,77.87205501249991,"[24, 0, 230]",230,a,0.016429308452643454,colour,0.5
163,23,1,2,2,3,53,78.37923168425914,79.17601553339045,"[6, 0, 248]",248,a,0.28591329080518335,colour,0.5
163,23,1,2,2,4,54,79.69495285663288,80.59205611527432,"[34, 0, 220]",220,a,0.37363827554509044,colour,0.5
163,23,1,2,2,5,55,81.10135877062567,81.80000196932815,"[32, 0, 222]",222,a,0.1742329839617014,colour,0.5
163,23,1,2,2,6,56,82.32159106130712,83.19200491521042,"[56, 0, 198]",198,a,0.34747268666978925,colour,0.5
163,23,1,2,2,7,57,83.71198120573536,84.62405023910105,"[51, 0, 203]",203,a,0.3886324072955176,colour,0.5
163,23,1,2,2,8,58,85.13398659345694,86.08004852198064,"[95, 0, 159]",159,l,0.422887604101561,colour,0.5
163,23,1,2,2,9,59,86.58717675053049,87.48005403578281,"[88, 0, 166]",166,l,0.3695178530178964,colour,0.5
163,23,1,2,2,10,60,87.993561790674,88.87999692803714,"[85, 0, 169]",169,l,0.362366781453602,colour,0.5
163,23,1,2,2,11,61,89.40132056747098,90.21604845894035,"[76, 0, 178]",178,l,0.29156695783603936,colour,0.5
163,23,1,2,2,12,62,90.72952667530626,91.52801469841506,"[69, 0, 185]",185,l,0.2816554157761857,colour,0.5
163,23,1,2,2,13,63,92.0355686750263,92.7200298536336,"[21, 0, 233]",233,a,0.17162375058978796,colour,0.5
163,23,1,2,2,14,64,93.22822461859323,95.77606043184642,"[78, 0, 176]",176,l,2.024458657950163,colour,0.5
163,23,1,2,2,15,65,96.29097264341544,97.92002512747422,"[15, 0, 239]",239,a,1.105682811816223,colour,0.5
163,23,1,2,2,16,66,98.43178144667763,99.44806069962215,"[37, 0, 217]",217,a,0.492946996120736,colour,0.5
163,23,1,2,2,17,67,99.95534528535791,100.88002567877993,"[20, 0, 234]",234,a,0.40138161357026547,colour,0.5
163,23,1,2,2,18,68,101.39290524844546,102.152021614369,"[36, 0, 218]",218,a,0.23577150597702712,colour,0.5
163,23,1,2,2,19,69,102.65998400992248,103.3360680724727,"[16, 0, 238]",238,a,0.1530586122535169,colour,0.5
163,23,1,2,2,20,70,103.84754909295589,104.72809504310135,"[57, 0, 197]",197,a,0.3698597118491307,colour,0.5
163,23,1,2,2,21,71,105.24137594236527,106.84810323512647,"[5, 0, 249]",249,a,1.083218592684716,colour,0.5
163,23,1,2,2,22,72,107.36660575179849,108.24010696879122,"[27, 0, 227]",227,a,0.3501075201202184,colour,0.5
163,23,1,2,2,23,73,108.75730349030346,109.62405654066242,"[40, 0, 214]",214,a,0.34330657799728215,colour,0.5
163,23,1,2,2,24,74,110.13248997658957,110.93604916788172,"[44, 0, 210]",210,a,0.2800627003889531,colour,0.5
163,23,1,2,2,25,75,111.4451127583161,112.26402369386051,"[50, 0, 204]",204,a,0.2955664695473388,colour,0.5
163,23,1,2,2,26,76,112.77335943223443,113.58403031050693,"[81, 0, 173]",173,l,0.2872897844063118,colour,0.5
163,23,1,2,2,27,77,114.08915858634282,114.8962123778183,"[17, 0, 237]",237,l,0.28368845162913203,colour,0.5
163,23,1,2,2,28,78,115.41734578937758,116.30409521632828,"[31, 0, 223]",223,l,0.3634975147433579,colour,0.5
163,23,1,2,2,29,79,116.82373161730357,117.3760899703484,"[89, 0, 165]",165,l,0.029892952530644834,colour,0.5
163,23,1,2,2,30,80,117.88629374653101,119.69609067926649,"[30, 0, 224]",224,l,1.2864036296959966,colour,0.5
163,23,1,2,2,31,81,120.21461406978779,121.0480709397234,"[80, 0, 174]",174,l,0.30843343609012663,colour,0.5
163,23,1,2,2,32,82,121.54770269314758,123.00807188486215,"[98, 0, 156]",156,l,0.9368222885532305,colour,0.5
163,23,1,2,2,33,83,123.51667782571167,124.39204941992648,"[96, 0, 158]",158,l,0.35198341123759747,colour,0.5
163,23,1,2,2,34,84,124.90755712753162,125.60007246781606,"[92, 0, 162]",162,l,0.16924964357167482,colour,0.5
163,23,1,2,2,35,85,126.11063109978568,126.87209400336724,"[59, 0, 195]",195,l,0.23808692989405245,colour,0.5
163,23,1,2,2,36,86,127.39195686602034,128.38404409505893,"[18, 0, 236]",236,a,0.4676943435333669,colour,0.5
163,23,1,2,2,37,87,128.8930797224166,129.72808204614557,"[82, 0, 172]",172,l,0.31171260226983577,colour,0.5
163,23,1,2,2,38,88,130.23697628255468,131.2481095365947,"[29, 0, 225]",225,a,0.4877809110330418,colour,0.5
163,23,1,2,2,39,89,131.76834734121803,132.65609162452165,"[2, 0, 252]",252,a,0.3672103062272072,colour,0.5
163,23,1,2,2,40,90,133.1718423353741,133.97616873960942,"[11, 0, 243]",243,a,0.28091774112544954,colour,0.5
163,23,1,2,2,41,91,134.48442967084702,135.88804084982257,"[64, 0, 190]",190,l,0.8803635991644114,colour,0.5
163,23,1,2,2,42,92,136.40653864038177,137.35211692517623,"[54, 0, 200]",200,l,0.42217749869450927,colour,0.5
163,23,1,2,2,43,93,137.8597189511638,138.40808212489355,"[73, 0, 181]",181,l,0.02375130949076265,colour,0.5
163,23,1,2,2,44,94,138.9235421770718,141.76813939015847,"[42, 0, 212]",212,a,2.3212050915462896,colour,0.5
163,23,1,2,2,45,95,142.28328475891612,143.49612494395114,"[91, 0, 163]",163,l,0.6895492820767686,colour,0.5
163,23,1,2,2,46,96,144.01766244205646,144.88809520064387,"[12, 0, 242]",242,a,0.34712019411381334,colour,0.5
163,23,1,2,2,47,97,145.40840350370854,146.1601053145714,"[3, 0, 251]",251,a,0.22815333225298673,colour,0.5
163,23,1,2,2,48,98,146.67414042993914,147.5840897812741,"[61, 0, 193]",193,l,0.38665332831442356,colour,0.5
163,23,1,2,2,49,99,148.09620371321216,149.168102368596,"[38, 0, 216]",216,a,0.5493832363281399,colour,0.5
163,23,1,2,2,50,100,149.67433026398066,151.9601001945557,"[58, 0, 196]",196,a,1.7623017966980115,colour,0.5
163,23,1,2,3,1,101,163.93937047570944,165.59209549997468,"[84, 0, 170]",170,l,1.1285215788520873,colour,0.5
163,23,1,2,3,2,102,166.11223326751497,166.81607130204793,"[73, 0, 181]",181,l,0.18054949468933046,colour,0.5
163,23,1,2,3,3,103,167.3310882768128,167.97629673976917,"[58, 0, 196]",196,a,0.12184075999539346,colour,0.5
163,23,1,2,3,4,104,168.48737288604025,169.28006900195032,"[25, 0, 229]",229,a,0.2693918221630156,colour,0.5
163,23,1,2,3,5,105,169.79999291081913,171.2321173978271,"[57, 0, 197]",197,a,0.9087989255785942,colour,0.5
163,23,1,2,3,6,106,171.75331697566435,172.4641253062291,"[99, 0, 155]",155,l,0.18518821918405592,colour,0.5
163,23,1,2,3,7,107,172.97454412269872,173.87211881566327,"[13, 0, 241]",241,a,0.37431805476080626,colour,0.5
163,23,1,2,3,8,108,174.38082636881154,175.1842461383203,"[68, 0, 186]",186,l,0.2799532109638676,colour,0.5
163,23,1,2,3,9,109,175.69357163680252,176.3281809015898,"[56, 0, 198]",198,a,0.11119745101314038,colour,0.5
163,23,1,2,3,10,110,176.8342551968526,177.73608461406548,"[14, 0, 240]",240,a,0.3784770742058754,colour,0.5
163,23,1,2,3,11,111,178.25636219710577,178.98416343063582,"[93, 0, 161]",161,l,0.20312556624412537,colour,0.5
163,23,1,2,3,12,112,179.49216127232648,180.192179783131,"[94, 0, 160]",160,l,0.17666774324607104,colour,0.5
163,23,1,2,3,13,113,180.71097807853948,181.63217568711843,"[10, 0, 244]",244,a,0.3978086378192529,colour,0.5
163,23,1,2,3,14,114,182.14844942616764,183.16012540075462,"[40, 0, 214]",214,a,0.4888667459599674,colour,0.5
163,23,1,2,3,15,115,183.67990673717577,184.78410317213275,"[88, 0, 166]",166,l,0.580733027192764,colour,0.5
163,23,1,2,3,16,116,185.30512473126873,186.12819626170676,"[27, 0, 227]",227,a,0.29969634441658854,colour,0.5
163,23,1,2,3,17,117,186.64895591291133,187.37615810579155,"[20, 0, 234]",234,a,0.20390971458982676,colour,0.5
163,23,1,2,3,18,118,187.88337140518706,188.624156183796,"[50, 0, 204]",204,a,0.21738674934022129,colour,0.5
163,23,1,2,3,19,119,189.13356084539555,190.15216851909645,"[80, 0, 174]",174,l,0.4953100753482431,colour,0.5
163,23,1,2,3,20,120,190.66494923317805,191.52810213237535,"[54, 0, 200]",200,a,0.3399112269980833,colour,0.5
163,23,1,2,3,21,121,192.039978574845,192.9441080557881,"[33, 0, 221]",221,a,0.3810886705759913,colour,0.5
163,23,1,2,3,22,122,193.4619473349303,195.28820272069424,"[29, 0, 225]",225,a,1.302888076636009,colour,0.5
163,23,1,2,3,23,123,195.8059061227832,196.72823170782067,"[71, 0, 183]",183,l,0.39894606661982834,colour,0.5
163,23,1,2,3,24,124,197.2435365844285,198.00010161241516,"[22, 0, 232]",232,a,0.2331228880211711,colour,0.5
163,23,1,2,3,25,125,198.50928926456254,199.50417989341076,"[70, 0, 184]",184,l,0.4717202429892495,colour,0.5
163,23,1,2,3,26,126,200.02491433836985,200.8001445417758,"[6, 0, 248]",248,a,0.2516966909170151,colour,0.5
163,23,1,2,3,27,127,201.30638425250072,202.61619851447176,"[48, 0, 206]",206,a,0.7864248973783106,colour,0.5
163,23,1,2,3,28,128,203.1347100896528,203.9041160902707,"[95, 0, 159]",159,l,0.24615645164158195,colour,0.5
163,23,1,2,3,29,129,204.41595472348854,205.26414421084337,"[1, 0, 253]",253,a,0.32476467662490904,colour,0.5
163,23,1,2,3,30,130,205.77551259135362,206.54411317582708,"[64, 0, 190]",190,a,0.24530298623722047,colour,0.5
163,23,1,2,3,31,131,207.04429237591103,207.75220042071305,"[3, 0, 251]",251,a,0.1847971297102049,colour,0.5
163,23,1,2,3,32,132,208.26323796994984,209.02412349451333,"[24, 0, 230]",230,a,0.2375524799572304,colour,0.5
163,23,1,2,3,33,133,209.54462399473414,210.52812103694305,"[32, 0, 222]",222,a,0.46020692691672593,colour,0.5
163,23,1,2,3,34,134,211.04466849938035,212.04025111661758,"[39, 0, 215]",215,a,0.47218458796851337,colour,0.5
163,23,1,2,3,35,135,212.56044205336366,213.80812899267767,"[60, 0, 194]",194,a,0.7243743748404086,colour,0.5
163,23,1,2,3,36,136,214.32621088123415,215.0321311824955,"[18, 0, 236]",236,a,0.18259277055040002,colour,0.5
163,23,1,2,3,37,137,215.54503241355997,216.1442175451666,"[12, 0, 242]",242,a,0.07579261623322964,colour,0.5
163,23,1,2,3,38,138,216.65452411526348,217.9041452348465,"[96, 0, 158]",158,l,0.7262120626401156,colour,0.5
163,23,1,2,3,39,139,218.42025749688037,219.24021488276776,"[17, 0, 237]",237,a,0.2965172150870785,colour,0.5
163,23,1,2,3,40,140,219.74861208477523,220.52015745989047,"[2, 0, 252]",252,a,0.24830015830229968,colour,0.5
163,23,1,2,3,41,141,221.02976692165248,221.9281407293165,"[26, 0, 228]",228,a,0.387455987627618,colour,0.5
163,23,1,2,3,42,142,222.4394244326977,223.49619741167407,"[90, 0, 164]",164,l,0.5337502855109051,colour,0.5
163,23,1,2,3,43,143,224.01770222058985,224.79220144462306,"[41, 0, 213]",213,a,0.2513256873935461,colour,0.5
163,23,1,2,3,44,144,225.29902326059528,226.34422424051445,"[75, 0, 179]",179,l,0.5218474554130808,colour,0.5
163,23,1,2,3,45,145,226.8616491931025,227.9521984513849,"[67, 0, 187]",187,l,0.5678971745073795,colour,0.5
163,23,1,2,3,46,146,228.47114719625097,229.0961785070831,"[61, 0, 193]",193,l,0.10170693090185523,colour,0.5
163,23,1,2,3,47,147,229.61184139014222,230.6241715438664,"[59, 0, 195]",195,a,0.488917158334516,colour,0.5
163,23,1,2,3,48,148,231.14033618743997,232.64026253810152,"[65, 0, 189]",189,l,0.9765570722520351,colour,0.5
163,23,1,2,3,49,149,233.1559955260018,234.21627610223368,"[7, 0, 247]",247,a,0.5351106314919889,colour,0.5
163,23,1,2,3,50,150,234.73424298758619,235.57618567510508,"[47, 0, 207]",207,a,0.3188124739099294,colour,0.5
163,23,1,2,4,1,151,249.0784136649454,251.1202007830143,"[78, 0, 176]",176,l,1.5176569281611592,colour,0.5
163,23,1,2,4,2,152,251.64182925969362,255.02420305158012,"[12, 0, 242]",242,a,2.869454837637022,colour,0.5
163,23,1,2,4,3,153,255.53795617283322,257.12023701693397,"[71, 0, 183]",183,l,1.056125889183022,colour,0.5
163,23,1,2,4,4,154,257.635899112327,258.48020172829274,"[1, 0, 253]",253,a,0.32106882077641785,colour,0.5
163,23,1,2,4,5,155,258.9953104692977,260.0801788851386,"[80, 0, 174]",174,l,0.5615487621398643,colour,0.5
163,23,1,2,4,6,156,260.5891975770937,261.4482517152792,"[44, 0, 210]",210,a,0.33570179517846555,colour,0.5
163,23,1,2,4,7,157,261.95566390710883,263.03222137328703,"[72, 0, 182]",182,a,0.5532145753968507,colour,0.5
163,23,1,2,4,8,158,263.55075145920273,264.32820059394,"[2, 0, 252]",252,a,0.2541641395073384,colour,0.5
163,23,1,2,4,9,159,264.84767945623025,265.5841898183571,"[14, 0, 240]",240,a,0.21310681907925755,colour,0.5
163,23,1,2,4,10,160,266.0977920963196,266.84820839215536,"[15, 0, 239]",239,a,0.2257855269126594,colour,0.5
163,23,1,2,4,11,161,267.36479563312605,268.13620985718444,"[25, 0, 229]",229,a,0.24830252130050212,colour,0.5
163,23,1,2,4,12,162,268.6389435461024,269.45637952629477,"[38, 0, 216]",216,a,0.29400211095344275,colour,0.5
163,23,1,2,4,13,163,269.9569994407939,270.7681964979274,"[64, 0, 190]",190,a,0.28775964328087866,colour,0.5
163,23,1,2,4,14,164,271.28696289181244,272.08822635153774,"[57, 0, 197]",197,a,0.27860980050172657,colour,0.5
163,23,1,2,4,15,165,272.59963884274475,273.3842189629795,"[23, 0, 231]",231,a,0.26132742036134005,colour,0.5
163,23,1,2,4,16,166,273.89662000897806,274.65622828924097,"[0, 0, 254]",254,a,0.23634061426855624,colour,0.5
163,23,1,2,4,17,167,275.16222027048934,276.064211164834,"[45, 0, 209]",209,a,0.3786444589495659,colour,0.5
163,23,1,2,4,18,168,276.5842516522389,277.52822737547103,"[50, 0, 204]",204,a,0.4208120327675715,colour,0.5
163,23,1,2,4,19,169,278.0393145495327,278.9122265720507,"[21, 0, 233]",233,a,0.3495837041409686,colour,0.5
163,23,1,2,4,20,170,279.43000165419653,281.64035824290477,"[68, 0, 186]",186,a,1.6869959749747068,colour,0.5
163,23,1,2,4,21,171,282.1494580671424,283.552213811432,"[70, 0, 184]",184,l,0.879371105809696,colour,0.5
163,23,1,2,4,22,172,284.07146148581523,285.1362547557801,"[6, 0, 248]",248,a,0.5414007547078654,colour,0.5
163,23,1,2,4,23,173,285.6497329720296,286.43220286257565,"[46, 0, 208]",208,a,0.2590635905507952,colour,0.5
163,23,1,2,4,24,174,286.94667357217986,288.1122403567424,"[48, 0, 206]",206,a,0.642114010755904,colour,0.5
163,23,1,2,4,25,175,288.61872307083104,289.96026561013423,"[91, 0, 163]",163,l,0.8185446582501754,colour,0.5
163,23,1,2,4,26,176,290.47940261359327,291.55222956533544,"[5, 0, 249]",249,a,0.5494521594373509,colour,0.5
163,23,1,2,4,27,177,292.0732751491014,294.00822587893344,"[69, 0, 185]",185,l,1.4115196175407618,colour,0.5
163,23,1,2,4,28,178,294.52676029712893,295.39224437391385,"[62, 0, 192]",192,l,0.34213488455861807,colour,0.5
163,23,1,2,4,29,179,295.89103684038855,296.832252487191,"[93, 0, 161]",161,l,0.4177144297864288,colour,0.5
163,23,1,2,4,30,180,297.3320339024067,298.37630146590527,"[67, 0, 187]",187,a,0.5209695714293048,colour,0.5
163,23,1,2,4,31,181,298.89530574309174,299.7362224602839,"[27, 0, 227]",227,a,0.31767307582776994,colour,0.5
163,23,1,2,4,32,182,300.2547123739496,301.0802489898633,"[13, 0, 241]",241,a,0.30222050682641566,colour,0.5
163,23,1,2,4,33,183,301.59862980793696,303.2802296912996,"[75, 0, 179]",179,l,1.1583129189675674,colour,0.5
163,23,1,2,4,34,184,303.80187510338146,304.6082239096286,"[36, 0, 218]",218,a,0.2832701865117997,colour,0.5
163,23,1,2,4,35,185,305.11445653124247,305.91226123052184,"[26, 0, 228]",228,a,0.2751120493048802,colour,0.5
163,23,1,2,4,36,186,306.4270304759266,307.21623159758747,"[11, 0, 243]",243,a,0.2659047049237415,colour,0.5
163,23,1,2,4,37,187,307.7241014391184,308.48023756826296,"[32, 0, 222]",222,a,0.23287043231539428,colour,0.5
163,23,1,2,4,38,188,308.9898218238959,310.2002670279471,"[88, 0, 166]",166,l,0.6870633226353675,colour,0.5
163,23,1,2,4,39,189,310.70862051309086,311.5602549762698,"[74, 0, 180]",180,l,0.32811197848059237,colour,0.5
163,23,1,2,4,40,190,312.0681653841166,313.08823737921193,"[55, 0, 199]",199,l,0.4968346552923322,colour,0.5
163,23,1,2,4,41,191,313.59956676885486,314.58427213225514,"[22, 0, 232]",232,a,0.4614160358905792,colour,0.5
163,23,1,2,4,42,192,315.09965971659403,316.12833725870587,"[81, 0, 173]",173,l,0.5053441036725417,colour,0.5
163,23,1,2,4,43,193,316.64660661818925,317.52824864326976,"[96, 0, 158]",158,l,0.358258962049149,colour,0.5
163,23,1,2,4,44,194,318.0374571692664,319.26422691869084,"[49, 0, 205]",205,a,0.7034548218362033,colour,0.5
163,23,1,2,4,45,195,319.77191165240947,320.95229218690656,"[73, 0, 181]",181,l,0.6569844745099545,colour,0.5
163,23,1,2,4,46,196,321.4595645633526,323.24829306907486,"[52, 0, 202]",202,a,1.2654970736475661,colour,0.5
163,23,1,2,4,47,197,323.75654612341896,324.8162686191499,"[53, 0, 201]",201,a,0.5362649956950918,colour,0.5
163,23,1,2,4,48,198,325.33486644667573,327.1682618764462,"[76, 0, 178]",178,l,1.3102132284548134,colour,0.5
163,23,1,2,4,49,199,327.6787803360494,328.52025237691123,"[16, 0, 238]",238,a,0.3182425779523328,colour,0.5
163,23,1,2,4,50,200,329.0400884579867,330.5442707143957,"[99, 0, 155]",155,l,0.980763353407383,colour,0.5
163,23,1,2,5,1,201,338.11911022197455,339.5282710924512,"[10, 0, 244]",244,a,0.8849956282647327,colour,0.4
163,23,1,2,5,2,202,340.04263152508065,341.0723082558252,"[90, 0, 164]",164,l,0.5046855922555551,colour,0.4
163,23,1,2,5,3,203,341.59129914222285,342.6563669232419,"[45, 0, 209]",209,a,0.5416374563938007,colour,0.4
163,23,1,2,5,4,204,343.16959071473684,344.2482733768411,"[83, 0, 171]",171,l,0.5553409529384226,colour,0.4
163,23,1,2,5,5,205,344.76344749634154,345.59228257706854,"[22, 0, 232]",232,a,0.30543232534546405,colour,0.4
163,23,1,2,5,6,206,346.1073283026926,347.30430001660716,"[50, 0, 204]",204,a,0.6736044047866017,colour,0.4
163,23,1,2,5,7,207,347.81055390578695,348.64828322292306,"[8, 0, 246]",246,a,0.31438918330240995,colour,0.4
163,23,1,2,5,8,208,349.1568596252473,349.8802548975218,"[34, 0, 220]",220,a,0.19997755077201873,colour,0.4
163,23,1,2,5,9,209,350.3913475853624,351.9523095161421,"[3, 0, 251]",251,a,1.0376127385534346,colour,0.4
163,23,1,2,5,10,210,352.46962694858667,353.2803092483664,"[60, 0, 194]",194,a,0.2873173536499962,colour,0.4
163,23,1,2,5,11,211,353.79788661946077,354.7763404567959,"[74, 0, 180]",180,l,0.46170984546188265,colour,0.4
163,23,1,2,5,12,212,355.2913503423333,356.0644655897049,"[2, 0, 252]",252,a,0.2496951628709212,colour,0.4
163,23,1,2,5,13,213,356.57271903776564,357.3362720849691,"[89, 0, 165]",165,l,0.2400644333101809,colour,0.4
163,23,1,2,5,14,214,357.8541176656727,358.75229927618057,"[39, 0, 215]",215,a,0.3747631013393402,colour,0.4
163,23,1,2,5,15,215,359.26046922884416,359.93629768502433,"[31, 0, 223]",223,a,0.15243160852696747,colour,0.4
163,23,1,2,5,16,216,360.4480276165996,361.16829102113843,"[28, 0, 226]",226,a,0.196863406104967,colour,0.4
163,23,1,2,5,17,217,361.68262309674174,362.4803057037061,"[64, 0, 190]",190,l,0.2743279008427635,colour,0.4
163,23,1,2,5,18,218,362.99519349681213,363.64035036589485,"[59, 0, 195]",195,a,0.12178010761272162,colour,0.4
163,23,1,2,5,19,219,364.1516892078798,364.9282994495006,"[29, 0, 225]",225,a,0.2533992895623669,colour,0.4
163,23,1,2,5,20,220,365.4485990878893,366.1842894614674,"[33, 0, 221]",221,a,0.21235693525522947,colour,0.4
163,23,1,2,5,21,221,366.6986676171655,367.48829409317113,"[23, 0, 231]",231,a,0.26621978217735887,colour,0.4
163,23,1,2,5,22,222,367.99565941735636,368.7442904066993,"[69, 0, 185]",185,l,0.22523059707600623,colour,0.4
163,23,1,2,5,23,223,369.2613746819552,370.0004997913493,"[68, 0, 186]",186,l,0.21399533690419048,colour,0.4
163,23,1,2,5,24,224,370.50594826438464,371.2803250021534,"[58, 0, 196]",196,l,0.2509842225117609,colour,0.4
163,23,1,2,5,25,225,371.78730553830974,372.54437232681084,"[41, 0, 213]",213,a,0.2337112947134301,colour,0.4
163,23,1,2,5,26,226,373.0529999291757,373.8003131080186,"[72, 0, 182]",182,l,0.2238753711571917,colour,0.4
163,23,1,2,5,27,227,374.30702858546283,375.32829787407536,"[56, 0, 198]",198,a,0.4978948902571574,colour,0.4
163,23,1,2,5,28,228,375.8383354470134,376.6483001583256,"[53, 0, 201]",201,a,0.2865989775164053,colour,0.4
163,23,1,2,5,29,229,377.1667042133631,377.91233015374746,"[62, 0, 192]",192,a,0.2223933266941458,colour,0.4
163,23,1,2,5,30,230,378.4226509022992,379.19235268177,"[75, 0, 179]",179,l,0.24633013794664294,colour,0.4
163,23,1,2,5,31,231,379.7039561885176,380.43226942257024,"[25, 0, 229]",229,a,0.20498412800952792,colour,0.4
163,23,1,2,5,32,232,380.94025899353437,381.72028546000365,"[94, 0, 160]",160,l,0.2565669972682372,colour,0.4
163,23,1,2,5,33,233,382.23728978447616,382.91227462131064,"[77, 0, 177]",177,l,0.15164942923001945,colour,0.4
163,23,1,2,5,34,234,383.4248517168453,383.95229770080186,"[80, 0, 174]",174,l,0.0040491363033652306,colour,0.4
163,23,1,2,5,35,235,384.47179428616073,385.2003580065211,"[55, 0, 199]",199,a,0.2052464297739789,colour,0.4
163,23,1,2,5,36,236,385.70628736622166,386.3443865053123,"[76, 0, 178]",178,l,0.11471804534085095,colour,0.4
163,23,1,2,5,37,237,386.8631505360827,387.5923696171958,"[79, 0, 175]",175,l,0.20477775239851326,colour,0.4
163,23,1,2,5,38,238,388.09868612792343,388.74430458515417,"[67, 0, 187]",187,l,0.12218931410461664,colour,0.4
163,23,1,2,5,39,239,389.25504793121945,390.0243727994384,"[35, 0, 219]",219,a,0.2460268761496991,colour,0.4
163,23,1,2,5,40,240,390.5364477405092,391.2483576599043,"[30, 0, 224]",224,a,0.18929603858850896,colour,0.4
163,23,1,2,5,41,241,391.7550904665841,392.45630154467653,"[78, 0, 176]",176,l,0.17784337513148785,colour,0.4
163,23,1,2,5,42,242,392.97414515609853,393.94437272066716,"[63, 0, 191]",191,a,0.44688309845514596,colour,0.4
163,23,1,2,5,43,243,394.45853701769374,395.17634124448523,"[66, 0, 188]",188,a,0.19428056059405208,colour,0.4
163,23,1,2,5,44,244,395.69313840556424,396.2245283687953,"[87, 0, 167]",167,l,0.008240057388320565,colour,0.4
163,23,1,2,5,45,245,396.75570250407327,397.5683776673395,"[52, 0, 202]",202,a,0.2893830786924809,colour,0.4
163,23,1,2,5,46,246,398.0839046734618,398.80039660353214,"[49, 0, 205]",205,a,0.19315455330070108,colour,0.4
163,23,1,2,5,47,247,399.3183540365426,400.088337810128,"[96, 0, 158]",158,l,0.24669680907391012,colour,0.4
163,23,1,2,5,48,248,400.5997577843955,401.41631076065823,"[95, 0, 159]",159,l,0.29321638715919107,colour,0.4
163,23,1,2,5,49,249,401.92796704301145,402.70436578895897,"[47, 0, 207]",207,a,0.25300189829431474,colour,0.4
163,23,1,2,5,50,250,403.22490212915,404.10432916122954,"[38, 0, 216]",216,a,0.3559880427783355,colour,0.4
163,23,1,2,6,1,251,419.42860704357736,420.28831378545146,"[81, 0, 173]",173,l,0.33551905036438257,colour,0.28
163,23,1,2,6,2,252,420.80452962906566,421.9843930430943,"[42, 0, 212]",212,a,0.6565134340198711,colour,0.28
163,23,1,2,6,3,253,422.4935373720946,423.28038210992236,"[88, 0, 166]",166,l,0.26344631472602487,colour,0.28
163,23,1,2,6,4,254,423.79055989230983,424.54440580378287,"[94, 0, 160]",160,l,0.23048766085412353,colour,0.28
163,23,1,2,6,5,255,425.05624049843755,425.7843390861526,"[83, 0, 171]",171,l,0.2048210755456239,colour,0.28
163,23,1,2,6,6,256,426.29077847709414,427.1683638826944,"[84, 0, 170]",170,l,0.35417162254452705,colour,0.28
163,23,1,2,6,7,257,427.6814592801966,428.464388001943,"[32, 0, 222]",222,a,0.25954447709955275,colour,0.28
163,23,1,2,6,8,258,428.97846407734323,429.7364087497117,"[73, 0, 181]",181,l,0.23462108022067696,colour,0.28
163,23,1,2,6,9,259,430.2442841051379,431.02435310708825,"[93, 0, 161]",161,l,0.2568738036789,colour,0.28
163,23,1,2,6,10,260,431.54118335130624,432.4083739651833,"[29, 0, 225]",225,a,0.3438926216913387,colour,0.28
163,23,1,2,6,11,261,432.91630288376473,433.6403617875185,"[91, 0, 163]",163,l,0.20078808697871864,colour,0.28
163,23,1,2,6,12,262,434.1507384623401,434.86440533120185,"[27, 0, 227]",227,a,0.1903673013439402,colour,0.28
163,23,1,2,6,13,263,435.3851834931411,436.048376958468,"[92, 0, 162]",162,l,0.14001677790656686,colour,0.28
163,23,1,2,6,14,264,436.5572010901524,437.16839420888573,"[4, 0, 250]",250,a,0.0878833110909909,colour,0.28
163,23,1,2,6,15,265,437.6822930533672,438.33644222666044,"[57, 0, 197]",197,a,0.13080116256605834,colour,0.28
163,23,1,2,6,16,266,438.85430946887936,439.5524410608923,"[46, 0, 208]",208,a,0.17485092906281352,colour,0.28
163,23,1,2,6,17,267,440.0730908289552,441.00038084969856,"[71, 0, 183]",183,a,0.40421888418495655,colour,0.28
163,23,1,2,6,18,268,441.49832969682757,442.3683536427561,"[58, 0, 196]",196,a,0.3466901136562228,colour,0.28
163,23,1,2,6,19,269,442.8890128630446,443.55238395312335,"[55, 0, 199]",199,a,0.1400246548000723,colour,0.28
163,23,1,2,6,20,270,444.0609835924115,444.86435688799247,"[95, 0, 159]",159,l,0.2800197710748762,colour,0.28
163,23,1,2,6,21,271,445.37355793092865,446.2084023221396,"[74, 0, 180]",180,l,0.31139122345484793,colour,0.28
163,23,1,2,6,22,272,446.71746591257397,447.51237544603646,"[61, 0, 193]",193,a,0.27158948581200093,colour,0.28
163,23,1,2,6,23,273,448.03004812810104,448.74442313297186,"[87, 0, 167]",167,l,0.19094704336021096,colour,0.28
163,23,1,2,6,24,274,449.26476845762227,450.0564204864204,"[10, 0, 244]",244,a,0.26758800505194813,colour,0.28
163,23,1,2,6,25,275,450.57804502453655,451.4484746323433,"[13, 0, 241]",241,a,0.3470091293565929,colour,0.28
163,23,1,2,6,26,276,451.96881050476804,452.7524119162699,"[98, 0, 156]",156,l,0.26106196781620383,colour,0.28
163,23,1,2,6,27,277,453.2656746985158,454.0403763598297,"[60, 0, 194]",194,a,0.2513402597978711,colour,0.28
163,23,1,2,6,28,278,454.54708908020984,455.35244854399934,"[78, 0, 176]",176,l,0.2806353532942012,colour,0.28
163,23,1,2,6,29,279,455.8610769340303,456.7523784392979,"[97, 0, 157]",157,l,0.3678810268174857,colour,0.28
163,23,1,2,6,30,280,457.2674800910754,458.05640355101787,"[54, 0, 200]",200,a,0.26595787424594164,colour,0.28
163,23,1,2,6,31,281,458.5644644080894,459.3523839531699,"[41, 0, 213]",213,a,0.2646191897802055,colour,0.28
163,23,1,2,6,32,282,459.8569521792233,460.6803817161126,"[50, 0, 204]",204,a,0.29697683395352215,colour,0.28
163,23,1,2,6,33,283,461.18832481314894,462.01635053916834,"[63, 0, 191]",191,a,0.30469583231024444,colour,0.28
163,23,1,2,6,34,284,462.53225721337367,463.3284223296214,"[99, 0, 155]",155,l,0.27287933335173875,colour,0.28
163,23,1,2,6,35,285,463.8447661733953,464.53649382060394,"[67, 0, 187]",187,a,0.1683701842557639,colour,0.28
163,23,1,2,6,36,286,465.04803509963676,465.8324541365728,"[30, 0, 224]",224,a,0.2610627554822713,colour,0.28
163,23,1,2,6,37,287,466.3449556134874,467.0324119949946,"[16, 0, 238]",238,a,0.1640571707393974,colour,0.28
163,23,1,2,6,38,288,467.5501142155845,468.47246421908494,"[86, 0, 168]",168,l,0.3990496483165771,colour,0.28
163,23,1,2,6,39,289,468.98771238175686,469.8324013612,"[5, 0, 249]",249,a,0.3213181255850941,colour,0.28
163,23,1,2,6,40,290,470.3471619418124,471.04837420152035,"[82, 0, 172]",172,l,0.17789811978582293,colour,0.28
163,23,1,2,6,41,291,471.5689574094722,472.384390680003,"[33, 0, 221]",221,a,0.29258859576657414,colour,0.28
163,23,1,2,6,42,292,472.8971993572777,473.7285227604443,"[76, 0, 178]",178,l,0.30802738026250154,colour,0.28
163,23,1,2,6,43,293,474.24296353769023,474.9123884430155,"[64, 0, 190]",190,l,0.14614936232101172,colour,0.28
163,23,1,2,6,44,294,475.4305388608482,477.7124353107065,"[59, 0, 195]",195,a,1.7585748268757015,colour,0.28
163,23,1,2,6,45,295,478.2276677195914,478.7604022749001,"[12, 0, 242]",242,a,0.009435381623916328,colour,0.28
163,23,1,2,6,46,296,479.2780363599304,481.8564299386926,"[65, 0, 189]",189,a,2.0549616786884144,colour,0.28
163,23,1,2,6,47,297,482.3720191725297,483.1764869677136,"[80, 0, 174]",174,l,0.2810075383167714,colour,0.28
163,23,1,2,6,48,298,483.684619504842,484.64843839849345,"[56, 0, 198]",198,l,0.44045394752174616,colour,0.28
163,23,1,2,6,49,299,485.1691665420076,485.99243381409906,"[51, 0, 203]",203,l,0.30015596316661686,colour,0.28
163,23,1,2,6,50,300,486.5130709790392,487.3044831552543,"[77, 0, 177]",177,a,0.26802281162235886,colour,0.28
163,23,1,2,7,1,301,505.77933526586276,506.9844395170221,"[67, 0, 187]",187,a,0.6809134088689461,colour,0.14
163,23,1,2,7,2,302,507.49907249142416,508.760440871818,"[69, 0, 185]",185,a,0.7379975266521797,colour,0.14
163,23,1,2,7,3,303,509.2816731389612,510.0644407772925,"[6, 0, 248]",248,a,0.2594133261591196,colour,0.14
163,23,1,2,7,4,304,510.5786322497297,511.2004915205762,"[99, 0, 155]",155,l,0.09849156776908785,colour,0.14
163,23,1,2,7,5,305,511.719320142176,512.6804333099863,"[77, 0, 177]",177,a,0.4378096618456766,colour,0.14
163,23,1,2,7,6,306,513.1882255638484,513.9684438336408,"[78, 0, 176]",176,a,0.2568269360344857,colour,0.14
163,23,1,2,7,7,307,514.4851511977613,515.1604790749261,"[50, 0, 204]",204,a,0.15194914652965963,colour,0.14
163,23,1,2,7,8,308,515.6728151363786,516.4004659204511,"[13, 0, 241]",241,a,0.20437957346439362,colour,0.14
163,23,1,2,7,9,309,516.9071778532816,517.5444487329805,"[72, 0, 182]",182,a,0.11373579187784344,colour,0.14
163,23,1,2,7,10,310,518.063601490343,518.6964506549994,"[70, 0, 184]",184,a,0.10951966478023678,colour,0.14
163,23,1,2,7,11,311,519.2072822225746,519.904458736768,"[82, 0, 172]",172,l,0.1737064110348001,colour,0.14
163,23,1,2,7,12,312,520.4105318504153,521.1844934739638,"[81, 0, 173]",173,l,0.2630146589362994,colour,0.14
163,23,1,2,7,13,313,521.6970508771483,522.4884520255728,"[75, 0, 179]",179,l,0.2679976053768769,colour,0.14
163,23,1,2,7,14,314,523.0096972895553,523.7604452042142,"[60, 0, 194]",194,a,0.2274073869921267,colour,0.14
163,23,1,2,7,15,315,524.2753432373283,525.0884665979538,"[92, 0, 162]",162,l,0.28971981757786125,colour,0.14
163,23,1,2,7,16,316,525.6037037329515,526.2884732933016,"[74, 0, 180]",180,a,0.16161059599835426,colour,0.14
163,23,1,2,7,17,317,526.8068505667616,527.6164714500774,"[94, 0, 160]",160,l,0.28633076802361757,colour,0.14
163,23,1,2,7,18,318,528.135034225299,528.8724547667662,"[91, 0, 163]",163,l,0.214155632420443,colour,0.14
163,23,1,2,7,19,319,529.3851894008694,530.0804415807361,"[68, 0, 186]",186,a,0.1720140523975715,colour,0.14
163,23,1,2,7,20,320,530.5884559641127,531.2484265831299,"[52, 0, 202]",202,l,0.1366911376826465,colour,0.14
163,23,1,2,7,21,321,531.7602979055373,532.4884705364238,"[85, 0, 169]",169,l,0.20478878018911928,colour,0.14
163,23,1,2,7,22,322,532.9948595149908,533.7364445897983,"[79, 0, 175]",175,l,0.2182165840640664,colour,0.14
163,23,1,2,7,23,323,534.2449753058609,534.8724425574765,"[32, 0, 222]",222,a,0.1042279425309971,colour,0.14
163,23,1,2,7,24,324,535.3885556071764,536.0164958685637,"[93, 0, 161]",161,l,0.10459225066006184,colour,0.14
163,23,1,2,7,25,325,536.5293155735126,537.1924873772077,"[56, 0, 198]",198,a,0.13981670374050736,colour,0.14
163,23,1,2,7,26,326,537.7012335273903,539.2084460391197,"[54, 0, 200]",200,a,0.9838601687224582,colour,0.14
163,23,1,2,7,27,327,539.7170929400017,540.4724882437149,"[95, 0, 159]",159,l,0.2321221239399165,colour,0.14
163,23,1,2,7,28,328,540.9827625184553,541.6084759715013,"[88, 0, 166]",166,l,0.1022571346256882,colour,0.14
163,23,1,2,7,29,329,542.1235027924413,542.8164793270407,"[58, 0, 196]",196,a,0.16962143476121128,colour,0.14
163,23,1,2,7,30,330,543.3267335155979,544.0004667082103,"[64, 0, 190]",190,a,0.15047537279315293,colour,0.14
163,23,1,2,7,31,331,544.5143017495284,545.2645026112441,"[3, 0, 251]",251,a,0.22681346640456468,colour,0.14
163,23,1,2,7,32,332,545.7800028357888,547.2804963254603,"[84, 0, 170]",170,l,0.9770793127827346,colour,0.14
163,23,1,2,7,33,333,547.7958319220925,549.1205733618699,"[73, 0, 181]",181,l,0.8013327767839655,colour,0.14
163,23,1,2,7,34,334,549.6396831899183,550.4484998385888,"[63, 0, 191]",191,a,0.28533788095228374,colour,0.14
163,23,1,2,7,35,335,550.9697132009314,551.9684698274359,"[20, 0, 234]",234,a,0.47532472643069923,colour,0.14
163,23,1,2,7,36,336,552.4855773396557,553.2884847148089,"[83, 0, 171]",171,l,0.27979606622830033,colour,0.14
163,23,1,2,7,37,337,553.7981501028407,554.5044847306563,"[96, 0, 158]",158,l,0.18295668484643102,colour,0.14
163,23,1,2,7,38,338,555.0169976290781,555.7444865423022,"[66, 0, 188]",188,a,0.2040609517134726,colour,0.14
163,23,1,2,7,39,339,556.2514332076535,556.9525706364075,"[57, 0, 197]",197,a,0.17784179968293756,colour,0.14
163,23,1,2,7,40,340,557.4704268509522,558.2324486228172,"[97, 0, 157]",157,l,0.23872732429299504,colour,0.14
163,23,1,2,7,41,341,558.7516978725325,559.5764976014616,"[51, 0, 203]",203,a,0.30016226472798735,colour,0.14
163,23,1,2,7,42,342,560.0970772647997,560.8725618930766,"[76, 0, 178]",178,l,0.2520984144648537,colour,0.14
163,23,1,2,7,43,343,561.3940765480511,562.1605373643106,"[55, 0, 199]",199,a,0.243144313339144,colour,0.14
163,23,1,2,7,44,344,562.6753975881729,563.4885079518426,"[48, 0, 206]",206,a,0.289635140565224,colour,0.14
163,23,1,2,7,45,345,564.0036915236851,564.8405035722535,"[98, 0, 156]",156,l,0.3135443825740367,colour,0.14
163,23,1,2,7,46,346,565.3476570069324,566.2484671493294,"[2, 0, 252]",252,a,0.37761376262642443,colour,0.14
163,23,1,2,7,47,347,566.769400880672,567.5925102203619,"[65, 0, 189]",189,l,0.300019298447296,colour,0.14
163,23,1,2,7,48,348,568.1133852686035,568.8885118903127,"[80, 0, 174]",174,l,0.25184438342694193,colour,0.14
163,23,1,2,7,49,349,569.3947354533011,570.2965022488497,"[61, 0, 193]",193,a,0.37840815098024905,colour,0.14
163,23,1,2,7,50,350,570.8166593149072,571.6404653690988,"[90, 0, 164]",164,l,0.30080738535616547,colour,0.14
163,23,1,2,8,1,351,599.1175186880864,600.0005813175812,"[73, 0, 181]",181,l,0.3567450159462169,colour,0.06
163,23,1,2,8,2,352,600.5131977976998,601.1765172937885,"[95, 0, 159]",159,l,0.14004001475404948,colour,0.06
163,23,1,2,8,3,353,601.6850968468934,602.2565512433648,"[60, 0, 194]",194,a,0.04830803524237126,colour,0.06
163,23,1,2,8,4,354,602.7565039818874,603.3845596401952,"[53, 0, 201]",201,a,0.1046458138152957,colour,0.06
163,23,1,2,8,5,355,603.8971520956839,604.5845198617317,"[59, 0, 195]",195,a,0.16396304150111973,colour,0.06
163,23,1,2,8,6,356,605.1004013296915,605.7285148835508,"[63, 0, 191]",191,a,0.10471670620609075,colour,0.06
163,23,1,2,8,7,357,606.2411612959113,606.8485490693711,"[69, 0, 185]",185,a,0.08400471042841673,colour,0.06
163,23,1,2,8,8,358,607.3663131238427,608.304511118331,"[94, 0, 160]",160,l,0.41480587306432426,colour,0.06
163,23,1,2,8,9,359,608.8195509362267,609.5765586476773,"[68, 0, 186]",186,a,0.23421463056001812,colour,0.06
163,23,1,2,8,10,360,610.0853760840837,610.864513638895,"[50, 0, 204]",204,a,0.25600537203717977,colour,0.06
163,23,1,2,8,11,361,611.382202074863,612.0965821997961,"[88, 0, 166]",166,l,0.19099430507048965,colour,0.06
163,23,1,2,8,12,362,612.61677156121,613.2805589470081,"[89, 0, 165]",165,l,0.14043543674051762,colour,0.06
163,23,1,2,8,13,363,613.7886627335101,614.5845348278526,"[78, 0, 176]",176,l,0.27240396046545357,colour,0.06
163,23,1,2,8,14,364,615.1012748812791,615.9205985680455,"[61, 0, 193]",193,a,0.2960371160879731,colour,0.06
163,23,1,2,8,15,365,616.4294939859537,617.1285995604703,"[83, 0, 171]",171,l,0.1757362961070612,colour,0.06
163,23,1,2,8,16,366,617.648382866173,618.4485341032268,"[57, 0, 197]",197,a,0.27684142952784896,colour,0.06
163,23,1,2,8,17,367,618.9485998755554,619.704514269135,"[99, 0, 155]",155,l,0.23254826595075428,colour,0.06
163,23,1,2,8,18,368,620.2142871771939,621.0165545517812,"[79, 0, 175]",175,l,0.278907154686749,colour,0.06
163,23,1,2,8,19,369,621.5270450481912,622.304519783007,"[64, 0, 190]",190,a,0.2543342811986804,colour,0.06
163,23,1,2,8,20,370,622.8239017589949,623.8485372540308,"[86, 0, 168]",168,l,0.5022071161074564,colour,0.06
163,23,1,2,8,21,371,624.3552023189841,625.1845434925053,"[91, 0, 163]",163,l,0.30592699663247913,colour,0.06
163,23,1,2,8,22,372,625.6990866699489,626.4246146212099,"[84, 0, 170]",170,l,0.2021618236321956,colour,0.06
163,23,1,2,8,23,373,626.9336006238591,627.6805912425043,"[52, 0, 202]",202,a,0.22363394335843623,colour,0.06
163,23,1,2,8,24,374,628.1993107686285,628.9845478248317,"[76, 0, 178]",178,l,0.27427276235539466,colour,0.06
163,23,1,2,8,25,375,629.4995159626706,630.6725642561214,"[54, 0, 200]",200,a,0.6497093412326649,colour,0.06
163,23,1,2,8,26,376,631.1870944366092,632.0246366766514,"[97, 0, 157]",157,l,0.31413003243505955,colour,0.06
163,23,1,2,8,27,377,632.5309787874576,633.2486727371579,"[62, 0, 192]",192,a,0.19435617898125201,colour,0.06
163,23,1,2,8,28,378,633.765324175125,634.7125507077435,"[81, 0, 173]",173,l,0.4350554929114878,colour,0.06
163,23,1,2,8,29,379,635.2229963057907,636.0565701480955,"[55, 0, 199]",199,a,0.31021834851708263,colour,0.06
163,23,1,2,8,30,380,636.5669267367339,637.3205690295435,"[74, 0, 180]",180,l,0.23037383914925158,colour,0.06
163,23,1,2,8,31,381,637.832623490598,638.6405780091882,"[93, 0, 161]",161,l,0.2846265940461308,colour,0.06
163,23,1,2,8,32,382,639.1625377108576,639.9845639725681,"[58, 0, 196]",196,a,0.2977503485744819,colour,0.06
163,23,1,2,8,33,383,640.491783179692,641.5765523462323,"[70, 0, 184]",184,a,0.561393586685881,colour,0.06
163,23,1,2,8,34,384,642.0856104227714,642.8645943774609,"[3, 0, 251]",251,a,0.25605657207779586,colour,0.06
163,23,1,2,8,35,385,643.3826935952529,644.4405610738322,"[96, 0, 158]",158,l,0.5346139910398051,colour,0.06
163,23,1,2,8,36,386,644.9608748907922,646.0326116752112,"[71, 0, 183]",183,a,0.5483458444941789,colour,0.06
163,23,1,2,8,37,387,646.5409793388098,647.3205918726744,"[19, 0, 235]",235,a,0.25616684916894883,colour,0.06
163,23,1,2,8,38,388,647.8379731081659,648.5205410664203,"[72, 0, 182]",182,a,0.15914432902354747,colour,0.06
163,23,1,2,8,39,389,649.0412337636808,649.744630690082,"[85, 0, 169]",169,l,0.1799709340557456,colour,0.06
163,23,1,2,8,40,390,650.2600615976844,650.8885879026493,"[82, 0, 172]",172,l,0.10514206043444574,colour,0.06
163,23,1,2,8,41,391,651.4008034470025,652.0485841217451,"[51, 0, 203]",203,a,0.12442793790251017,colour,0.06
163,23,1,2,8,42,392,652.5571987271542,653.3206296819262,"[77, 0, 177]",177,l,0.2401558057172224,colour,0.06
163,23,1,2,8,43,393,653.8384394225432,654.4565878711874,"[67, 0, 187]",187,a,0.09471615485381335,colour,0.06
163,23,1,2,8,44,394,654.9636018841993,655.6326731152367,"[25, 0, 229]",229,a,0.14577520813327283,colour,0.06
163,23,1,2,8,45,395,656.1386969981249,656.9045796475839,"[98, 0, 156]",156,l,0.24240230629220605,colour,0.06
163,23,1,2,8,46,396,657.4200881428551,658.176615755423,"[75, 0, 179]",179,l,0.23338597745168954,colour,0.06
163,23,1,2,8,47,397,658.6858534261119,659.4325722905342,"[87, 0, 167]",167,l,0.2235287862131372,colour,0.06
163,23,1,2,8,48,398,659.9534879049752,660.6645640513161,"[66, 0, 188]",188,l,0.18779942183755338,colour,0.06
163,23,1,2,8,49,399,661.1858585461741,662.0405866738874,"[90, 0, 164]",164,l,0.3315270218299702,colour,0.06
163,23,1,2,8,50,400,662.5610379432328,664.1365926760482,"[65, 0, 189]",189,a,1.0522630421910435,colour,0.06
163,23,1,2,9,1,401,674.545609398745,675.5686269722646,"[80, 0, 174]",174,l,0.498892109724693,colour,0.06
163,23,1,2,9,2,402,676.0777405812405,676.688598536537,"[82, 0, 172]",172,l,0.08748119382653385,colour,0.06
163,23,1,2,9,3,403,677.1921191307483,678.016674281098,"[47, 0, 207]",207,a,0.30215827911160886,colour,0.06
163,23,1,2,9,4,404,678.5349070128286,680.1606043181382,"[44, 0, 210]",210,a,1.1024162485264242,colour,0.06
163,23,1,2,9,5,405,680.675687065348,681.3125841846922,"[98, 0, 156]",156,l,0.11356919480022043,colour,0.06
163,23,1,2,9,6,406,681.8320335084572,682.3685966460034,"[83, 0, 171]",171,l,0.013156443717889488,colour,0.06
163,23,1,2,9,7,407,682.8790190070868,683.5926256173989,"[50, 0, 204]",204,a,0.1902857751119882,colour,0.06
163,23,1,2,9,8,408,684.0979248225922,684.8726150622824,"[78, 0, 176]",176,a,0.25137176748830825,colour,0.06
163,23,1,2,9,9,409,685.3792096287943,686.0805987255881,"[71, 0, 183]",183,a,0.17799067369196564,colour,0.06
163,23,1,2,9,10,410,686.5980193457799,687.4246126519283,"[72, 0, 182]",182,a,0.3035757327452302,colour,0.06
163,23,1,2,9,11,411,687.9418473766418,688.6886264996137,"[53, 0, 201]",201,a,0.22341496462468058,colour,0.06
163,23,1,2,9,12,412,689.2076477122027,690.01665970881,"[18, 0, 236]",236,a,0.28566634899470955,colour,0.06
163,23,1,2,9,13,413,690.5359400723828,691.2805943932617,"[57, 0, 197]",197,a,0.22151504887733608,colour,0.06
163,23,1,2,9,14,414,691.8016273739049,692.6246685781516,"[79, 0, 175]",175,a,0.29979165515396744,colour,0.06
163,23,1,2,9,15,415,693.1454270478571,693.8806526825065,"[86, 0, 168]",168,l,0.21184099628590047,colour,0.06
163,23,1,2,9,16,416,694.395508180256,695.1445991824148,"[62, 0, 192]",192,a,0.2257808007998392,colour,0.06
163,23,1,2,9,17,417,695.661218718742,696.4645880759927,"[93, 0, 161]",161,l,0.2799642387544736,colour,0.06
163,23,1,2,9,18,418,696.9738718266599,697.7526301072212,"[92, 0, 162]",162,l,0.2553523745154962,colour,0.06
163,23,1,2,9,19,419,698.2722405142849,698.9526230180636,"[73, 0, 181]",181,l,0.156985656125471,colour,0.06
163,23,1,2,9,20,420,699.459898939007,700.1206741865026,"[54, 0, 200]",200,a,0.13748119375668466,colour,0.06
163,23,1,2,9,21,421,700.6317688436247,701.3607618567767,"[52, 0, 202]",202,a,0.2056280670221895,colour,0.06
163,23,1,2,9,22,422,701.8693122651894,702.6646282483125,"[55, 0, 199]",199,a,0.2722145203733817,colour,0.06
163,23,1,2,9,23,423,703.1818653360242,703.9366253652843,"[95, 0, 159]",159,l,0.2313931139651686,colour,0.06
163,23,1,2,9,24,424,704.4494533410762,705.0086169685237,"[51, 0, 203]",203,a,0.03570376441348344,colour,0.06
163,23,1,2,9,25,425,705.5276755965315,706.256646554335,"[85, 0, 169]",169,l,0.2055390578461811,colour,0.06
163,23,1,2,9,26,426,706.7777819350595,707.4887982166838,"[75, 0, 179]",179,l,0.18766118166968226,colour,0.06
163,23,1,2,9,27,427,707.9966893260134,708.6326683891239,"[99, 0, 155]",155,l,0.11267910175956786,colour,0.06
163,23,1,2,9,28,428,709.1529979598708,709.7686340614455,"[91, 0, 163]",163,l,0.09251415880862623,colour,0.06
163,23,1,2,9,29,429,710.2780824400252,710.9366990146227,"[56, 0, 198]",198,a,0.1352283916203305,colour,0.06
163,23,1,2,9,30,430,711.4500374154886,712.184677006444,"[68, 0, 186]",186,a,0.21122344490140676,colour,0.06
163,23,1,2,9,31,431,712.7001547816908,713.4567001174437,"[74, 0, 180]",180,a,0.23317211889661849,colour,0.06
163,23,1,2,9,32,432,713.9676974944305,714.5526222302578,"[87, 0, 167]",167,l,0.061553882085718215,colour,0.06
163,23,1,2,9,33,433,715.0615656975424,715.7366143376566,"[67, 0, 187]",187,a,0.15161280159372836,colour,0.06
163,23,1,2,9,34,434,716.2491981284693,717.0246882705251,"[61, 0, 193]",193,a,0.2507975392509252,colour,0.06
163,23,1,2,9,35,435,717.5318161052419,718.240712704719,"[65, 0, 189]",189,a,0.1858896599151194,colour,0.06
163,23,1,2,9,36,436,718.7507104992401,719.384654557216,"[88, 0, 166]",166,l,0.11064133967738599,colour,0.06
163,23,1,2,9,37,437,719.8932384426007,720.4966881445143,"[69, 0, 185]",185,a,0.0801733712432906,colour,0.06
163,23,1,2,9,38,438,721.0183504919987,721.7686092491494,"[64, 0, 190]",190,a,0.22690168803092092,colour,0.06
163,23,1,2,9,39,439,722.28406654438,723.0246677905088,"[59, 0, 195]",195,a,0.21718864468857646,colour,0.06
163,23,1,2,9,40,440,723.5342827660497,724.5046757461969,"[97, 0, 157]",157,l,0.4471796649741009,colour,0.06
163,23,1,2,9,41,441,725.0187431569211,725.664684174466,"[60, 0, 194]",194,a,0.1227048592409119,colour,0.06
163,23,1,2,9,42,442,726.1750927509274,726.8326691768598,"[58, 0, 196]",196,a,0.1341953321825713,colour,0.06
163,23,1,2,9,43,443,727.3470792340813,727.9846781879896,"[77, 0, 177]",177,l,0.12672603246755898,colour,0.06
163,23,1,2,9,44,444,728.4910116342362,729.1366816853406,"[84, 0, 170]",170,l,0.12244846508838236,colour,0.06
163,23,1,2,9,45,445,729.6473391727777,730.3526907595806,"[63, 0, 191]",191,a,0.1820035760756582,colour,0.06
163,23,1,2,9,46,446,730.8674375556875,735.8646837807028,"[89, 0, 165]",165,l,4.482151662465185,colour,0.06
163,23,1,2,9,47,447,736.3754676928511,736.9926535804989,"[90, 0, 164]",164,l,0.09397887403611094,colour,0.06
163,23,1,2,9,48,448,737.500469465158,738.1366840484552,"[94, 0, 160]",160,l,0.11298590817023069,colour,0.06
163,23,1,2,9,49,449,738.6568706529215,739.3366308792029,"[66, 0, 188]",188,a,0.15648940950632095,colour,0.06
163,23,1,2,9,50,450,739.8443435759982,740.472662717686,"[81, 0, 173]",173,l,0.10495380172505975,colour,0.06
163,23,1,2,10,1,451,744.672120391042,745.7046525091864,"[98, 0, 156]",156,l,0.5083889312809333,colour,0.06
163,23,1,2,10,2,452,746.222431135946,747.0006608745316,"[84, 0, 170]",170,l,0.2548265893710777,colour,0.06
163,23,1,2,10,3,453,747.5224031729158,748.4326809921768,"[65, 0, 189]",189,a,0.38682150084059685,colour,0.06
163,23,1,2,10,4,454,748.9444739392493,750.1526612211019,"[54, 0, 200]",200,a,0.68801800662186,colour,0.06
163,23,1,2,10,5,455,750.6600612037582,751.4247410459211,"[86, 0, 168]",168,l,0.24135940067935735,colour,0.06
163,23,1,2,10,6,456,751.9414417146472,752.5926827251678,"[87, 0, 167]",167,l,0.12789418129250407,colour,0.06
163,23,1,2,10,7,457,753.1133679393679,753.7286795113469,"[83, 0, 171]",171,l,0.09192102588713169,colour,0.06
163,23,1,2,10,8,458,754.2384488747921,754.8566883020103,"[63, 0, 191]",191,a,0.0949252872960642,colour,0.06
163,23,1,2,10,9,459,755.3665258008987,756.0087099162629,"[59, 0, 195]",195,a,0.1188865170115605,colour,0.06
163,23,1,2,10,10,460,756.5228714564582,757.112686190987,"[25, 0, 229]",229,a,0.06641276692971587,colour,0.06
163,23,1,2,10,11,461,757.6322914779885,758.2166963365162,"[61, 0, 193]",193,a,0.06141682353336364,colour,0.06
163,23,1,2,10,12,462,758.7276913503883,759.4887088135583,"[67, 0, 187]",187,a,0.2377364063868299,colour,0.06
163,23,1,2,10,13,463,760.0089225934353,760.6966782982927,"[97, 0, 157]",157,l,0.16424503549933434,colour,0.06
163,23,1,2,10,14,464,761.2122691074619,761.9047115861904,"[95, 0, 159]",159,l,0.16906886792276055,colour,0.06
163,23,1,2,10,15,465,762.4154825013829,763.0486825833796,"[50, 0, 204]",204,a,0.10983159125316888,colour,0.06
163,23,1,2,10,16,466,763.5562062337995,764.7446503824322,"[92, 0, 162]",162,l,0.6650961379054934,colour,0.06
163,23,1,2,10,17,467,765.2569273668341,766.0166920041665,"[73, 0, 181]",181,l,0.23637290962506086,colour,0.06
163,23,1,2,10,18,468,766.5226056099636,767.30468401697,"[62, 0, 192]",192,a,0.25872291321866214,colour,0.06
163,23,1,2,10,19,469,767.8195792931365,768.4966692398302,"[69, 0, 185]",185,l,0.15420234261546284,colour,0.06
163,23,1,2,10,20,470,769.0071329547791,769.7846990618855,"[91, 0, 163]",163,a,0.2541712287347764,colour,0.06
163,23,1,2,10,21,471,770.3041885580169,770.9207175096963,"[94, 0, 160]",160,l,0.09310099016875029,colour,0.06
163,23,1,2,10,22,472,771.4291919056559,772.0567257173825,"[81, 0, 173]",173,l,0.10451387520879507,colour,0.06
163,23,1,2,10,23,473,772.5699936196906,773.160717352177,"[55, 0, 199]",199,a,0.06756870658136904,colour,0.06
163,23,1,2,10,24,474,773.6796534938039,774.624765858287,"[22, 0, 232]",232,a,0.4220825817901641,colour,0.06
163,23,1,2,10,25,475,775.1329850417096,775.9286897513084,"[72, 0, 182]",182,l,0.2847329325741157,colour,0.06
163,23,1,2,10,26,476,776.4487830142025,777.2092538183788,"[79, 0, 175]",175,l,0.23726024595089257,colour,0.06
163,23,1,2,10,27,477,777.7038640284445,778.7207116020145,"[68, 0, 186]",186,a,0.4934097658842802,colour,0.06
163,23,1,2,10,28,478,779.2352232716512,780.3127259694738,"[88, 0, 166]",166,l,0.5542043118039146,colour,0.06
163,23,1,2,10,29,479,780.8290733578615,781.616729419562,"[78, 0, 176]",176,l,0.2643356202170253,colour,0.06
163,23,1,2,10,30,480,782.1260171087924,783.0407095539849,"[80, 0, 174]",174,l,0.40309642150532454,colour,0.06
163,23,1,2,10,31,481,783.54244050954,784.328686994384,"[89, 0, 165]",165,l,0.26163777138572186,colour,0.06
163,23,1,2,10,32,482,784.8409017510712,785.51273857255,"[57, 0, 197]",197,a,0.14850810926873237,colour,0.06
163,23,1,2,10,33,483,786.0285255173221,787.0967751845019,"[96, 0, 158]",158,l,0.5449221364688128,colour,0.06
163,23,1,2,10,34,484,787.6066973605193,788.9207466542721,"[60, 0, 194]",194,a,0.7906477199867368,colour,0.06
163,23,1,2,10,35,485,789.4349846006371,790.1766980694374,"[76, 0, 178]",178,a,0.21843713812995702,colour,0.06
163,23,1,2,10,36,486,790.6850925146136,791.3046883492498,"[82, 0, 172]",172,l,0.09633013792335987,colour,0.06
163,23,1,2,10,37,487,791.8258642962901,792.544738210272,"[85, 0, 169]",169,l,0.19596898066811264,colour,0.06
163,23,1,2,10,38,488,793.0602896347409,793.7687061353354,"[90, 0, 164]",164,l,0.18503304373007268,colour,0.06
163,23,1,2,10,39,489,794.2791466133203,795.2087138547795,"[64, 0, 190]",190,a,0.40618023998104036,colour,0.06
163,23,1,2,10,40,490,795.7167309949873,796.5447130040266,"[56, 0, 198]",198,a,0.30457413371186703,colour,0.06
163,23,1,2,10,41,491,797.0605606011814,797.8327156506712,"[75, 0, 179]",179,a,0.24881294649094343,colour,0.06
163,23,1,2,10,42,492,798.3419418998528,798.9927311682841,"[58, 0, 196]",196,a,0.12745819322299212,colour,0.06
163,23,1,2,10,43,493,799.5139051460428,800.2087563901441,"[99, 0, 155]",155,l,0.17148590413853526,colour,0.06
163,23,1,2,10,44,494,800.7170618260279,801.4247319874121,"[93, 0, 161]",161,l,0.18419572594575584,colour,0.06
163,23,1,2,10,45,495,801.9360026939539,802.6888951029396,"[51, 0, 203]",203,a,0.2297035122755915,colour,0.06
163,23,1,2,10,46,496,803.2016766048037,804.0007420069305,"[71, 0, 183]",183,l,0.27576032071374357,colour,0.06
163,23,1,2,10,47,497,804.5143312880537,805.3527628335869,"[44, 0, 210]",210,a,0.31514339963905513,colour,0.06
163,23,1,2,10,48,498,805.8737796664936,806.6567335943691,"[53, 0, 201]",201,a,0.25952911702916026,colour,0.06
163,23,1,2,10,49,499,807.170736808097,808.1127224249067,"[66, 0, 188]",188,a,0.4185383567819372,colour,0.06
163,23,1,2,10,50,500,808.6240340913646,809.6167479304131,"[77, 0, 177]",177,l,0.4694512930000201,colour,0.06
163,23,1,2,11,1,501,819.8584444636945,820.6407662678976,"[51, 0, 203]",203,a,0.25798838946502656,colour,0.06
163,23,1,2,11,2,502,821.1563031200785,821.7607429521158,"[79, 0, 175]",175,l,0.08106700901407748,colour,0.06
163,23,1,2,11,3,503,822.2813470340334,822.9847593203885,"[87, 0, 167]",167,l,0.18001780181657523,colour,0.06
163,23,1,2,11,4,504,823.5002516679233,824.096760612214,"[85, 0, 169]",169,l,0.0731778689660132,colour,0.06
163,23,1,2,11,5,505,824.6096047356259,825.2247300182935,"[55, 0, 199]",199,a,0.09158310561906546,colour,0.06
163,23,1,2,11,6,506,825.7347577450564,826.3767957433593,"[65, 0, 189]",189,a,0.11863209225703031,colour,0.06
163,23,1,2,11,7,507,826.8911668098299,827.6727674809517,"[92, 0, 162]",162,l,0.258267626632005,colour,0.06
163,23,1,2,11,8,508,828.1880825975677,828.8167518688133,"[68, 0, 186]",186,a,0.10521610360592604,colour,0.06
163,23,1,2,11,9,509,829.3287760037929,830.0007553977193,"[54, 0, 200]",200,a,0.1485778201604262,colour,0.06
163,23,1,2,11,10,510,830.5164966562297,831.2807680795668,"[53, 0, 201]",201,a,0.24098603415768594,colour,0.06
163,23,1,2,11,11,511,831.7978369948687,832.5527332950151,"[20, 0, 234]",234,a,0.23163414804730564,colour,0.06
163,23,1,2,11,12,512,833.0635235087248,833.912799618789,"[69, 0, 185]",185,l,0.3259206162765622,colour,0.06
163,23,1,2,11,13,513,834.4229955180781,835.2087780517759,"[75, 0, 179]",179,l,0.2625188061501831,colour,0.06
163,23,1,2,11,14,514,835.7199762904784,836.7289733209182,"[82, 0, 172]",172,l,0.4858719368930906,colour,0.06
163,23,1,2,11,15,515,837.2357053398155,838.0727729947539,"[90, 0, 164]",164,l,0.3137928997166455,colour,0.06
163,23,1,2,11,16,516,838.5795668476494,839.7607539799064,"[89, 0, 165]",165,l,0.6702937308000401,colour,0.06
163,23,1,2,11,17,517,840.2703728938941,840.9607740660431,"[70, 0, 184]",184,l,0.16721266927197576,colour,0.06
163,23,1,2,11,18,518,841.4735973156057,842.6171465030639,"[83, 0, 171]",171,l,0.6201846352778375,colour,0.06
163,23,1,2,11,19,519,843.1299689649604,843.9368049593177,"[77, 0, 177]",177,l,0.2834194543538615,colour,0.06
163,23,1,2,11,20,520,844.4582077619852,845.9368250455009,"[93, 0, 161]",161,l,0.9550798326963559,colour,0.06
163,23,1,2,11,21,521,846.4583786913427,847.2887993982295,"[73, 0, 181]",181,l,0.3069758099736646,colour,0.06
163,23,1,2,11,22,522,847.8022177498788,850.3527785873739,"[71, 0, 183]",183,l,2.0272640268085524,colour,0.06
163,23,1,2,11,23,523,850.8649716824293,853.9047738140216,"[58, 0, 196]",196,l,2.5148621931439266,colour,0.06
163,23,1,2,11,24,524,854.4070340992184,855.1687884492567,"[78, 0, 176]",176,l,0.23841815465129912,colour,0.06
163,23,1,2,11,25,525,855.6883417485515,856.7848050065804,"[64, 0, 190]",190,a,0.5731093396898359,colour,0.06
163,23,1,2,11,26,526,857.2997656613588,858.1288067237474,"[96, 0, 158]",158,l,0.3056678455322981,colour,0.06
163,23,1,2,11,27,527,858.6436248060782,859.2487680480117,"[60, 0, 194]",194,a,0.0817771143047139,colour,0.06
163,23,1,2,11,28,528,859.7649366301484,860.4567398958607,"[56, 0, 198]",198,a,0.16854308277834207,colour,0.06
163,23,1,2,11,29,529,860.9681472671218,861.7207998236408,"[67, 0, 187]",187,a,0.22938528435770422,colour,0.06
163,23,1,2,11,30,530,862.2337877009995,863.0087843532674,"[50, 0, 204]",204,a,0.2515635706949979,colour,0.06
163,23,1,2,11,31,531,863.5058864305029,864.2008554347558,"[5, 0, 249]",249,a,0.17156309820711613,colour,0.06
163,23,1,2,11,32,532,864.709134482895,865.4088111348683,"[88, 0, 166]",166,l,0.17638889979571104,colour,0.06
163,23,1,2,11,33,533,865.9279040275142,867.3528093073983,"[99, 0, 155]",155,l,0.9015938969096169,colour,0.06
163,23,1,2,11,34,534,867.865642796969,868.5848617205629,"[52, 0, 202]",202,a,0.19589611911214888,colour,0.06
163,23,1,2,11,35,535,869.1000838893233,869.8727974132635,"[59, 0, 195]",195,a,0.249411593307741,colour,0.06
163,23,1,2,11,36,536,870.3814498279244,871.2327782723587,"[72, 0, 182]",182,a,0.3279166306601837,colour,0.06
163,23,1,2,11,37,537,871.7408828464104,872.4407847786788,"[86, 0, 168]",168,l,0.17654880159534514,colour,0.06
163,23,1,2,11,38,538,872.9596838988364,873.6328109615715,"[76, 0, 178]",178,l,0.14965538424439728,colour,0.06
163,23,1,2,11,39,539,874.1473285389366,874.728805542225,"[74, 0, 180]",180,l,0.05817349720746279,colour,0.06
163,23,1,2,11,40,540,875.2415484470548,876.2808165226597,"[66, 0, 188]",188,a,0.5159169140970334,colour,0.06
163,23,1,2,11,41,541,876.7885150410002,882.5367951132357,"[91, 0, 163]",163,l,5.225078572402708,colour,0.06
163,23,1,2,11,42,542,883.0546363615431,883.976838278817,"[61, 0, 193]",193,a,0.3988795066252351,colour,0.06
163,23,1,2,11,43,543,884.4923132971162,885.5687967201229,"[97, 0, 157]",157,l,0.5531558924121782,colour,0.06
163,23,1,2,11,44,544,886.0861566879321,886.8488578450633,"[94, 0, 160]",160,l,0.23947838961612433,colour,0.06
163,23,1,2,11,45,545,887.3679578269366,889.2327916631475,"[80, 0, 174]",174,l,1.3414696777472273,colour,0.06
163,23,1,2,11,46,546,889.7430816916749,891.104798232438,"[98, 0, 156]",156,l,0.8381649113725871,colour,0.06
163,23,1,2,11,47,547,891.618401692016,892.5368293778738,"[40, 0, 214]",214,a,0.395126149058342,colour,0.06
163,23,1,2,11,48,548,893.0560223074863,893.6808066765079,"[63, 0, 191]",191,a,0.10145644447766244,colour,0.06
163,23,1,2,11,49,549,894.1966920829145,894.792926122318,"[57, 0, 197]",197,a,0.07294589339289814,colour,0.06
163,23,1,2,11,50,550,895.3061310091289,896.3368266209727,"[62, 0, 192]",192,a,0.5073149119270965,colour,0.06
163,23,1,2,12,1,551,903.9810819752747,905.040925775771,"[74, 0, 180]",180,l,0.5356226320145652,colour,0.06
163,23,1,2,12,2,552,905.5601257946109,906.120853780536,"[54, 0, 200]",200,a,0.037572960020042956,colour,0.06
163,23,1,2,12,3,553,906.6383385978406,907.2808263688348,"[83, 0, 171]",171,l,0.11908737872727215,colour,0.06
163,23,1,2,12,4,554,907.794737422606,908.3768469433999,"[56, 0, 198]",198,a,0.058789867092855275,colour,0.06
163,23,1,2,12,5,555,908.8914881885285,909.8728096225532,"[84, 0, 170]",170,l,0.4548529771855101,colour,0.06
163,23,1,2,12,6,556,910.3791678810958,911.048838152783,"[68, 0, 186]",186,a,0.1463998487452045,colour,0.06
163,23,1,2,12,7,557,911.5666853088187,912.176864666515,"[72, 0, 182]",182,a,0.08703181496821344,colour,0.06
163,23,1,2,12,8,558,912.6918942444026,913.2488546943059,"[67, 0, 187]",187,a,0.03362346696667373,colour,0.06
163,23,1,2,12,9,559,913.770044032135,914.7128437296487,"[97, 0, 157]",157,l,0.41968799475580454,colour,0.06
163,23,1,2,12,10,560,915.2233621892519,915.7848743236391,"[70, 0, 184]",184,a,0.03820390230976045,colour,0.06
163,23,1,2,12,11,561,916.3014568383805,917.0728198625147,"[61, 0, 193]",193,a,0.2482591982698068,colour,0.06
163,23,1,2,12,12,562,917.5807826519012,918.6888761983719,"[57, 0, 197]",197,a,0.5846774003002793,colour,0.06
163,23,1,2,12,13,563,919.2059167566476,920.0648208392086,"[13, 0, 241]",241,a,0.3355741888517514,colour,0.06
163,23,1,2,12,14,564,920.5810437721666,921.4968252030667,"[92, 0, 162]",162,l,0.392455869470723,colour,0.06
163,23,1,2,12,15,565,921.9976353454404,922.5448449426331,"[58, 0, 196]",196,a,0.023860798799432814,colour,0.06
163,23,1,2,12,16,566,923.060086410027,923.7368451317307,"[99, 0, 155]",155,l,0.15313856315333396,colour,0.06
163,23,1,2,12,17,567,924.2477787055541,924.896883098525,"[66, 0, 188]",188,a,0.12570124375633895,colour,0.06
163,23,1,2,12,18,568,925.4041330256732,926.0888616259908,"[52, 0, 202]",202,a,0.16138374048750848,colour,0.06
163,23,1,2,12,19,569,926.6073389365338,927.3048309216974,"[91, 0, 163]",163,l,0.17409198672976345,colour,0.06
163,23,1,2,12,20,570,927.8261380196782,928.384869991336,"[44, 0, 210]",210,a,0.036147235659882426,colour,0.06
163,23,1,2,12,21,571,928.9043846935965,929.6008778839605,"[77, 0, 177]",177,l,0.17303411499597132,colour,0.06
163,23,1,2,12,22,572,930.1077008814318,930.7928867376177,"[94, 0, 160]",160,a,0.16187053476460278,colour,0.06
163,23,1,2,12,23,573,931.3108370815171,931.872863579425,"[98, 0, 156]",156,l,0.038616259465925395,colour,0.06
163,23,1,2,12,24,574,932.3890451585175,933.3289426008705,"[59, 0, 195]",195,a,0.41645057627465576,colour,0.06
163,23,1,2,12,25,575,933.8423325956101,934.4888832875295,"[60, 0, 194]",194,a,0.12322709977161139,colour,0.06
163,23,1,2,12,26,576,934.998682583333,935.7369983380195,"[47, 0, 207]",207,a,0.21492639009375125,colour,0.06
163,23,1,2,12,27,577,936.24877395574,936.992919426877,"[88, 0, 166]",166,l,0.2207348388619721,colour,0.06
163,23,1,2,12,28,578,937.5144766173325,938.1048592786537,"[76, 0, 178]",178,l,0.06703031831420958,colour,0.06
163,23,1,2,12,29,579,938.6239446882391,939.6969213016564,"[90, 0, 164]",164,l,0.549530141055584,colour,0.06
163,23,1,2,12,30,580,940.2177644482581,940.9208628390916,"[50, 0, 204]",204,a,0.18045260850340128,colour,0.06
163,23,1,2,12,31,581,941.4366675069323,942.2888391767628,"[62, 0, 192]",192,a,0.3290891117649153,colour,0.06
163,23,1,2,12,32,582,942.7979334872216,943.5768481249688,"[95, 0, 159]",159,l,0.2555717470822856,colour,0.06
163,23,1,2,12,33,583,944.0949926350731,944.8009574409807,"[87, 0, 167]",167,l,0.18267705373000354,colour,0.06
163,23,1,2,12,34,584,945.3137680874206,946.5928745283745,"[64, 0, 190]",190,a,0.7557332240976393,colour,0.06
163,23,1,2,12,35,585,947.1108611060772,947.744918985758,"[53, 0, 201]",201,a,0.11072247207630426,colour,0.06
163,23,1,2,12,36,586,948.2515300938394,949.0168609643588,"[73, 0, 181]",181,a,0.24210731533821672,colour,0.06
163,23,1,2,12,37,587,949.5329669248313,950.144873299636,"[79, 0, 175]",175,l,0.08714327355846763,colour,0.06
163,23,1,2,12,38,588,950.6614065836184,951.3129973297473,"[81, 0, 173]",173,l,0.1282923601102084,colour,0.06
163,23,1,2,12,39,589,951.8333442298463,952.5128972927341,"[78, 0, 176]",176,l,0.15620505227707326,colour,0.06
163,23,1,2,12,40,590,953.0209093128797,953.6008763086284,"[75, 0, 179]",179,l,0.05708136083558202,colour,0.06
163,23,1,2,12,41,591,954.114744039136,954.8489318882348,"[55, 0, 199]",199,a,0.21078785066492856,colour,0.06
163,23,1,2,12,42,592,955.364893306978,956.0088631226681,"[80, 0, 174]",174,l,0.12097705458290875,colour,0.06
163,23,1,2,12,43,593,956.5219116524095,957.3048553401604,"[85, 0, 169]",169,l,0.2596464833477512,colour,0.06
163,23,1,2,12,44,594,957.818681716919,958.5369337471202,"[51, 0, 203]",203,a,0.1952277614036575,colour,0.06
163,23,1,2,12,45,595,959.0533016156405,959.8728738194332,"[71, 0, 183]",183,l,0.29662040271796286,colour,0.06
163,23,1,2,12,46,596,960.3815439572791,960.9289240901126,"[65, 0, 189]",189,l,0.02400849142577499,colour,0.06
163,23,1,2,12,47,597,961.4441084496211,962.0489527620375,"[82, 0, 172]",172,l,0.08149275707546622,colour,0.06
163,23,1,2,12,48,598,962.5582881066948,963.5048738509649,"[69, 0, 185]",185,a,0.42320819513406605,colour,0.06
163,23,1,2,12,49,599,964.0115326144733,964.8089300765423,"[86, 0, 168]",168,l,0.2740262144943699,colour,0.06
163,23,1,2,12,50,600,965.324134128401,965.9289106993238,"[93, 0, 161]",161,l,0.08135412319097668,colour,0.06
163,23,1,2,13,1,601,980.71521035349,981.3928670453606,"[56, 0, 198]",198,a,0.1534343418898061,colour,0.06
163,23,1,2,13,2,602,981.9036355974386,982.8729195056949,"[83, 0, 171]",171,l,0.44610564538743347,colour,0.06
163,23,1,2,13,3,603,983.3881243452197,984.0089245627169,"[86, 0, 168]",168,l,0.09748174529522657,colour,0.06
163,23,1,2,13,4,604,984.5288386254106,985.3208750482881,"[51, 0, 203]",203,a,0.2686490275664255,colour,0.06
163,23,1,2,13,5,605,985.842116767657,986.9449016565923,"[64, 0, 190]",190,a,0.579442392103374,colour,0.06
163,23,1,2,13,6,606,987.4515793246683,988.1609221523395,"[81, 0, 173]",173,l,0.18597945699002594,colour,0.06
163,23,1,2,13,7,607,988.6703551708488,989.2969532031566,"[97, 0, 157]",157,l,0.10346663719974458,colour,0.06
163,23,1,2,13,8,608,989.8111076540081,990.6409171110718,"[67, 0, 187]",187,a,0.3065224925521761,colour,0.06
163,23,1,2,13,9,609,991.1549423802644,992.1128996558255,"[88, 0, 166]",166,l,0.4345962678780779,colour,0.06
163,23,1,2,13,10,610,992.611301820376,993.5048754264135,"[57, 0, 197]",197,a,0.36901845573447645,colour,0.06
163,23,1,2,13,11,611,994.0188294093823,994.7849058313295,"[69, 0, 185]",185,a,0.24140154232736677,colour,0.06
163,23,1,2,13,12,612,995.2922534324462,995.9929718085332,"[98, 0, 156]",156,l,0.17737391008995473,colour,0.06
163,23,1,2,13,13,613,996.5110761463875,997.184983812971,"[66, 0, 188]",188,a,0.150624246802181,colour,0.06
163,23,1,2,13,14,614,997.6985975125572,998.3849109513685,"[92, 0, 162]",162,l,0.1628878404153511,colour,0.06
163,23,1,2,13,15,615,998.9018707710784,999.6009397178423,"[70, 0, 184]",184,a,0.17569927452132106,colour,0.06
163,23,1,2,13,16,616,1000.1206867896253,1000.8649295408977,"[85, 0, 169]",169,l,0.22104755300097167,colour,0.06
163,23,1,2,13,17,617,1001.3864292297512,1002.0569754161406,"[79, 0, 175]",175,l,0.14768654538784176,colour,0.06
163,23,1,2,13,18,618,1002.5739903744543,1003.2409021449275,"[2, 0, 252]",252,a,0.14345899666659534,colour,0.06
163,23,1,2,13,19,619,1003.7616165038198,1004.6649047285318,"[74, 0, 180]",180,a,0.3798567185876891,colour,0.06
163,23,1,2,13,20,620,1005.1836124393158,1005.8249202461448,"[68, 0, 186]",186,a,0.1179066268960014,colour,0.06
163,23,1,2,13,21,621,1006.3399974794593,1007.0729057210265,"[73, 0, 181]",181,a,0.20959016331471503,colour,0.06
163,23,1,2,13,22,622,1007.5907064032508,1008.2249556923052,"[53, 0, 201]",201,a,0.11144872510340065,colour,0.06
163,23,1,2,13,23,623,1008.7464069380658,1009.3929930762388,"[62, 0, 192]",192,a,0.12320228747557849,colour,0.06
163,23,1,2,13,24,624,1009.9027230549837,1010.5449323765934,"[72, 0, 182]",182,a,0.11892826482653618,colour,0.06
163,23,1,2,13,25,625,1011.060957992333,1011.6489236174384,"[63, 0, 191]",191,a,0.06473261758219451,colour,0.06
163,23,1,2,13,26,626,1012.1707194788614,1012.8329555032542,"[77, 0, 177]",177,l,0.1394610604038462,colour,0.06
163,23,1,2,13,27,627,1013.3423644971335,1013.9529900830239,"[78, 0, 176]",176,l,0.08719211048446596,colour,0.06
163,23,1,2,13,28,628,1014.4674383433303,1015.1129583389265,"[84, 0, 170]",170,l,0.12211093865334988,colour,0.06
163,23,1,2,13,29,629,1015.6237926634494,1016.1929430577438,"[55, 0, 199]",199,a,0.04573227895889431,colour,0.06
163,23,1,2,13,30,630,1016.7020239774138,1017.4089773381129,"[82, 0, 172]",172,l,0.18366797163616866,colour,0.06
163,23,1,2,13,31,631,1017.9226170314942,1018.4569608437596,"[80, 0, 174]",174,l,0.01097492768894881,colour,0.06
163,23,1,2,13,32,632,1018.9702027522726,1019.8169314628467,"[91, 0, 163]",163,l,0.33301261090673506,colour,0.06
163,23,1,2,13,33,633,1020.3354694257723,1021.3529451844515,"[20, 0, 234]",234,a,0.49489496112801135,colour,0.06
163,23,1,2,13,34,634,1021.8668597828364,1022.5449394658208,"[21, 0, 233]",233,a,0.15473482315428555,colour,0.06
163,23,1,2,13,35,635,1023.0564315140946,1024.3289374808082,"[50, 0, 204]",204,a,0.7491524422075599,colour,0.06
163,23,1,2,13,36,636,1024.8378029664746,1025.592938725371,"[60, 0, 194]",194,a,0.23171961272601038,colour,0.06
163,23,1,2,13,37,637,1026.0929686577292,1026.8809646089794,"[87, 0, 167]",167,l,0.26474994677118957,colour,0.06
163,23,1,2,13,38,638,1027.3917831795989,1028.1529495167779,"[89, 0, 165]",165,l,0.2378403819166124,colour,0.06
163,23,1,2,13,39,639,1028.6731077643344,1029.4489933282603,"[75, 0, 179]",179,l,0.2525769378989935,colour,0.06
163,23,1,2,13,40,640,1029.97011019825,1030.9450123274,"[76, 0, 178]",178,l,0.4517703402088955,colour,0.06
163,23,1,2,13,41,641,1031.454515844467,1032.2809484612662,"[61, 0, 193]",193,a,0.3030625507235527,colour,0.06
163,23,1,2,13,42,642,1032.7984301276738,1033.6169405212859,"[93, 0, 161]",161,l,0.2951797121204436,colour,0.06
163,23,1,2,13,43,643,1034.1265799154062,1034.760993832373,"[94, 0, 160]",160,l,0.11133726651314646,colour,0.06
163,23,1,2,13,44,644,1035.2673260971205,1035.9690149110975,"[90, 0, 164]",164,l,0.17820768314413726,colour,0.06
163,23,1,2,13,45,645,1036.4861960726557,1037.4329704694683,"[71, 0, 183]",183,a,0.4235307555645704,colour,0.06
163,23,1,2,13,46,646,1037.9395583405858,1038.744928044267,"[95, 0, 159]",159,l,0.28217844397295266,colour,0.06
163,23,1,2,13,47,647,1039.2521354359342,1040.0649823163403,"[65, 0, 189]",189,a,0.28953707276377827,colour,0.06
163,23,1,2,13,48,648,1040.5803482391639,1041.3529696029145,"[52, 0, 202]",202,a,0.2492973777698353,colour,0.06
163,23,1,2,13,49,649,1041.8617551377974,1042.91295794514,"[54, 0, 200]",200,a,0.5279103290522471,colour,0.06
163,23,1,2,13,50,650,1043.4243243562523,1044.2729423487326,"[99, 0, 155]",155,l,0.3252451694570482,colour,0.06
163,23,1,2,14,1,651,1048.7521153498674,1050.6730018196395,"[81, 0, 173]",173,l,1.396897276979871,colour,0.06
163,23,1,2,14,2,652,1051.190613849205,1051.985005474533,"[95, 0, 159]",159,l,0.27132521488238126,colour,0.06
163,23,1,2,14,3,653,1052.5034331603674,1053.1210006853798,"[56, 0, 198]",198,a,0.09462635777890682,colour,0.06
163,23,1,2,14,4,654,1053.628149000113,1054.3289756840095,"[87, 0, 167]",167,l,0.17729002074338496,colour,0.06
163,23,1,2,14,5,655,1054.8471513079712,1055.4889971092343,"[54, 0, 200]",200,a,0.1188506770413369,colour,0.06
163,23,1,2,14,6,656,1056.0035710065858,1056.8009672871558,"[58, 0, 196]",196,a,0.2743149040034041,colour,0.06
163,23,1,2,14,7,657,1057.3160516096978,1058.1050250880653,"[52, 0, 202]",202,a,0.26558568922337145,colour,0.06
163,23,1,2,14,8,658,1058.606970296125,1059.3689566217363,"[61, 0, 193]",193,a,0.23868557647801936,colour,0.06
163,23,1,2,14,9,659,1059.8883315084968,1060.5930092239287,"[55, 0, 199]",199,a,0.18130410462617874,colour,0.06
163,23,1,2,14,10,660,1061.1077839831123,1061.8569616315654,"[57, 0, 197]",197,a,0.2257095145760104,colour,0.06
163,23,1,2,14,11,661,1062.3735248477897,1062.9690066402545,"[71, 0, 183]",183,a,0.07275133312214166,colour,0.06
163,23,1,2,14,12,662,1063.4830141863786,1064.177003694349,"[99, 0, 155]",155,l,0.17066434037405998,colour,0.06
163,23,1,2,14,13,663,1064.686266965,1065.280986664351,"[59, 0, 195]",195,a,0.07150008261669427,colour,0.06
163,23,1,2,14,14,664,1065.7956779281376,1066.384961757576,"[66, 0, 188]",188,a,0.06587319716345519,colour,0.06
163,23,1,2,14,15,665,1066.9056410640478,1067.5369821903296,"[89, 0, 165]",165,l,0.10801083873957396,colour,0.06
163,23,1,2,14,16,666,1068.047109560226,1068.6169610013021,"[73, 0, 181]",181,l,0.04532858612947166,colour,0.06
163,23,1,2,14,17,667,1069.1264586107573,1070.0169988105772,"[85, 0, 169]",169,l,0.3671575307380408,colour,0.06
163,23,1,2,14,18,668,1070.5329027278349,1071.0970272463746,"[82, 0, 172]",172,l,0.04079423099756241,colour,0.06
163,23,1,2,14,19,669,1071.611071813968,1072.1770820698002,"[86, 0, 168]",168,l,0.04268863284960389,colour,0.06
163,23,1,2,14,20,670,1072.6893216387834,1073.2650555717992,"[75, 0, 179]",179,l,0.052406796254217625,colour,0.06
163,23,1,2,14,21,671,1073.7831213126192,1074.7929765346926,"[92, 0, 162]",162,l,0.48660134070087224,colour,0.06
163,23,1,2,14,22,672,1075.2988802943146,1076.360980047728,"[11, 0, 243]",243,a,0.538755287299864,colour,0.06
163,23,1,2,14,23,673,1076.8770336266607,1077.5450237490004,"[91, 0, 163]",163,l,0.14448063459713012,colour,0.06
163,23,1,2,14,24,674,1078.0647487653187,1078.633009854122,"[76, 0, 178]",178,l,0.044943798100575805,colour,0.06
163,23,1,2,14,25,675,1079.1429662946612,1080.056980930036,"[79, 0, 175]",175,l,0.3905145999742672,colour,0.06
163,23,1,2,14,26,676,1080.5649086670019,1081.6329984324984,"[51, 0, 203]",203,a,0.5446980377892032,colour,0.06
163,23,1,2,14,27,677,1082.1431580978679,1083.0410293573514,"[41, 0, 213]",213,a,0.3736398509936407,colour,0.06
163,23,1,2,14,28,678,1083.5504300805042,1084.3210199838504,"[94, 0, 160]",160,l,0.24726867431309074,colour,0.06
163,23,1,2,14,29,679,1084.8317810528679,1085.4490102636628,"[60, 0, 194]",194,a,0.09390364936552942,colour,0.06
163,23,1,2,14,30,680,1085.9568812868092,1086.6410021819174,"[83, 0, 171]",171,l,0.1607831243891269,colour,0.06
163,23,1,2,14,31,681,1087.1600639607059,1087.8809705167077,"[96, 0, 158]",158,l,0.1975010436726734,colour,0.06
163,23,1,2,14,32,682,1088.3945306531386,1088.9930143438978,"[88, 0, 166]",166,l,0.07503209845162928,colour,0.06
163,23,1,2,14,33,683,1089.503992816317,1090.0890329492977,"[98, 0, 156]",156,l,0.06191819021478295,colour,0.06
163,23,1,2,14,34,684,1090.5978338440182,1091.225026978529,"[63, 0, 191]",191,a,0.1008101423503831,colour,0.06
163,23,1,2,14,35,685,1091.7415834994754,1092.4489905713126,"[97, 0, 157]",157,l,0.18398738116957247,colour,0.06
163,23,1,2,14,36,686,1092.9603739179438,1093.7210038361372,"[72, 0, 182]",182,a,0.23719211050774902,colour,0.06
163,23,1,2,14,37,687,1094.2418670689221,1094.8170251983684,"[93, 0, 161]",161,l,0.051756555563770235,colour,0.06
163,23,1,2,14,38,688,1095.3356088474393,1096.105019968003,"[53, 0, 201]",201,a,0.24601899913977832,colour,0.06
163,23,1,2,14,39,689,1096.6069163391367,1097.449078005273,"[70, 0, 184]",184,l,0.31870967999566346,colour,0.06
163,23,1,2,14,40,690,1097.9664387608645,1098.6010200625751,"[50, 0, 204]",204,a,0.1112325033172965,colour,0.06
163,23,1,2,14,41,691,1099.1087217316963,1099.7610332170734,"[74, 0, 180]",180,l,0.12886540684849024,colour,0.06
163,23,1,2,14,42,692,1100.2806310210144,1101.4170043244958,"[67, 0, 187]",187,a,0.6129315573489293,colour,0.06
163,23,1,2,14,43,693,1101.9382803085027,1102.6250407631742,"[84, 0, 170]",170,l,0.16336045623756945,colour,0.06
163,23,1,2,14,44,694,1103.141498822486,1104.0250175262336,"[62, 0, 192]",192,a,0.36023843474686146,colour,0.06
163,23,1,2,14,45,695,1104.5322363395244,1105.241033295868,"[64, 0, 190]",190,a,0.18579474301077425,colour,0.06
163,23,1,2,14,46,696,1105.7386178349843,1106.4570025915746,"[78, 0, 176]",176,l,0.19402298494242132,colour,0.06
163,23,1,2,14,47,697,1106.9616263499483,1107.5690176680218,"[77, 0, 177]",177,l,0.08426110458094627,colour,0.06
163,23,1,2,14,48,698,1108.0867829039926,1108.7290304285707,"[65, 0, 189]",189,a,0.11904287408106029,colour,0.06
163,23,1,2,14,49,699,1109.2430781470612,1109.9210046237567,"[48, 0, 206]",206,a,0.15451269363984466,colour,0.06
163,23,1,2,14,50,700,1110.4306700117886,1111.177028506645,"[80, 0, 174]",174,l,0.22374579566530883,colour,0.06
163,23,1,2,15,1,701,1116.008449977613,1116.833069718792,"[63, 0, 191]",191,a,0.3004816743778065,colour,0.06
163,23,1,2,15,2,702,1117.3532059108838,1118.0330319094937,"[85, 0, 169]",169,l,0.1690728064859286,colour,0.06
163,23,1,2,15,3,703,1118.5439158586087,1119.5850342252525,"[72, 0, 182]",182,l,0.5176837096223608,colour,0.06
163,23,1,2,15,4,704,1120.1065780250356,1121.3610174631467,"[68, 0, 186]",186,a,0.7311489291023463,colour,0.06
163,23,1,2,15,5,705,1121.8725796161452,1122.577013540431,"[58, 0, 196]",196,a,0.1809965104330331,colour,0.06
163,23,1,2,15,6,706,1123.091457468574,1123.7050294203218,"[22, 0, 232]",232,a,0.09010775631759316,colour,0.06
163,23,1,2,15,7,707,1124.2165301332716,1124.9131005175877,"[90, 0, 164]",164,l,0.173236945993267,colour,0.06
163,23,1,2,15,8,708,1125.419759674929,1126.0970682064071,"[50, 0, 204]",204,a,0.15408340096473694,colour,0.06
163,23,1,2,15,9,709,1126.6073625673307,1127.2650098855374,"[88, 0, 166]",166,l,0.13423077831976116,colour,0.06
163,23,1,2,15,10,710,1127.779427819769,1128.4170464660274,"[78, 0, 176]",176,l,0.11434507253579795,colour,0.06
163,23,1,2,15,11,711,1128.9357415736886,1129.4890305862064,"[79, 0, 175]",175,l,0.029904767987318337,colour,0.06
163,23,1,2,15,12,712,1129.9982757398393,1130.7051507250872,"[89, 0, 165]",165,l,0.18351909762714058,colour,0.06
163,23,1,2,15,13,713,1131.2170992414467,1132.585051160655,"[76, 0, 178]",178,l,0.8446043023141101,colour,0.06
163,23,1,2,15,14,714,1133.0922191677382,1134.0970957756508,"[62, 0, 192]",192,a,0.48144313250668347,colour,0.06
163,23,1,2,15,15,715,1134.6079919340555,1135.2970768710366,"[97, 0, 157]",157,l,0.1657302308594808,colour,0.06
163,23,1,2,15,16,716,1135.8113065465586,1136.505064866622,"[8, 0, 246]",246,a,0.17050325719173998,colour,0.06
163,23,1,2,15,17,717,1137.0145152143668,1137.6490433467552,"[51, 0, 203]",203,a,0.11125849722884595,colour,0.06
163,23,1,2,15,18,718,1138.1552728175884,1138.961051334045,"[20, 0, 234]",234,a,0.2824958843411878,colour,0.06
163,23,1,2,15,19,719,1139.4678010760108,1140.2890770600643,"[70, 0, 184]",184,a,0.2979764165356755,colour,0.06
163,23,1,2,15,20,720,1140.7960442054318,1141.6731124904472,"[94, 0, 160]",160,l,0.3538061329163611,colour,0.06
163,23,1,2,15,21,721,1142.1867324915947,1143.0890400385251,"[61, 0, 193]",193,a,0.37910525943152606,colour,0.06
163,23,1,2,15,22,722,1143.608768599457,1144.2810607075226,"[96, 0, 158]",158,l,0.1487326017813757,colour,0.06
163,23,1,2,15,23,723,1144.7964632580988,1145.5690511449939,"[75, 0, 179]",179,l,0.24924302694853395,colour,0.06
163,23,1,2,15,24,724,1146.0778595228912,1146.8490850945236,"[66, 0, 188]",188,l,0.2479315180098638,colour,0.06
163,23,1,2,15,25,725,1147.359162839828,1147.9850909392117,"[91, 0, 163]",163,l,0.10255960864014924,colour,0.06
163,23,1,2,15,26,726,1148.4998046521796,1149.121103085461,"[73, 0, 181]",181,a,0.09795554261654615,colour,0.06
163,23,1,2,15,27,727,1149.6405567415059,1150.3450855829287,"[54, 0, 200]",200,a,0.18114774767309427,colour,0.06
163,23,1,2,15,28,728,1150.859474766301,1151.5371105843224,"[65, 0, 189]",189,a,0.15439257049001753,colour,0.06
163,23,1,2,15,29,729,1152.0470528464066,1152.6890479153953,"[59, 0, 195]",195,a,0.11871755681931973,colour,0.06
163,23,1,2,15,30,730,1153.203404409578,1154.1370940427296,"[81, 0, 173]",173,l,0.4104664718033746,colour,0.06
163,23,1,2,15,31,731,1154.6566091388231,1155.6010661426699,"[92, 0, 162]",162,l,0.4210184083785862,colour,0.06
163,23,1,2,15,32,732,1156.109811898903,1156.6570640315767,"[57, 0, 197]",197,a,0.023873008089140058,colour,0.06
163,23,1,2,15,33,733,1157.172399234376,1158.22507384629,"[99, 0, 155]",155,l,0.5299508479656652,colour,0.06
163,23,1,2,15,34,734,1158.7350822745357,1159.8170689153485,"[84, 0, 170]",170,l,0.5587910487083718,colour,0.06
163,23,1,2,15,35,735,1160.3289303915808,1161.3051046450855,"[77, 0, 177]",177,l,0.45278173813130707,colour,0.06
163,23,1,2,15,36,736,1161.8134360747645,1162.5211101747118,"[56, 0, 198]",198,a,0.18483690824359655,colour,0.06
163,23,1,2,15,37,737,1163.032311564195,1163.6890766662546,"[83, 0, 171]",171,l,0.13344938680529594,colour,0.06
163,23,1,2,15,38,738,1164.2072006963426,1164.8491079376545,"[87, 0, 167]",167,l,0.11856868292670697,colour,0.06
163,23,1,2,15,39,739,1165.36349318258,1166.2651075595059,"[74, 0, 180]",180,a,0.37822580011561513,colour,0.06
163,23,1,2,15,40,740,1166.7856242074631,1167.577057651244,"[71, 0, 183]",183,a,0.2681689285673201,colour,0.06
163,23,1,2,15,41,741,1168.0980992966797,1168.90505935275,"[80, 0, 174]",174,l,0.28356399619951844,colour,0.06
163,23,1,2,15,42,742,1169.426346364431,1170.1611052909866,"[93, 0, 161]",161,l,0.2113581404555589,colour,0.06
163,23,1,2,15,43,743,1170.6764920876594,1171.5450859767152,"[69, 0, 185]",185,a,0.34524430299643427,colour,0.06
163,23,1,2,15,44,744,1172.0515360014979,1172.9531295046909,"[52, 0, 202]",202,a,0.3782482494134456,colour,0.06
163,23,1,2,15,45,745,1173.4735925893765,1174.121094420785,"[53, 0, 201]",201,a,0.12418808531947434,colour,0.06
163,23,1,2,15,46,746,1174.6298307247926,1175.521112143877,"[60, 0, 194]",194,a,0.36787433142308146,colour,0.06
163,23,1,2,15,47,747,1176.0378868557746,1177.1451001552632,"[98, 0, 156]",156,l,0.5839680826757103,colour,0.06
163,23,1,2,15,48,748,1177.662996935891,1178.9050865281606,"[86, 0, 168]",168,l,0.7190381480613723,colour,0.06
163,23,1,2,15,49,749,1179.4007936008275,1180.577089946717,"[55, 0, 199]",199,a,0.6529215537011623,colour,0.06
163,23,1,2,15,50,750,1181.0883425362408,1182.1771486297948,"[82, 0, 172]",172,l,0.5653517442988232,colour,0.06
163,23,1,2,16,1,751,1186.7026840642793,1187.8731164289638,"[89, 0, 165]",165,l,0.6463486487045884,colour,0.06
163,23,1,2,16,2,752,1188.3911419974174,1189.1050837711664,"[57, 0, 197]",197,a,0.19056619377806783,colour,0.06
163,23,1,2,16,3,753,1189.626592518529,1190.2331059526186,"[94, 0, 160]",160,l,0.08318354038055986,colour,0.06
163,23,1,2,16,4,754,1190.7516856632428,1191.3371452427236,"[83, 0, 171]",171,l,0.062075728783383965,colour,0.06
163,23,1,2,16,5,755,1191.8455983711174,1192.3851236284245,"[71, 0, 183]",183,a,0.01629894517827779,colour,0.06
163,23,1,2,16,6,756,1192.892528731143,1193.6011165550444,"[70, 0, 184]",184,a,0.1851693147327751,colour,0.06
163,23,1,2,16,7,757,1194.1112746449653,1194.825105353957,"[53, 0, 201]",201,a,0.19045788596849889,colour,0.06
163,23,1,2,16,8,758,1195.3457606359152,1196.0970934125362,"[63, 0, 191]",191,a,0.22796389216091484,colour,0.06
163,23,1,2,16,9,759,1196.6069576930022,1197.3051747496938,"[80, 0, 174]",174,l,0.1748095751972869,colour,0.06
163,23,1,2,16,10,760,1197.825830031652,1198.569085803465,"[51, 0, 203]",203,a,0.22012240753974766,colour,0.06
163,23,1,2,16,11,761,1199.0759473978542,1199.8092644521967,"[59, 0, 195]",195,a,0.20995840977411717,colour,0.06
163,23,1,2,16,12,762,1200.3259993856773,1203.2651465503732,"[67, 0, 187]",187,a,2.4156869078287855,colour,0.06
163,23,1,2,16,13,763,1203.7794215182075,1204.6251305601327,"[95, 0, 159]",159,l,0.32220428029540926,colour,0.06
163,23,1,2,16,14,764,1205.1389297614805,1205.8891664631665,"[73, 0, 181]",181,l,0.2277122241212055,colour,0.06
163,23,1,2,16,15,765,1206.4044792167842,1206.977156506735,"[77, 0, 177]",177,a,0.04946239944547415,colour,0.06
163,23,1,2,16,16,766,1207.4986305956263,1208.0811438091332,"[10, 0, 244]",244,a,0.05921876593492925,colour,0.06
163,23,1,2,16,17,767,1208.5924070326146,1209.193126984057,"[88, 0, 166]",166,l,0.07734122080728412,colour,0.06
163,23,1,2,16,18,768,1209.7018502911087,1210.5450863705482,"[60, 0, 194]",194,a,0.3199191826861352,colour,0.06
163,23,1,2,16,19,769,1211.0613640481606,1212.3930982332677,"[69, 0, 185]",185,a,0.808357817470096,colour,0.06
163,23,1,2,16,20,770,1212.905224374379,1213.7051018881612,"[61, 0, 193]",193,a,0.27645979227963835,colour,0.06
163,23,1,2,16,21,771,1214.2178652730072,1215.145129693672,"[82, 0, 172]",172,l,0.4042003733338788,colour,0.06
163,23,1,2,16,22,772,1215.6554579254007,1216.4651233133627,"[15, 0, 239]",239,a,0.2861956786364317,colour,0.06
163,23,1,2,16,23,773,1216.9836935716448,1217.649156380794,"[87, 0, 167]",167,l,0.14209589385427535,colour,0.06
163,23,1,2,16,24,774,1218.155719045666,1218.8251309540356,"[50, 0, 204]",204,a,0.14618717168923467,colour,0.06
163,23,1,2,16,25,775,1219.3433794396697,1220.129130071844,"[66, 0, 188]",188,a,0.26254519389476627,colour,0.06
163,23,1,2,16,26,776,1220.6426307373913,1221.2092037998373,"[58, 0, 196]",196,a,0.04428725584875792,colour,0.06
163,23,1,2,16,27,777,1221.720504044788,1222.4731518751942,"[97, 0, 157]",157,a,0.2294242752250284,colour,0.06
163,23,1,2,16,28,778,1222.9862543619238,1223.6331284019398,"[81, 0, 173]",173,a,0.12357014021836221,colour,0.06
163,23,1,2,16,29,779,1224.1426492482424,1224.6811150583671,"[96, 0, 158]",158,l,0.015054390183649957,colour,0.06
163,23,1,2,16,30,780,1225.1895047774306,1225.7531590431463,"[84, 0, 170]",170,l,0.04020897496957332,colour,0.06
163,23,1,2,16,31,781,1226.2553381960606,1226.8651689996477,"[65, 0, 189]",189,a,0.0864906698698178,colour,0.06
163,23,1,2,16,32,782,1227.3805483131437,1228.0331315526273,"[72, 0, 182]",182,a,0.12924704409670085,colour,0.06
163,23,1,2,16,33,783,1228.5525410979753,1229.2171732846182,"[99, 0, 155]",155,l,0.14136491459794343,colour,0.06
163,23,1,2,16,34,784,1229.724382251734,1230.273164084414,"[85, 0, 169]",169,l,0.025418068165890872,colour,0.06
163,23,1,2,16,35,785,1230.786971162539,1231.897153277183,"[75, 0, 179]",179,l,0.5869128732010722,colour,0.06
163,23,1,2,16,36,786,1232.412140713539,1232.9611517648445,"[76, 0, 178]",178,l,0.025604751310311258,colour,0.06
163,23,1,2,16,37,787,1233.474705599714,1234.2331823589047,"[56, 0, 198]",198,a,0.2352744716918096,colour,0.06
163,23,1,2,16,38,788,1234.7403602120467,1235.5211570423562,"[86, 0, 168]",168,l,0.25738934881519526,colour,0.06
163,23,1,2,16,39,789,1236.037398486049,1237.049127629958,"[64, 0, 190]",190,a,0.4885934165213257,colour,0.06
163,23,1,2,16,40,790,1237.5688045970164,1238.193160854862,"[55, 0, 199]",199,a,0.10103896714281291,colour,0.06
163,23,1,2,16,41,791,1238.7094964279095,1239.3852504470851,"[98, 0, 156]",156,l,0.15316928317770362,colour,0.06
163,23,1,2,16,42,792,1239.897104440257,1240.5531814923743,"[24, 0, 230]",230,a,0.13276645680889487,colour,0.06
163,23,1,2,16,43,793,1241.0690306649776,1241.945145447622,"[74, 0, 180]",180,l,0.35276362125296146,colour,0.06
163,23,1,2,16,44,794,1242.4597729081288,1243.1371641474543,"[62, 0, 192]",192,a,0.15400738862808794,colour,0.06
163,23,1,2,16,45,795,1243.6473962805467,1244.2571542224614,"[79, 0, 175]",175,l,0.08710703963879496,colour,0.06
163,23,1,2,16,46,796,1244.772497302154,1245.401157515007,"[52, 0, 202]",202,a,0.10537836840376258,colour,0.06
163,23,1,2,16,47,797,1245.9131859822664,1246.4971985695884,"[92, 0, 162]",162,l,0.06062085973098874,colour,0.06
163,23,1,2,16,48,798,1247.0070100746816,1247.5611899680225,"[54, 0, 200]",200,a,0.030813765712082386,colour,0.06
163,23,1,2,16,49,799,1248.069556450122,1248.6251738832798,"[90, 0, 164]",164,l,0.03223673324100673,colour,0.06
163,23,1,2,16,50,800,1249.13215008704,1250.089184580138,"[68, 0, 186]",186,a,0.4335734484484419,colour,0.06
