id,age,condition,counterbalance,block,trialinblock,trial,tstart,tend,trialstim,trialintensity,response,RT,trialtype,colourfreq
033,75,0,2,Practice,1,NA,6.695277988910675e-06,4.442210987908766,"[14, 0, 240]",240,a,3.917902817716822,colour,0.5
033,75,0,2,Practice,2,NA,4.954075596295297,8.570197127759457,"[94, 0, 160]",160,l,3.091744044329971,colour,0.5
033,75,0,2,Practice,3,NA,9.080578118562698,10.130233424482867,"[13, 0, 241]",241,a,0.5265282797627151,colour,0.5
033,75,0,2,Practice,4,NA,10.642999152420089,13.466182420030236,"[68, 0, 186]",186,a,2.30015076440759,colour,0.5
033,75,0,2,Practice,5,NA,13.986676586326212,15.706201182678342,"[47, 0, 207]",207,a,1.196121484041214,colour,0.5
033,75,0,2,Practice,6,NA,16.222535548498854,17.890200877096504,"[77, 0, 177]",177,a,1.144569416064769,colour,0.5
033,75,0,2,Practice,7,NA,18.409756902372465,19.76215762970969,"[26, 0, 228]",228,a,0.8290216394234449,colour,0.5
033,75,0,2,Practice,8,NA,20.269171631662175,21.658164189662784,"[93, 0, 161]",161,l,0.8657166578341275,colour,0.5
033,75,0,2,Practice,9,NA,22.17533705336973,23.442431147908792,"[91, 0, 163]",163,l,0.7437673883978277,colour,0.5
033,75,0,2,Practice,10,NA,23.956606056308374,25.10646679252386,"[2, 0, 252]",252,a,0.6272748541086912,colour,0.5
033,75,0,2,1,1,1,4.597987683489919,6.959988798946142,"[18, 0, 236]",236,a,1.8374755422119051,colour,0.5
033,75,0,2,1,2,2,7.4689385537058115,8.78412753669545,"[15, 0, 239]",239,a,0.7919237168971449,colour,0.5
033,75,0,2,1,3,3,9.28718141792342,10.33600019523874,"[35, 0, 219]",219,a,0.5254865572787821,colour,0.5
033,75,0,2,1,4,4,10.849854119354859,12.151965842349455,"[32, 0, 222]",222,a,0.7788507889490575,colour,0.5
033,75,0,2,1,5,5,12.662189688766375,13.976015177089721,"[61, 0, 193]",193,a,0.7904956315178424,colour,0.5
033,75,0,2,1,6,6,14.490286184009165,16.03997142240405,"[75, 0, 179]",179,l,1.0264739289414138,colour,0.5
033,75,0,2,1,7,7,16.552778110140935,17.63996772025712,"[51, 0, 203]",203,a,0.5639751497656107,colour,0.5
033,75,0,2,1,8,8,18.146531162550673,19.143971557961777,"[53, 0, 201]",201,a,0.47415071073919535,colour,0.5
033,75,0,2,1,9,9,19.66331096808426,20.744029295630753,"[2, 0, 252]",252,a,0.5578228826634586,colour,0.5
033,75,0,2,1,10,10,21.25714987865649,22.551976240007207,"[81, 0, 173]",173,l,0.7715543995145708,colour,0.5
033,75,0,2,1,11,11,23.06945236492902,24.18395203887485,"[44, 0, 210]",210,a,0.5910433924291283,colour,0.5
033,75,0,2,1,12,12,24.694621718721464,26.055970231536776,"[71, 0, 183]",183,l,0.8381809203419834,colour,0.5
033,75,0,2,1,13,13,26.569634321844205,27.51198709430173,"[8, 0, 246]",246,a,0.4194143982604146,colour,0.5
033,75,0,2,1,14,14,28.02263905107975,29.10394381545484,"[94, 0, 160]",160,l,0.5578874736092985,colour,0.5
033,75,0,2,1,15,15,29.617693370440975,30.784023561282083,"[90, 0, 164]",164,l,0.643179927719757,colour,0.5
033,75,0,2,1,16,16,31.305159696610644,32.33598956139758,"[13, 0, 241]",241,a,0.5076394292991608,colour,0.5
033,75,0,2,1,17,17,32.851924567483366,33.927968337899074,"[20, 0, 234]",234,l,0.5526083628647029,colour,0.5
033,75,0,2,1,18,18,34.4458233427722,35.69595843181014,"[11, 0, 243]",243,a,0.727178598055616,colour,0.5
033,75,0,2,1,19,19,36.211155764292926,37.04804526385851,"[26, 0, 228]",228,a,0.3132953718304634,colour,0.5
033,75,0,2,1,20,20,37.55507501959801,38.71199347474612,"[74, 0, 180]",180,l,0.6339710224419832,colour,0.5
033,75,0,2,1,21,21,39.226979312021285,40.24805243173614,"[50, 0, 204]",204,a,0.4977609859779477,colour,0.5
033,75,0,2,1,22,22,40.75823413650505,41.85599654028192,"[22, 0, 232]",232,a,0.5746082020923495,colour,0.5
033,75,0,2,1,23,23,42.367525985930115,43.37596925464459,"[46, 0, 208]",208,a,0.48498777486383915,colour,0.5
033,75,0,2,1,24,24,43.883082112064585,46.24797287490219,"[57, 0, 197]",197,a,1.8396349994000047,colour,0.5
033,75,0,2,1,25,25,46.760096634039655,47.79198555042967,"[21, 0, 233]",233,a,0.508617348736152,colour,0.5
033,75,0,2,1,26,26,48.306970993988216,49.29613708029501,"[33, 0, 221]",221,a,0.4658996385987848,colour,0.5
033,75,0,2,1,27,27,49.806981233879924,50.77597295679152,"[39, 0, 215]",215,a,0.4458225551061332,colour,0.5
033,75,0,2,1,28,28,51.29134161234833,52.51197724812664,"[31, 0, 223]",223,a,0.6974069972056895,colour,0.5
033,75,0,2,1,29,29,53.02563228015788,54.16797134676017,"[96, 0, 158]",158,l,0.619034809526056,colour,0.5
033,75,0,2,1,30,30,54.68299026717432,55.63997047720477,"[16, 0, 238]",238,a,0.43371100537478924,colour,0.5
033,75,0,2,1,31,31,56.1518319346942,57.031966897891834,"[40, 0, 214]",214,a,0.3568456722423434,colour,0.5
033,75,0,2,1,32,32,57.54238412249833,58.74391980655491,"[66, 0, 188]",188,l,0.678223550086841,colour,0.5
033,75,0,2,1,33,33,59.26115450402722,60.83995480206795,"[65, 0, 189]",189,l,1.0553420472424477,colour,0.5
033,75,0,2,1,34,34,61.3548760486301,62.51195598044433,"[17, 0, 237]",237,a,0.6337000562343746,colour,0.5
033,75,0,2,1,35,35,63.026724020950496,64.32796731381677,"[89, 0, 165]",165,l,0.7778665681835264,colour,0.5
033,75,0,2,1,36,36,64.84055187250488,66.23999395035207,"[76, 0, 178]",178,l,0.8759995808359236,colour,0.5
033,75,0,2,1,37,37,66.74677243246697,67.40797041729093,"[88, 0, 166]",166,l,0.13790278625674546,colour,0.5
033,75,0,2,1,38,38,67.91861370950937,69.6879346088972,"[9, 0, 245]",245,a,1.2459355101455003,colour,0.5
033,75,0,2,1,39,39,70.19989058957435,70.84795696358196,"[69, 0, 185]",185,l,0.12465892941690981,colour,0.5
033,75,0,2,1,40,40,71.356201734161,72.03195705171674,"[24, 0, 230]",230,a,0.15231045754626393,colour,0.5
033,75,0,2,1,41,41,72.54363812785596,73.57602092740126,"[0, 0, 254]",254,a,0.5093420252669603,colour,0.5
033,75,0,2,1,42,42,74.09053099877201,78.19996817712672,"[95, 0, 159]",159,l,3.5849675312638283,colour,0.5
033,75,0,2,1,43,43,78.71672513964586,80.13588747661561,"[47, 0, 207]",207,a,0.8958612307906151,colour,0.5
033,75,0,2,1,44,44,80.65424817963503,81.70397319621406,"[99, 0, 155]",155,l,0.5264006734360009,colour,0.5
033,75,0,2,1,45,45,82.21674128714949,82.93597916397266,"[55, 0, 199]",199,a,0.19595921970903873,colour,0.5
033,75,0,2,1,46,46,83.45110245328397,84.25600772560574,"[52, 0, 202]",202,a,0.28162779682315886,colour,0.5
033,75,0,2,1,47,47,84.77349290903658,85.54393233079463,"[98, 0, 156]",156,l,0.24712768173776567,colour,0.5
033,75,0,2,1,48,48,86.05470992438495,86.70405747927725,"[83, 0, 171]",171,l,0.12619374692440033,colour,0.5
033,75,0,2,1,49,49,87.21099349996075,87.90393034578301,"[42, 0, 212]",212,a,0.16958887199871242,colour,0.5
033,75,0,2,1,50,50,88.41410929360427,88.99190095230006,"[97, 0, 157]",157,l,0.054437777027487755,colour,0.5
033,75,0,2,2,1,51,95.49866446829401,98.13594064582139,"[95, 0, 159]",159,l,2.1102028149180114,colour,0.5
033,75,0,2,2,2,52,98.65573928016238,99.8159388655331,"[7, 0, 247]",247,a,0.6371198205742985,colour,0.5
033,75,0,2,2,3,53,100.32752660033293,100.99192103859968,"[12, 0, 242]",242,a,0.14139935048297048,colour,0.5
033,75,0,2,2,4,54,101.49933518795297,102.06390662048943,"[78, 0, 176]",176,l,0.04119273857213557,colour,0.5
033,75,0,2,2,5,55,102.57762781856582,103.10442863963544,"[43, 0, 211]",211,a,0.003884896170347929,colour,0.5
033,75,0,2,2,6,56,103.62437929864973,105.22388368309475,"[15, 0, 239]",239,a,1.0762402997352183,colour,0.5
033,75,0,2,2,7,57,105.74012982728891,106.62393858516589,"[30, 0, 224]",224,a,0.3606986668892205,colour,0.5
033,75,0,2,2,8,58,107.13052880903706,107.72792414831929,"[6, 0, 248]",248,a,0.0742998206987977,colour,0.5
033,75,0,2,2,9,59,108.23995771654882,108.8879591061268,"[9, 0, 245]",245,a,0.12462978484109044,colour,0.5
033,75,0,2,2,10,60,109.39621529821306,110.55192819074728,"[56, 0, 198]",198,a,0.6323373494669795,colour,0.5
033,75,0,2,2,11,61,111.06817472889088,111.59992501162924,"[4, 0, 250]",250,a,0.008687847293913364,colour,0.5
033,75,0,2,2,12,62,112.11503530433401,112.67991393664852,"[85, 0, 169]",169,l,0.04169961833395064,colour,0.5
033,75,0,2,2,13,63,113.19305854430422,113.89592621522024,"[75, 0, 179]",179,l,0.17945589404553175,colour,0.5
033,75,0,2,2,14,64,114.41372489999048,115.01594918430783,"[83, 0, 171]",171,l,0.07898383028805256,colour,0.5
033,75,0,2,2,15,65,115.52308646007441,119.1359363135416,"[97, 0, 157]",157,l,3.089599553262815,colour,0.5
033,75,0,2,2,16,66,119.64816129091196,120.6399306987878,"[0, 0, 254]",254,a,0.46875541540794075,colour,0.5
033,75,0,2,2,17,67,121.14804865093902,121.75190700194798,"[79, 0, 175]",175,l,0.08070533093996346,colour,0.5
033,75,0,2,2,18,68,122.27310260781087,123.4159910895396,"[66, 0, 188]",188,a,0.6195913138799369,colour,0.5
033,75,0,2,2,19,69,123.92927984474227,124.63987831724808,"[82, 0, 172]",172,l,0.18718787701800466,colour,0.5
033,75,0,2,2,20,70,125.14809827553108,125.73588495585136,"[88, 0, 166]",166,l,0.06503538298420608,colour,0.5
033,75,0,2,2,21,71,126.25745707866736,126.83191719464958,"[57, 0, 197]",197,a,0.0512027267832309,colour,0.5
033,75,0,2,2,22,72,127.35118453088216,128.31190627720207,"[81, 0, 173]",173,l,0.4378326029982418,colour,0.5
033,75,0,2,2,23,73,128.81996515230276,129.447935144417,"[46, 0, 208]",208,a,0.10470787645317614,colour,0.5
033,75,0,2,2,24,74,129.96057090326212,130.6959233796224,"[40, 0, 214]",214,a,0.21198993013240397,colour,0.5
033,75,0,2,2,25,75,131.21044723549858,131.9039043521043,"[11, 0, 243]",243,a,0.17004849039949477,colour,0.5
033,75,0,2,2,26,76,132.41363904159516,133.38388634542935,"[63, 0, 191]",191,a,0.4469442283734679,colour,0.5
033,75,0,2,2,27,77,133.89799902634695,134.57594215800054,"[28, 0, 226]",226,a,0.15307530644349754,colour,0.5
033,75,0,2,2,28,78,135.08719709306024,135.935927570099,"[47, 0, 207]",207,a,0.3254317338578403,colour,0.5
033,75,0,2,2,29,79,136.44659331138246,137.39190701767802,"[61, 0, 193]",193,a,0.4219649445731193,colour,0.5
033,75,0,2,2,30,80,137.89964569616131,138.43988138926215,"[69, 0, 185]",185,l,0.01709566987119615,colour,0.5
033,75,0,2,2,31,81,138.94657322531566,139.70391766401008,"[72, 0, 182]",182,l,0.2341323415748775,colour,0.5
033,75,0,2,2,32,82,140.21216085925698,141.04787236545235,"[89, 0, 165]",165,l,0.3123048492707312,colour,0.5
033,75,0,2,2,33,83,141.55592100066133,142.5439264231827,"[94, 0, 160]",160,l,0.46471613156609237,colour,0.5
033,75,0,2,2,34,84,143.0559993761126,144.04788575624116,"[13, 0, 241]",241,a,0.4686033909674734,colour,0.5
033,75,0,2,2,35,85,144.55720454454422,145.38387531763874,"[90, 0, 164]",164,l,0.3036772604100406,colour,0.5
033,75,0,2,2,36,86,145.90106354141608,146.84790103742853,"[1, 0, 253]",253,a,0.42378923879005015,colour,0.5
033,75,0,2,2,37,87,147.3540367630776,148.45588374277577,"[26, 0, 228]",228,a,0.5784505628980696,colour,0.5
033,75,0,2,2,38,88,148.96350663062185,149.84788213274442,"[59, 0, 195]",195,a,0.361454063327983,colour,0.5
033,75,0,2,2,39,89,150.35404424602166,150.99191040475853,"[76, 0, 178]",178,l,0.11451030778698623,colour,0.5
033,75,0,2,2,40,90,151.51030104001984,152.45595463505015,"[92, 0, 162]",162,l,0.4224501627031714,colour,0.5
033,75,0,2,2,41,91,152.96349205845036,154.07994008809328,"[14, 0, 240]",240,a,0.5932249049656093,colour,0.5
033,75,0,2,2,42,92,154.58976063597947,155.52800244488753,"[73, 0, 181]",181,l,0.41495369956828654,colour,0.5
033,75,0,2,2,43,93,156.04278426989913,157.01590152899735,"[91, 0, 163]",163,l,0.44950934685766697,colour,0.5
033,75,0,2,2,44,94,157.52714701159857,158.5278842910193,"[33, 0, 221]",221,a,0.4773967885412276,colour,0.5
033,75,0,2,2,45,95,159.0428394083865,160.03994385316037,"[25, 0, 229]",229,a,0.47364107402972877,colour,0.5
033,75,0,2,2,46,96,160.5584258607123,161.543938632356,"[32, 0, 222]",222,a,0.4622455360367894,colour,0.5
033,75,0,2,2,47,97,162.05837269150652,163.05589028075337,"[27, 0, 227]",227,a,0.4741648891940713,colour,0.5
033,75,0,2,2,48,98,163.57407966069877,164.52787562645972,"[22, 0, 232]",232,a,0.4308394747786224,colour,0.5
033,75,0,2,2,49,99,165.0440831738524,165.9919289154932,"[35, 0, 219]",219,a,0.42450722004286945,colour,0.5
033,75,0,2,2,50,100,166.5127846323885,167.4719093334861,"[16, 0, 238]",238,a,0.4357964196242392,colour,0.5
033,75,0,2,3,1,101,174.1526208082214,175.92789862700738,"[72, 0, 182]",182,l,1.2510897715110332,colour,0.5
033,75,0,2,3,2,102,176.43458652473055,177.35989364562556,"[71, 0, 183]",183,l,0.40221790387295187,colour,0.5
033,75,0,2,3,3,103,177.87214579852298,178.46392686432227,"[49, 0, 205]",205,a,0.0685878733638674,colour,0.5
033,75,0,2,3,4,104,178.98146009701304,179.85585554339923,"[29, 0, 225]",225,a,0.3497836210299283,colour,0.5
033,75,0,2,3,5,105,180.37342382851057,181.2558450670913,"[59, 0, 195]",195,a,0.35905948001891375,colour,0.5
033,75,0,2,3,6,106,181.76402327767573,182.43189734476618,"[35, 0, 219]",219,a,0.14472892368212342,colour,0.5
033,75,0,2,3,7,107,182.9515317454934,183.69585957657546,"[7, 0, 247]",247,a,0.22104326635599136,colour,0.5
033,75,0,2,3,8,108,184.21721350844018,184.75988238165155,"[68, 0, 186]",186,l,0.01937367464415729,colour,0.5
033,75,0,2,3,9,109,185.27960933628492,186.03189364261925,"[64, 0, 190]",190,l,0.22908284305594862,colour,0.5
033,75,0,2,3,10,110,186.54527416382916,187.2718592362944,"[13, 0, 241]",241,a,0.20331311086192727,colour,0.5
033,75,0,2,3,11,111,187.77969283168204,188.66384265990928,"[82, 0, 172]",172,l,0.3609014975372702,colour,0.5
033,75,0,2,3,12,112,189.17193579976447,189.77586661837995,"[18, 0, 236]",236,a,0.08063562004826963,colour,0.5
033,75,0,2,3,13,113,190.29701850749552,191.24790119496174,"[19, 0, 235]",235,a,0.427719033556059,colour,0.5
033,75,0,2,3,14,114,191.76565143675543,192.74391468660906,"[56, 0, 198]",198,a,0.4548932204488665,colour,0.5
033,75,0,2,3,15,115,193.25010712607764,194.09586170315742,"[30, 0, 224]",224,a,0.32246686168946326,colour,0.5
033,75,0,2,3,16,116,194.6094025198836,195.45609760121442,"[14, 0, 240]",240,a,0.32336561824195087,colour,0.5
033,75,0,2,3,17,117,195.96878219675273,196.807904408779,"[0, 0, 254]",254,a,0.3156608105637133,colour,0.5
033,75,0,2,3,18,118,197.32821858744137,198.15985260694288,"[10, 0, 244]",244,a,0.30833330703899264,colour,0.5
033,75,0,2,3,19,119,198.67195509839803,200.1838468820788,"[62, 0, 192]",192,l,0.9887742097489536,colour,0.5
033,75,0,2,3,20,120,200.70321583049372,201.27190649765544,"[17, 0, 237]",237,a,0.04548802226781845,colour,0.5
033,75,0,2,3,21,121,201.78122174134478,202.6641348937992,"[94, 0, 160]",160,l,0.35978888301178813,colour,0.5
033,75,0,2,3,22,122,203.17734999977984,204.03984263492748,"[2, 0, 252]",252,a,0.3392513934522867,colour,0.5
033,75,0,2,3,23,123,204.55230273818597,205.28785292524844,"[95, 0, 159]",159,l,0.21225656382739544,colour,0.5
033,75,0,2,3,24,124,205.80223775375634,206.7360365865752,"[26, 0, 228]",228,a,0.41040280973538756,colour,0.5
033,75,0,2,3,25,125,207.25543349818327,207.99982158769853,"[86, 0, 168]",168,l,0.22117717401124537,colour,0.5
033,75,0,2,3,26,126,208.52099316893145,209.51183743285947,"[81, 0, 173]",173,l,0.46755930525250733,colour,0.5
033,75,0,2,3,27,127,210.02220306359231,210.97588520799764,"[9, 0, 245]",245,a,0.4303834012243897,colour,0.5
033,75,0,2,3,28,128,211.49094390682876,212.4878470962867,"[53, 0, 201]",201,a,0.4736773078329861,colour,0.5
033,75,0,2,3,29,129,213.00654414366,214.0158786859829,"[34, 0, 220]",220,a,0.4859920821618289,colour,0.5
033,75,0,2,3,30,130,214.5221239007078,215.59188622259535,"[39, 0, 215]",215,a,0.5465163541957736,colour,0.5
033,75,0,2,3,31,131,216.10030625457875,217.07989125116728,"[66, 0, 188]",188,l,0.45613934891298413,colour,0.5
033,75,0,2,3,32,132,217.60036966367625,218.59189646248706,"[46, 0, 208]",208,a,0.46820915094576776,colour,0.5
033,75,0,2,3,33,133,219.10034288209863,220.1678606760688,"[41, 0, 213]",213,a,0.5440945953596383,colour,0.5
033,75,0,2,3,34,134,220.6784322883468,222.0558627115097,"[45, 0, 209]",209,a,0.8542325044982135,colour,0.5
033,75,0,2,3,35,135,222.56907939282246,223.65591414785013,"[33, 0, 221]",221,a,0.563543101074174,colour,0.5
033,75,0,2,3,36,136,224.1627658852376,224.9838590126019,"[44, 0, 210]",210,a,0.2976447227410972,colour,0.5
033,75,0,2,3,37,137,225.49096753750928,226.53581477259286,"[93, 0, 161]",161,l,0.5218718394171447,colour,0.5
033,75,0,2,3,38,138,227.0534567066934,227.63190608820878,"[50, 0, 204]",204,a,0.055078958394005895,colour,0.5
033,75,0,2,3,39,139,228.14709199918434,229.51993608660996,"[28, 0, 226]",226,a,0.8495725197717547,colour,0.5
033,75,0,2,3,40,140,230.0389470292721,230.96781884972006,"[75, 0, 179]",179,l,0.4055770158302039,colour,0.5
033,75,0,2,3,41,141,231.49035589490086,232.55984252458438,"[77, 0, 177]",177,l,0.5462359357625246,colour,0.5
033,75,0,2,3,42,142,233.0684141870588,234.47988313785754,"[70, 0, 184]",184,l,0.8881942322477698,colour,0.5
033,75,0,2,3,43,143,234.99252598593011,235.97587890643626,"[67, 0, 187]",187,l,0.4599675312638283,colour,0.5
033,75,0,2,3,44,144,236.49249841668643,237.43985578930005,"[69, 0, 185]",185,l,0.4240263341926038,colour,0.5
033,75,0,2,3,45,145,237.96122547518462,238.98383853258565,"[6, 0, 248]",248,a,0.4991465359926224,colour,0.5
033,75,0,2,3,46,146,239.4925661580637,240.43985145702027,"[65, 0, 189]",189,l,0.42403302947059274,colour,0.5
033,75,0,2,3,47,147,240.961247530533,241.95984622673132,"[92, 0, 162]",162,l,0.4752223654650152,colour,0.5
033,75,0,2,3,48,148,242.47691117669456,243.83986658067442,"[90, 0, 164]",164,l,0.8399213254451752,colour,0.5
033,75,0,2,3,49,149,244.35187297360972,245.67987218894996,"[4, 0, 250]",250,a,0.8047016537748277,colour,0.5
033,75,0,2,3,50,150,246.1956847088877,246.80804186104797,"[89, 0, 165]",165,l,0.08908755355514586,colour,0.5
033,75,0,2,4,1,151,253.4936130004935,272.57585196732543,"[12, 0, 242]",242,a,18.558223817963153,colour,0.5
033,75,0,2,4,2,152,273.0905845616944,275.77583314152434,"[14, 0, 240]",240,a,2.1619281750172377,colour,0.5
033,75,0,2,4,3,153,276.2935963803902,277.024453105405,"[59, 0, 195]",195,a,0.20745952054858208,colour,0.5
033,75,0,2,4,4,154,277.5436196171213,278.4238116880879,"[56, 0, 198]",198,a,0.3569425584282726,colour,0.5
033,75,0,2,4,5,155,278.93418992194347,279.62379916361533,"[77, 0, 177]",177,l,0.16661809221841395,colour,0.5
033,75,0,2,4,6,156,280.1373301341664,280.92777141486295,"[64, 0, 190]",190,a,0.26700784219428897,colour,0.5
033,75,0,2,4,7,157,281.4341544758063,282.06381879304536,"[61, 0, 193]",193,a,0.10643646633252501,colour,0.5
033,75,0,2,4,8,158,282.5748330880888,283.56781751057133,"[43, 0, 211]",211,a,0.4696833163034171,colour,0.5
033,75,0,2,4,9,159,284.0748267865274,285.04789363313466,"[78, 0, 176]",176,l,0.4487787624821067,colour,0.5
033,75,0,2,4,10,160,285.5604104504455,286.47985635651276,"[22, 0, 232]",232,a,0.3961959998123348,colour,0.5
033,75,0,2,4,11,161,286.9978472380899,288.05587098235264,"[49, 0, 205]",205,a,0.535047166980803,colour,0.5
033,75,0,2,4,12,162,288.57582164136693,289.1598786008544,"[75, 0, 179]",179,l,0.06086140405386686,colour,0.5
033,75,0,2,4,13,163,289.66958020743914,290.3438782952726,"[81, 0, 173]",173,l,0.1510493631940335,colour,0.5
033,75,0,2,4,14,164,290.85723164118826,291.59179051802494,"[54, 0, 200]",200,a,0.21123729064129293,colour,0.5
033,75,0,2,4,15,165,292.107219432015,293.0321299501229,"[39, 0, 215]",215,a,0.4015393073204905,colour,0.5
033,75,0,2,4,16,166,293.54477713047527,294.1198484953493,"[63, 0, 191]",191,l,0.05182539718225598,colour,0.5
033,75,0,2,4,17,167,294.6395963234827,295.6238196436316,"[3, 0, 251]",251,a,0.46102855214849114,colour,0.5
033,75,0,2,4,18,168,296.1397920649033,296.75997769250534,"[8, 0, 246]",246,a,0.09703575819730759,colour,0.5
033,75,0,2,4,19,169,297.2802717851009,297.93590472708456,"[87, 0, 167]",167,l,0.13165954081341624,colour,0.5
033,75,0,2,4,20,170,298.4524576771073,299.14382544113323,"[20, 0, 234]",234,a,0.16808910691179335,colour,0.5
033,75,0,2,4,21,171,299.65531550208107,300.28784977435134,"[33, 0, 221]",221,a,0.10930917831137776,colour,0.5
033,75,0,2,4,22,172,300.7960193203762,301.7358963773586,"[13, 0, 241]",241,a,0.41711985203437507,colour,0.5
033,75,0,2,4,23,173,302.24899844964966,303.22380373231135,"[0, 0, 254]",254,a,0.4513537271413952,colour,0.5
033,75,0,2,4,24,174,303.73349943128414,304.41580598196015,"[4, 0, 250]",250,a,0.159043253865093,colour,0.5
033,75,0,2,4,25,175,304.9367333787959,305.5197946957778,"[51, 0, 203]",203,a,0.05989333055913448,colour,0.5
033,75,0,2,4,26,176,306.030279268045,307.32781292614527,"[65, 0, 189]",189,l,0.7741490565240383,colour,0.5
033,75,0,2,4,27,177,307.84293542802334,308.55183563707396,"[48, 0, 206]",206,a,0.1856569980736822,colour,0.5
033,75,0,2,4,28,178,309.0615986834746,309.9197885519825,"[50, 0, 204]",204,a,0.3347895131446421,colour,0.5
033,75,0,2,4,29,179,310.43660734803416,311.29582869890146,"[44, 0, 210]",210,a,0.3355760232079774,colour,0.5
033,75,0,2,4,30,180,311.81158923124894,312.703819202492,"[36, 0, 218]",218,a,0.36893083434551954,colour,0.5
033,75,0,2,4,31,181,313.2179350343067,313.84777933894657,"[68, 0, 186]",186,l,0.10662511852569878,colour,0.5
033,75,0,2,4,32,182,314.3585128218401,315.34380149515346,"[32, 0, 222]",222,a,0.46202813321724534,colour,0.5
033,75,0,2,4,33,183,315.858446655795,316.927860817872,"[38, 0, 216]",216,a,0.5462103358004242,colour,0.5
033,75,0,2,4,34,184,317.4366687880829,318.0397851332091,"[85, 0, 169]",169,l,0.08004248794168234,colour,0.5
033,75,0,2,4,35,185,318.54595630499534,319.1837889866438,"[84, 0, 170]",170,l,0.11457095993682742,colour,0.5
033,75,0,2,4,36,186,319.7034119658638,320.383782370016,"[79, 0, 175]",175,l,0.15716027631424367,colour,0.5
033,75,0,2,4,37,187,320.89090192271397,321.79985537962057,"[24, 0, 230]",230,a,0.38572245510295033,colour,0.5
033,75,0,2,4,38,188,322.31273611052893,323.00777530600317,"[17, 0, 237]",237,a,0.17179440916515887,colour,0.5
033,75,0,2,4,39,189,323.51585859968327,324.51982620358467,"[60, 0, 194]",194,a,0.4807822883594781,colour,0.5
033,75,0,2,4,40,190,325.03148561832495,325.64777335268445,"[19, 0, 235]",235,a,0.09314456046558917,colour,0.5
033,75,0,2,4,41,191,326.1564738028683,326.8558327003848,"[7, 0, 247]",247,a,0.17600186518393457,colour,0.5
033,75,0,2,4,42,192,327.3752036183141,328.05581111763604,"[25, 0, 229]",229,a,0.15723156253807247,colour,0.5
033,75,0,2,4,43,193,328.5626734890975,329.1198740953114,"[92, 0, 162]",162,l,0.03377858945168555,colour,0.5
033,75,0,2,4,44,194,329.6408211844973,330.2718025224749,"[62, 0, 192]",192,a,0.10767117328941822,colour,0.5
033,75,0,2,4,45,195,330.7814399320632,331.5197868188843,"[82, 0, 172]",172,l,0.21559204487130046,colour,0.5
033,75,0,2,4,46,196,332.0313717967365,336.98380741872825,"[57, 0, 197]",197,a,4.429241641890258,colour,0.5
033,75,0,2,4,47,197,337.50138554978184,338.42375379265286,"[80, 0, 174]",174,l,0.39905492728576064,colour,0.5
033,75,0,2,4,48,198,338.93886250979267,339.5437732171267,"[11, 0, 243]",243,a,0.0815993610303849,colour,0.5
033,75,0,2,4,49,199,340.06394994375296,340.5918031211477,"[28, 0, 226]",226,a,0.0046725880820304155,colour,0.5
033,75,0,2,4,50,200,341.1107293867972,341.6797847552225,"[99, 0, 155]",155,l,0.04565461911261082,colour,0.5
033,75,0,2,5,1,201,350.4393764787819,351.4477618522942,"[4, 0, 250]",250,a,0.4843808584846556,colour,0.5
033,75,0,2,5,2,202,351.9557848875411,354.9438332391437,"[81, 0, 173]",173,l,2.4648677622899413,colour,0.5
033,75,0,2,5,3,203,355.45570139214396,356.34374990151264,"[72, 0, 182]",182,l,0.36489115678705275,colour,0.5
033,75,0,2,5,4,204,356.8618892629165,357.43987705698237,"[22, 0, 232]",232,a,0.05467881076037884,colour,0.5
033,75,0,2,5,5,205,357.9557663768064,358.543776367791,"[27, 0, 227]",227,a,0.06485618324950337,colour,0.5
033,75,0,2,5,6,206,359.06508579524234,361.10380124324,"[94, 0, 160]",160,l,1.514229259453714,colour,0.5
033,75,0,2,5,7,207,361.6130806468427,362.3517914474942,"[79, 0, 175]",175,l,0.21539118350483477,colour,0.5
033,75,0,2,5,8,208,362.8631582346279,363.75977210490964,"[49, 0, 205]",205,a,0.37343170563690364,colour,0.5
033,75,0,2,5,9,209,364.26948946528137,364.855748023605,"[83, 0, 171]",171,l,0.06298699043691158,colour,0.5
033,75,0,2,5,10,210,365.36313775461167,365.98376645869575,"[16, 0, 238]",238,a,0.09738037316128612,colour,0.5
033,75,0,2,5,11,211,366.5037470499519,367.1277718874626,"[13, 0, 241]",241,a,0.1007162481546402,colour,0.5
033,75,0,2,5,12,212,367.6443264130503,368.2958235789556,"[51, 0, 203]",203,a,0.12820905656553805,colour,0.5
033,75,0,2,5,13,213,368.81624291464686,369.43177052633837,"[64, 0, 190]",190,a,0.0902958728838712,colour,0.5
033,75,0,2,5,14,214,369.94330666726455,370.8877570631448,"[66, 0, 188]",188,a,0.42118394817225635,colour,0.5
033,75,0,2,5,15,215,371.39632006105967,374.22380924620666,"[1, 0, 253]",253,a,2.304103401955217,colour,0.5
033,75,0,2,5,16,216,374.7400987134315,375.68774398742244,"[42, 0, 212]",212,a,0.424359921598807,colour,0.5
033,75,0,2,5,17,217,376.2088557041716,377.0477384577971,"[57, 0, 197]",197,a,0.31552847824059427,colour,0.5
033,75,0,2,5,18,218,377.5682661011815,378.2237864029594,"[96, 0, 158]",158,l,0.13235507253557444,colour,0.5
033,75,0,2,5,19,219,378.7401109226048,379.3277932340279,"[20, 0, 234]",234,a,0.06442570965737104,colour,0.5
033,75,0,2,5,20,220,379.8495146241039,380.48789199464954,"[23, 0, 231]",231,a,0.11516566737554967,colour,0.5
033,75,0,2,5,21,221,381.0056918610353,383.11176086915657,"[46, 0, 208]",208,a,1.5830518647562712,colour,0.5
033,75,0,2,5,22,222,383.63066114112735,384.2957511113491,"[71, 0, 183]",183,l,0.1419373438693583,colour,0.5
033,75,0,2,5,23,223,384.8039596481249,385.487723428756,"[60, 0, 194]",194,a,0.16064581274986267,colour,0.5
033,75,0,2,5,24,224,386.0069131774362,386.6397585880477,"[47, 0, 207]",207,a,0.10949310450814664,colour,0.5
033,75,0,2,5,25,225,387.14755004202016,387.80775080877356,"[2, 0, 252]",252,a,0.13697842974215746,colour,0.5
033,75,0,2,5,26,226,388.31940707261674,389.1117321185302,"[9, 0, 245]",245,a,0.26888609351590276,colour,0.5
033,75,0,2,5,27,227,389.63262603851035,390.159740754636,"[73, 0, 181]",181,l,0.004764747805893421,colour,0.5
033,75,0,2,5,28,228,390.6787532728631,391.50378958531655,"[68, 0, 186]",186,l,0.3016761294566095,colour,0.5
033,75,0,2,5,29,229,392.0226162080653,392.6797414321918,"[59, 0, 195]",195,a,0.13396393321454525,colour,0.5
033,75,0,2,5,30,230,393.1944110111799,393.74375793593936,"[24, 0, 230]",230,a,0.02600919082760811,colour,0.5
033,75,0,2,5,31,231,394.25695019890554,394.85576771595515,"[78, 0, 176]",176,l,0.07557745696976781,colour,0.5
033,75,0,2,5,32,232,395.3663097897079,395.9357672748156,"[25, 0, 229]",229,a,0.04614220047369599,colour,0.5
033,75,0,2,5,33,233,396.4444377927575,397.0237500905059,"[41, 0, 213]",213,a,0.05596511159092188,colour,0.5
033,75,0,2,5,34,234,397.5381002605427,398.0957514264155,"[37, 0, 217]",217,a,0.03457061341032386,colour,0.5
033,75,0,2,5,35,235,398.6163078204263,399.16778545151465,"[97, 0, 157]",157,l,0.02827341086231172,colour,0.5
033,75,0,2,5,36,236,399.6799844352063,401.6237507206388,"[65, 0, 189]",189,a,1.4203868040349334,colour,0.5
033,75,0,2,5,37,237,402.1332837610971,402.8397216454614,"[90, 0, 164]",164,l,0.1832234242465347,colour,0.5
033,75,0,2,5,38,238,403.3518328012433,403.9037086106837,"[19, 0, 235]",235,a,0.029162715189158916,colour,0.5
033,75,0,2,5,39,239,404.41436686902307,405.0397496870719,"[3, 0, 251]",251,a,0.10207619797438383,colour,0.5
033,75,0,2,5,40,240,405.5549860105384,406.1517960948404,"[17, 0, 237]",237,a,0.07350425189360976,colour,0.5
033,75,0,2,5,41,241,406.6644314597361,407.4477480677888,"[0, 0, 254]",254,a,0.2603431816678494,colour,0.5
033,75,0,2,5,42,242,407.96128061343916,408.70375618711114,"[63, 0, 191]",191,l,0.2191827381029725,colour,0.5
033,75,0,2,5,43,243,409.2112463489175,411.03177036880516,"[11, 0, 243]",243,a,1.2972351228818297,colour,0.5
033,75,0,2,5,44,244,411.53936371812597,412.1997803125996,"[89, 0, 165]",165,l,0.13746246648952365,colour,0.5
033,75,0,2,5,45,245,412.7111600965727,413.2397674890235,"[74, 0, 180]",180,a,0.005309830652549863,colour,0.5
033,75,0,2,5,46,246,413.7580557244364,414.74374139425345,"[6, 0, 248]",248,a,0.46236250828951597,colour,0.5
033,75,0,2,5,47,247,415.25811637658626,416.5997576271184,"[62, 0, 192]",192,a,0.8186158363241702,colour,0.5
033,75,0,2,5,48,248,417.11746651516296,419.0877488711849,"[75, 0, 179]",179,l,1.4469166591297835,colour,0.5
033,75,0,2,5,49,249,419.6029773175251,420.3997520345729,"[67, 0, 187]",187,a,0.27357601071707904,colour,0.5
033,75,0,2,5,50,250,420.9155566773843,421.7437496650964,"[15, 0, 239]",239,a,0.3050309089012444,colour,0.5
033,75,0,2,6,1,251,428.35222585941665,430.2477219949942,"[75, 0, 179]",179,l,1.3713092696852982,colour,0.5
033,75,0,2,6,2,252,430.760489692213,432.9757583895698,"[20, 0, 234]",234,a,1.6920999235007912,colour,0.5
033,75,0,2,6,3,253,433.49474058137275,434.3037402757909,"[2, 0, 252]",252,a,0.28567416965961456,colour,0.5
033,75,0,2,6,4,254,434.82285243691877,435.6557085602544,"[7, 0, 247]",247,a,0.3097417000681162,colour,0.5
033,75,0,2,6,5,255,436.16659839986823,436.9997298216913,"[63, 0, 191]",191,l,0.3097645433153957,colour,0.5
033,75,0,2,6,6,256,437.510398713639,438.23974464600906,"[96, 0, 158]",158,l,0.20610981062054634,colour,0.5
033,75,0,2,6,7,257,438.76034987694584,439.3437152430415,"[55, 0, 199]",199,a,0.06000833376310766,colour,0.5
033,75,0,2,6,8,258,439.8541434952058,440.55175647395663,"[23, 0, 231]",231,a,0.1745903214905411,colour,0.5
033,75,0,2,6,9,259,441.07290048594587,442.7917303382419,"[34, 0, 220]",220,a,1.1954137429129332,colour,0.5
033,75,0,2,6,10,260,443.3072155723348,444.5917204134166,"[30, 0, 224]",224,a,0.7611619872041047,colour,0.5
033,75,0,2,6,11,261,445.1052970699966,445.76789872162044,"[51, 0, 203]",203,a,0.13936946843750775,colour,0.5
033,75,0,2,6,12,262,446.27711117151193,448.57571963523515,"[4, 0, 250]",250,a,1.775279788300395,colour,0.5
033,75,0,2,6,13,263,449.08967674686573,449.71174613945186,"[40, 0, 214]",214,a,0.09878443391062319,colour,0.5
033,75,0,2,6,14,264,450.2303222762421,450.8957131446805,"[87, 0, 167]",167,l,0.1421681377105415,colour,0.5
033,75,0,2,6,15,265,451.40207375609316,453.5916967827361,"[58, 0, 196]",196,a,1.666247483342886,colour,0.5
033,75,0,2,6,16,266,454.105270288419,454.8556861898396,"[67, 0, 187]",187,l,0.22604038356803358,colour,0.5
033,75,0,2,6,17,267,455.37228994606994,456.01593264285475,"[97, 0, 157]",157,l,0.12054560263641179,colour,0.5
033,75,0,2,6,18,268,456.528310038615,457.1837295158766,"[99, 0, 155]",155,l,0.13218217412941158,colour,0.5
033,75,0,2,6,19,269,457.70021511847153,458.4156953112688,"[80, 0, 174]",174,l,0.19168953597545624,colour,0.5
033,75,0,2,6,20,270,458.93453178019263,459.5997237563133,"[56, 0, 198]",198,a,0.14199838996864855,colour,0.5
033,75,0,2,6,21,271,460.1064159863163,460.88771728472784,"[39, 0, 215]",215,a,0.2579482046421617,colour,0.5
033,75,0,2,6,22,272,461.40332146012224,461.9917032418307,"[37, 0, 217]",217,a,0.06495031248778105,colour,0.5
033,75,0,2,6,23,273,462.51263103238307,463.175711206859,"[22, 0, 232]",232,a,0.13964476669207215,colour,0.5
033,75,0,2,6,24,274,463.6845424140338,464.34369318769313,"[79, 0, 175]",175,l,0.13576262746937573,colour,0.5
033,75,0,2,6,25,275,464.85635218326934,465.47168759815395,"[85, 0, 169]",169,l,0.09183462872169912,colour,0.5
033,75,0,2,6,26,276,465.98144434322603,466.5437460418325,"[49, 0, 205]",205,a,0.039178610779345036,colour,0.5
033,75,0,2,6,27,277,467.05951760173775,467.7757527970243,"[9, 0, 245]",245,a,0.19288919074460864,colour,0.5
033,75,0,2,6,28,278,468.29389137099497,468.8477052960079,"[71, 0, 183]",183,l,0.030584105057641864,colour,0.5
033,75,0,2,6,29,279,469.3584513820242,471.24770151497796,"[64, 0, 190]",190,a,1.3659943190868944,colour,0.5
033,75,0,2,6,30,280,471.76466485275887,472.4717470689211,"[72, 0, 182]",182,l,0.1839354974217713,colour,0.5
033,75,0,2,6,31,281,472.9833871850278,473.6797473398037,"[14, 0, 240]",240,a,0.17300981772132218,colour,0.5
033,75,0,2,6,32,282,474.18648368050344,474.9756867096294,"[68, 0, 186]",186,l,0.2660653688944876,colour,0.5
033,75,0,2,6,33,283,475.48342420649715,476.0877181510441,"[81, 0, 173]",173,l,0.08107712119817734,colour,0.5
033,75,0,2,6,34,284,476.60838442808017,477.15972342551686,"[36, 0, 218]",218,a,0.028405349468812346,colour,0.5
033,75,0,2,6,35,285,477.67083972669207,478.3837292008102,"[17, 0, 237]",237,a,0.18953283573500812,colour,0.5
033,75,0,2,6,36,286,478.90531116956845,479.60769834858365,"[77, 0, 177]",177,l,0.17934404173865914,colour,0.5
033,75,0,2,6,37,287,480.12393504055217,480.7677049494814,"[3, 0, 251]",251,a,0.12026006449013948,colour,0.5
033,75,0,2,6,38,288,481.2803127451334,482.3277164339088,"[61, 0, 193]",193,a,0.524194348603487,colour,0.5
033,75,0,2,6,39,289,482.8427448065486,483.5757326320745,"[45, 0, 209]",209,a,0.20974934077821672,colour,0.5
033,75,0,2,6,40,290,484.0927160559222,484.71168588101864,"[65, 0, 189]",189,l,0.09438871964812279,colour,0.5
033,75,0,2,6,41,291,485.2189586397726,485.97570285736583,"[27, 0, 227]",227,a,0.23326745606027544,colour,0.5
033,75,0,2,6,42,292,486.4845360335894,487.19169820053503,"[54, 0, 200]",200,a,0.18379450077190995,colour,0.5
033,75,0,2,6,43,293,487.70341393514536,488.3436963383574,"[50, 0, 204]",204,a,0.11712347529828548,colour,0.5
033,75,0,2,6,44,294,488.8596293751616,489.46371655049734,"[89, 0, 165]",165,l,0.08087901677936316,colour,0.5
033,75,0,2,6,45,295,489.9845762059558,490.671712489333,"[26, 0, 228]",228,a,0.16388322645798326,colour,0.5
033,75,0,2,6,46,296,491.1876053537708,491.83970589144155,"[44, 0, 210]",210,a,0.12863756087608635,colour,0.5
033,75,0,2,6,47,297,492.3595592705533,492.9037310597487,"[46, 0, 208]",208,a,0.02085532294586301,colour,0.5
033,75,0,2,6,48,298,493.4221996765118,493.9837089572102,"[19, 0, 235]",235,a,0.038552395766600966,colour,0.5
033,75,0,2,6,49,299,494.50150646059774,495.1436895641964,"[8, 0, 246]",246,a,0.11906040972098708,colour,0.5
033,75,0,2,6,50,300,495.6578258757945,496.3756636301987,"[47, 0, 207]",207,a,0.20476718968711793,colour,0.5
033,75,0,2,7,1,301,506.5861222874373,509.51177284214646,"[75, 0, 179]",179,l,2.401652734959498,colour,0.5
033,75,0,2,7,2,302,510.0243278625421,510.6478651186917,"[7, 0, 247]",247,a,0.10021094395779073,colour,0.5
033,75,0,2,7,3,303,511.1649249487091,511.8796737694647,"[64, 0, 190]",190,l,0.19190969597548246,colour,0.5
033,75,0,2,7,4,304,512.3992553947028,512.9996931939386,"[10, 0, 244]",244,a,0.07703153602778912,colour,0.5
033,75,0,2,7,5,305,513.5086268009618,514.103702781722,"[60, 0, 194]",194,l,0.07172800693660975,colour,0.5
033,75,0,2,7,6,306,514.6180415302515,516.1436797180213,"[87, 0, 167]",167,l,1.002347321715206,colour,0.5
033,75,0,2,7,7,307,516.6648934409022,517.6957213366404,"[99, 0, 155]",155,l,0.5077871216926724,colour,0.5
033,75,0,2,7,8,308,518.2117343239952,519.2798283146694,"[56, 0, 198]",198,a,0.5450059550348669,colour,0.5
033,75,0,2,7,9,309,519.7911588677671,520.4796952733304,"[79, 0, 175]",175,l,0.16601905249990523,colour,0.5
033,75,0,2,7,10,310,520.9942726925947,523.6157316237222,"[6, 0, 248]",248,a,2.098087720340118,colour,0.5
033,75,0,2,7,11,311,524.1349071939476,524.8636859881226,"[11, 0, 243]",243,a,0.20547178015112877,colour,0.5
033,75,0,2,7,12,312,525.3846842772327,526.1997594388667,"[9, 0, 245]",245,a,0.29157555708661675,colour,0.5
033,75,0,2,7,13,313,526.71296745562,527.5356907111127,"[25, 0, 229]",229,a,0.2994375091511756,colour,0.5
033,75,0,2,7,14,314,528.0566925448366,530.7917098582257,"[19, 0, 235]",235,a,2.211682730121538,colour,0.5
033,75,0,2,7,15,315,531.3078457256779,533.5676891168114,"[26, 0, 228]",228,a,1.7364099526312202,colour,0.5
033,75,0,2,7,16,316,534.0890674672555,534.8316541055683,"[93, 0, 161]",161,l,0.21919534145854414,colour,0.5
033,75,0,2,7,17,317,535.3390871596057,536.0316569411661,"[77, 0, 177]",177,l,0.1693537461105734,colour,0.5
033,75,0,2,7,18,318,536.5421824734658,537.1196803229395,"[0, 0, 254]",254,a,0.054487007670104504,colour,0.5
033,75,0,2,7,19,319,537.6359449781012,538.2076863755938,"[55, 0, 199]",199,a,0.048329620622098446,colour,0.5
033,75,0,2,7,20,320,538.7140359596815,539.3036398452241,"[15, 0, 239]",239,a,0.06630396097898483,colour,0.5
033,75,0,2,7,21,321,539.8234357226174,540.4157004312146,"[85, 0, 169]",169,l,0.06899629160761833,colour,0.5
033,75,0,2,7,22,322,540.9328409996815,542.7436901943292,"[96, 0, 158]",158,l,1.2875090977177024,colour,0.5
033,75,0,2,7,23,323,543.261005630251,543.9437048453838,"[29, 0, 225]",225,a,0.1593819612171501,colour,0.5
033,75,0,2,7,24,324,544.4659209062811,545.223723781528,"[61, 0, 193]",193,a,0.23449979978613555,colour,0.5
033,75,0,2,7,25,325,545.7315262630582,546.287668605335,"[35, 0, 219]",219,a,0.03310393122956157,colour,0.5
033,75,0,2,7,26,326,546.7940000724047,547.3597684027627,"[94, 0, 160]",160,l,0.04305641772225499,colour,0.5
033,75,0,2,7,27,327,547.8722363831475,549.847681271378,"[8, 0, 246]",246,a,1.452573861926794,colour,0.5
033,75,0,2,7,28,328,550.3564463122748,551.1436616012361,"[63, 0, 191]",191,a,0.2637018996756524,colour,0.5
033,75,0,2,7,29,329,551.6535357122775,552.2236658863258,"[50, 0, 204]",204,a,0.046944070840254426,colour,0.5
033,75,0,2,7,30,330,552.7316396906972,553.6476508665364,"[72, 0, 182]",182,l,0.3930314478930086,colour,0.5
033,75,0,2,7,31,331,554.1690485153813,556.295660920674,"[5, 0, 249]",249,a,1.6033290221821517,colour,0.5
033,75,0,2,7,32,332,556.8096763214562,557.6636370725464,"[37, 0, 217]",217,a,0.3305911156348884,colour,0.5
033,75,0,2,7,33,333,558.1845522602089,559.2317121583037,"[38, 0, 216]",216,a,0.5237075551413,colour,0.5
033,75,0,2,7,34,334,559.7482824379113,560.4636633812916,"[73, 0, 181]",181,l,0.19226927706040442,colour,0.5
033,75,0,2,7,35,335,560.9827341884375,561.6396565819159,"[58, 0, 196]",196,a,0.13357166247442365,colour,0.5
033,75,0,2,7,36,336,562.1545727085322,562.8556956420653,"[46, 0, 208]",208,a,0.17775723664090037,colour,0.5
033,75,0,2,7,37,337,563.3733210347127,564.0076484875754,"[71, 0, 183]",183,l,0.111061398871243,colour,0.5
033,75,0,2,7,38,338,564.5139082747046,565.1116738293786,"[98, 0, 156]",156,l,0.07475195592269301,colour,0.5
033,75,0,2,7,39,339,565.623261170229,566.2796573855449,"[81, 0, 173]",173,l,0.1330407583154738,colour,0.5
033,75,0,2,7,40,340,566.7952135116793,568.5516438339837,"[39, 0, 215]",215,a,1.2338724033907056,colour,0.5
033,75,0,2,7,41,341,569.060887004016,569.7596370156389,"[48, 0, 206]",206,a,0.17428745375946164,colour,0.5
033,75,0,2,7,42,342,570.2807554278988,570.8236598209478,"[45, 0, 209]",209,a,0.01964621595107019,colour,0.5
033,75,0,2,7,43,343,571.3432099386118,571.9916398325004,"[65, 0, 189]",189,l,0.1250626214314252,colour,0.5
033,75,0,2,7,44,344,572.4995269910432,573.5756570135709,"[2, 0, 252]",252,a,0.552805679384619,colour,0.5
033,75,0,2,7,45,345,574.0931870955974,574.7516183126718,"[32, 0, 222]",222,a,0.13506945851258934,colour,0.5
033,75,0,2,7,46,346,575.2651603110135,575.9276178148575,"[97, 0, 157]",157,l,0.13932496379129589,colour,0.5
033,75,0,2,7,47,347,576.4370071017183,577.0636423500255,"[28, 0, 226]",226,a,0.1033073605503887,colour,0.5
033,75,0,2,7,48,348,577.5839120242745,578.3121949662454,"[31, 0, 223]",223,a,0.20499798352830112,colour,0.5
033,75,0,2,7,49,349,578.8340045779478,579.5436905093957,"[13, 0, 241]",241,a,0.18645965587347746,colour,0.5
033,75,0,2,7,50,350,580.0525855196174,581.0399950530846,"[66, 0, 188]",188,l,0.4639166241977364,colour,0.5
033,75,0,2,8,1,351,593.4288340110797,594.1676629653666,"[55, 0, 199]",199,l,0.2216682997532189,colour,0.5
033,75,0,2,8,2,352,594.6802983302623,595.8076578611508,"[95, 0, 159]",159,l,0.6042860676534474,colour,0.5
033,75,0,2,8,3,353,596.3208843888715,597.0636269899551,"[84, 0, 170]",170,l,0.21952971653081477,colour,0.5
033,75,0,2,8,4,354,597.5708237364888,598.1196366061922,"[99, 0, 155]",155,l,0.025477498769760132,colour,0.5
033,75,0,2,8,5,355,598.6333097550087,599.3436837352347,"[23, 0, 231]",231,a,0.1871201356407255,colour,0.5
033,75,0,2,8,6,356,599.8520423274022,600.4236502111889,"[77, 0, 177]",177,l,0.048235885333269835,colour,0.5
033,75,0,2,8,7,357,600.930089985719,601.4556801244617,"[37, 0, 217]",217,l,0.0022575247567147017,colour,0.5
033,75,0,2,8,8,358,601.9770206657704,603.023638238199,"[63, 0, 191]",191,a,0.5233546693343669,colour,0.5
033,75,0,2,8,9,359,603.5395291333552,604.103687815601,"[65, 0, 189]",189,a,0.04089144663885236,colour,0.5
033,75,0,2,8,10,360,604.6188658496831,605.2076269048266,"[61, 0, 193]",193,a,0.06550169666297734,colour,0.5
033,75,0,2,8,11,361,605.7281829051208,606.3676484718453,"[69, 0, 185]",185,a,0.11617430672049522,colour,0.5
033,75,0,2,8,12,362,606.8844743573572,607.4796385595109,"[64, 0, 190]",190,a,0.07180638215504587,colour,0.5
033,75,0,2,8,13,363,607.9937843235675,608.6636461308226,"[3, 0, 251]",251,a,0.14650438097305596,colour,0.5
033,75,0,2,8,14,364,609.1813365081325,609.7676222417504,"[42, 0, 212]",212,a,0.06315910117700696,colour,0.5
033,75,0,2,8,15,365,610.2750545081217,611.9996455386281,"[54, 0, 200]",200,a,1.201164287282154,colour,0.5
033,75,0,2,8,16,366,612.5094282773789,613.1436237918679,"[76, 0, 178]",178,l,0.11094639590010047,colour,0.5
033,75,0,2,8,17,367,613.6500332404394,614.2476109305862,"[10, 0, 244]",244,a,0.07426279922947288,colour,0.5
033,75,0,2,8,18,368,614.7593534467742,615.6316355159506,"[7, 0, 247]",247,a,0.3490282245911658,colour,0.5
033,75,0,2,8,19,369,616.150045055896,616.7276173422579,"[82, 0, 172]",172,l,0.054204226238653064,colour,0.5
033,75,0,2,8,20,370,617.2437658128329,617.8396149131004,"[9, 0, 245]",245,a,0.07282801857218146,colour,0.5
033,75,0,2,8,21,371,618.3531458836515,619.031631341204,"[14, 0, 240]",240,a,0.15519498521462083,colour,0.5
033,75,0,2,8,22,372,619.5407386342995,622.2956554067787,"[31, 0, 223]",223,a,2.23166647227481,colour,0.5
033,75,0,2,8,23,373,622.8064215788618,624.8716448263731,"[25, 0, 229]",229,a,1.541975310537964,colour,0.5
033,75,0,2,8,24,374,625.3854314030614,625.9756425989326,"[47, 0, 207]",207,a,0.06675845896825194,colour,0.5
033,75,0,2,8,25,375,626.4948161998764,627.119576347759,"[79, 0, 175]",175,l,0.10127708478830755,colour,0.5
033,75,0,2,8,26,376,627.6355657044332,628.2156294602901,"[83, 0, 171]",171,l,0.056740594329312444,colour,0.5
033,75,0,2,8,27,377,628.7293349043466,629.3277117079124,"[72, 0, 182]",182,a,0.07578580151312053,colour,0.5
033,75,0,2,8,28,378,629.8386941014323,630.5036529207136,"[96, 0, 158]",158,l,0.14177114074118435,colour,0.5
033,75,0,2,8,29,379,631.010538529139,631.6395959297661,"[44, 0, 210]",210,a,0.10576614062301815,colour,0.5
033,75,0,2,8,30,380,632.1511088337284,632.679589801468,"[41, 0, 213]",213,a,0.005064858589321375,colour,0.5
033,75,0,2,8,31,381,633.1980851998087,633.9276048180182,"[94, 0, 160]",160,l,0.20641976734623313,colour,0.5
033,75,0,2,8,32,382,634.4500099248253,635.1036897848826,"[33, 0, 221]",221,a,0.13031534454785287,colour,0.5
033,75,0,2,8,33,383,635.616286552744,636.4396104232874,"[35, 0, 219]",219,a,0.3000377304852009,colour,0.5
033,75,0,2,8,34,384,636.9599793467205,637.6076735362876,"[4, 0, 250]",250,a,0.12432455434463918,colour,0.5
033,75,0,2,8,35,385,638.116237715818,638.7755865938962,"[71, 0, 183]",183,l,0.13601980870589614,colour,0.5
033,75,0,2,8,36,386,639.2787042784039,639.887581407791,"[11, 0, 243]",243,a,0.085548453964293,colour,0.5
033,75,0,2,8,37,387,640.40370506607,640.9276741349604,"[39, 0, 215]",215,a,0.0006136118900030851,colour,0.5
033,75,0,2,8,38,388,641.4505991183687,643.3995952839032,"[27, 0, 227]",227,a,1.4257631946820766,colour,0.5
033,75,0,2,8,39,389,643.9135606663767,644.6155729040038,"[67, 0, 187]",187,l,0.18797163059934974,colour,0.5
033,75,0,2,8,40,390,645.1232615639456,645.8156856226269,"[78, 0, 176]",176,l,0.16894532786682248,colour,0.5
033,75,0,2,8,41,391,646.3264155609068,646.9596134638414,"[15, 0, 239]",239,a,0.10985977528616786,colour,0.5
033,75,0,2,8,42,392,647.4669807455502,648.1356157227419,"[92, 0, 162]",162,l,0.14542248635552824,colour,0.5
033,75,0,2,8,43,393,648.6544813362416,649.287604014622,"[93, 0, 161]",161,l,0.10980503051541746,colour,0.5
033,75,0,2,8,44,394,649.7951189887244,650.3356441585347,"[49, 0, 205]",205,a,0.01792865409515798,colour,0.5
033,75,0,2,8,45,395,650.8420776317362,651.4636090307031,"[22, 0, 232]",232,a,0.09832324041053653,colour,0.5
033,75,0,2,8,46,396,651.9826589638833,652.5276834296528,"[5, 0, 249]",249,a,0.02169382106512785,colour,0.5
033,75,0,2,8,47,397,653.0451040223707,653.655588831054,"[80, 0, 174]",174,l,0.08708602865226567,colour,0.5
033,75,0,2,8,48,398,654.1701646747533,656.5036489823833,"[17, 0, 237]",237,a,1.8089260451961309,colour,0.5
033,75,0,2,8,49,399,657.0151402247138,657.6396368897986,"[75, 0, 179]",179,l,0.10135191562585533,colour,0.5
033,75,0,2,8,50,400,658.1557341602165,658.7835942693055,"[20, 0, 234]",234,a,0.10458814748562872,colour,0.5
033,75,0,2,9,1,401,671.3122560123447,671.9195569704752,"[56, 0, 198]",198,a,0.0833882091101259,colour,0.5
033,75,0,2,9,2,402,672.4381563442294,673.1275737830438,"[35, 0, 219]",219,a,0.16644873865880072,colour,0.5
033,75,0,2,9,3,403,673.6412642609794,674.3998107174411,"[14, 0, 240]",240,a,0.23555727605707943,colour,0.5
033,75,0,2,9,4,404,674.9079656912945,675.5755758814048,"[65, 0, 189]",189,a,0.14419014262966812,colour,0.5
033,75,0,2,9,5,405,676.0955434758216,677.0715775575954,"[49, 0, 205]",205,a,0.45271485880948603,colour,0.5
033,75,0,2,9,6,406,677.5798821926583,678.1755367331207,"[77, 0, 177]",177,l,0.07230499107390642,colour,0.5
033,75,0,2,9,7,407,678.6892236666754,679.3038411003072,"[91, 0, 163]",163,l,0.09134625969454646,colour,0.5
033,75,0,2,9,8,408,679.8142358758487,680.5357501818798,"[87, 0, 167]",167,l,0.19830496585927904,colour,0.5
033,75,0,2,9,9,409,681.048714801902,681.7915826460812,"[58, 0, 196]",196,a,0.21978729171678424,colour,0.5
033,75,0,2,9,10,410,682.298684081994,683.1835609499831,"[42, 0, 212]",212,a,0.3617285741493106,colour,0.5
033,75,0,2,9,11,411,683.7047853067052,685.6075549887028,"[7, 0, 247]",247,a,1.379277560627088,colour,0.5
033,75,0,2,9,12,412,686.1267711250111,686.9438273315318,"[18, 0, 236]",236,a,0.293687752680853,colour,0.5
033,75,0,2,9,13,413,687.454869983485,688.0075941369869,"[22, 0, 232]",232,a,0.029942136257886887,colour,0.5
033,75,0,2,9,14,414,688.5174146848731,689.3276270308997,"[55, 0, 199]",199,l,0.2872972087934613,colour,0.5
033,75,0,2,9,15,415,689.8466285213362,690.9915760294534,"[3, 0, 251]",251,a,0.6218082725536078,colour,0.5
033,75,0,2,9,16,416,691.5029829889536,693.3996137946378,"[6, 0, 248]",248,a,1.373346634907648,colour,0.5
033,75,0,2,9,17,417,693.9092346627731,694.4715517212171,"[0, 0, 254]",254,a,0.03895845077931881,colour,0.5
033,75,0,2,9,18,418,694.9873768442776,695.5596188199706,"[96, 0, 158]",158,l,0.04894126323051751,colour,0.5
033,75,0,2,9,19,419,696.0810999642126,696.6796181583777,"[83, 0, 171]",171,l,0.07575350604020059,colour,0.5
033,75,0,2,9,20,420,697.1904469518922,697.7275562961586,"[37, 0, 217]",217,a,0.013712927233427763,colour,0.5
033,75,0,2,9,21,421,698.2374134720303,698.919560515089,"[30, 0, 224]",224,a,0.1588628722820431,colour,0.5
033,75,0,2,9,22,422,699.4424315416254,700.0156014184467,"[44, 0, 210]",210,a,0.04997117049060762,colour,0.5
033,75,0,2,9,23,423,700.5360601386055,701.287555177696,"[73, 0, 181]",181,l,0.22810059133917093,colour,0.5
033,75,0,2,9,24,424,701.8017864061985,702.399557474535,"[98, 0, 156]",156,l,0.07445617741905153,colour,0.5
033,75,0,2,9,25,425,702.9111645077355,703.5036627668887,"[25, 0, 229]",229,a,0.06919360836036503,colour,0.5
033,75,0,2,9,26,426,704.0205079508014,704.7675864018966,"[60, 0, 194]",194,a,0.22412314149551094,colour,0.5
033,75,0,2,9,27,427,705.2860818000045,707.4955971962772,"[2, 0, 252]",252,a,1.6861583637073636,colour,0.5
033,75,0,2,9,28,428,708.0048754184972,708.7675415033009,"[1, 0, 253]",253,a,0.2393338647671044,colour,0.5
033,75,0,2,9,29,429,709.2860609262716,709.9919486076105,"[53, 0, 201]",201,l,0.18255546130239964,colour,0.5
033,75,0,2,9,30,430,710.5047785325442,711.2555670118891,"[31, 0, 223]",223,a,0.22733968100510538,colour,0.5
033,75,0,2,9,31,431,711.770452812314,712.367620508885,"[9, 0, 245]",245,a,0.07389297802001238,colour,0.5
033,75,0,2,9,32,432,712.8798072831705,713.4955794732086,"[70, 0, 184]",184,l,0.0925561545882374,colour,0.5
033,75,0,2,9,33,433,714.0047710493673,714.6475591002963,"[39, 0, 215]",215,a,0.1193892708979547,colour,0.5
033,75,0,2,9,34,434,715.1611302432138,715.7435732220765,"[12, 0, 242]",242,a,0.05922458041459322,colour,0.5
033,75,0,2,9,35,435,716.2548017692752,716.935620370321,"[54, 0, 200]",200,a,0.15746550704352558,colour,0.5
033,75,0,2,9,36,436,717.442335837055,719.447604707675,"[40, 0, 214]",214,a,1.482087099691853,colour,0.5
033,75,0,2,9,37,437,719.9592751502059,720.5355442003347,"[34, 0, 220]",220,a,0.05305577162653208,colour,0.5
033,75,0,2,9,38,438,721.0528797225561,721.639561271295,"[50, 0, 204]",204,a,0.06320084887556732,colour,0.5
033,75,0,2,9,39,439,722.1466823993251,722.8235968055669,"[13, 0, 241]",241,a,0.153584155254066,colour,0.5
033,75,0,2,9,40,440,723.334122731816,723.9675742713735,"[66, 0, 188]",188,l,0.11004448891617358,colour,0.5
033,75,0,2,9,41,441,724.4914614204317,725.0796001991257,"[36, 0, 218]",218,a,0.0649038387928158,colour,0.5
033,75,0,2,9,42,442,725.6008379464038,726.5115621346049,"[64, 0, 190]",190,l,0.3875124850310385,colour,0.5
033,75,0,2,9,43,443,727.0227044294588,727.6715640092734,"[81, 0, 173]",173,l,0.12561597488820553,colour,0.5
033,75,0,2,9,44,444,728.178943106439,728.9355794102885,"[72, 0, 182]",182,l,0.2333836406469345,colour,0.5
033,75,0,2,9,45,445,729.4463093485683,731.2235630925279,"[32, 0, 222]",222,a,1.2539459422696382,colour,0.5
033,75,0,2,9,46,446,731.7432301824447,732.4395761587657,"[67, 0, 187]",187,l,0.17312797158956528,colour,0.5
033,75,0,2,9,47,447,732.9463404624257,733.5835292059928,"[86, 0, 168]",168,l,0.11392859742045403,colour,0.5
033,75,0,2,9,48,448,734.1025460562669,734.6635405803099,"[59, 0, 195]",195,a,0.03750831028446555,colour,0.5
033,75,0,2,9,49,449,735.1806271916721,737.967616019072,"[69, 0, 185]",185,a,2.2637034750077873,colour,0.5
033,75,0,2,9,50,450,738.4903275379911,739.1515546673909,"[84, 0, 170]",170,l,0.1383222322911024,colour,0.5
033,75,0,2,10,1,451,745.8675543428399,746.6235514346045,"[83, 0, 171]",171,l,0.23198548750951886,colour,0.5
033,75,0,2,10,2,452,747.133945422247,749.2235130739864,"[38, 0, 216]",216,a,1.5664173883851618,colour,0.5
033,75,0,2,10,3,453,749.7445668953005,750.3277546369936,"[52, 0, 202]",202,a,0.060061896685510874,colour,0.5
033,75,0,2,10,4,454,750.8381765878294,751.6235703392886,"[65, 0, 189]",189,a,0.2619004484731704,colour,0.5
033,75,0,2,10,5,455,752.1350867878646,754.1115210170392,"[44, 0, 210]",210,a,1.453069713898003,colour,0.5
033,75,0,2,10,6,456,754.6194432277698,755.3757250702474,"[16, 0, 238]",238,a,0.2332182254176587,colour,0.5
033,75,0,2,10,7,457,755.8851238093339,756.6475126266014,"[99, 0, 155]",155,l,0.2390302096027881,colour,0.5
033,75,0,2,10,8,458,757.1663920246065,757.7595113788266,"[57, 0, 197]",197,a,0.06985133094713092,colour,0.5
033,75,0,2,10,9,459,758.27568190475,759.2075248989277,"[87, 0, 167]",167,l,0.4084922634065151,colour,0.5
033,75,0,2,10,10,460,759.7144806117285,760.2555358982645,"[56, 0, 198]",198,a,0.017936137272045016,colour,0.5
033,75,0,2,10,11,461,760.7769595407881,761.4075206452981,"[86, 0, 168]",168,l,0.1072993827983737,colour,0.5
033,75,0,2,10,12,462,761.9175853778142,762.4556687029544,"[28, 0, 226]",226,a,0.014795215800404549,colour,0.5
033,75,0,2,10,13,463,762.9645148762502,763.6155528177042,"[60, 0, 194]",194,l,0.13302736752666533,colour,0.5
033,75,0,2,10,14,464,764.131431503687,764.8955351263285,"[39, 0, 215]",215,a,0.2355407348368317,colour,0.5
033,75,0,2,10,15,465,765.4021907283459,766.1114981740247,"[71, 0, 183]",183,l,0.18591378559358418,colour,0.5
033,75,0,2,10,16,466,766.6209599284921,767.6235230776947,"[61, 0, 193]",193,a,0.47928016004152596,colour,0.5
033,75,0,2,10,17,467,768.1365975807421,768.7355111960787,"[90, 0, 164]",164,l,0.07561250915750861,colour,0.5
033,75,0,2,10,18,468,769.2458894299343,769.9115083352663,"[14, 0, 240]",240,a,0.14216695609502494,colour,0.5
033,75,0,2,10,19,469,770.417865402298,771.0955332356971,"[75, 0, 179]",179,l,0.15437027183361351,colour,0.5
033,75,0,2,10,20,470,771.6052517776843,772.1755387024023,"[96, 0, 158]",158,l,0.04681055713444948,colour,0.5
033,75,0,2,10,21,471,772.6833908085246,773.3037611497566,"[37, 0, 217]",217,a,0.0970735673326999,colour,0.5
033,75,0,2,10,22,472,773.8239796238486,774.6234951147344,"[6, 0, 248]",248,a,0.2761942984070629,colour,0.5
033,75,0,2,10,23,473,775.1363612732384,776.4474916739855,"[35, 0, 219]",219,a,0.7875496640335768,colour,0.5
033,75,0,2,10,24,474,776.9647102237213,777.6635078908876,"[79, 0, 175]",175,l,0.1804932840168476,colour,0.5
033,75,0,2,10,25,475,778.1785772235598,778.7594987757038,"[89, 0, 165]",165,l,0.05762280896306038,colour,0.5
033,75,0,2,10,26,476,779.2724066821393,779.8475249146577,"[21, 0, 233]",233,a,0.04592400975525379,colour,0.5
033,75,0,2,10,27,477,780.3563726632856,781.007490555523,"[9, 0, 245]",245,a,0.12783332751132548,colour,0.5
033,75,0,2,10,28,478,781.5282304817811,782.1834892700426,"[27, 0, 227]",227,a,0.1319060882087797,colour,0.5
033,75,0,2,10,29,479,782.7001265031286,783.5435727494769,"[46, 0, 208]",208,a,0.32019830914214253,colour,0.5
033,75,0,2,10,30,480,784.0595857370645,785.1115391340572,"[15, 0, 239]",239,a,0.5286262969020754,colour,0.5
033,75,0,2,10,31,481,785.6219981063623,786.3355248232838,"[24, 0, 230]",230,a,0.19023112463764846,colour,0.5
033,75,0,2,10,32,482,786.8564207123127,787.7915349907707,"[59, 0, 195]",195,a,0.4118860336020589,colour,0.5
033,75,0,2,10,33,483,788.3094849125482,788.9035042047035,"[72, 0, 182]",182,l,0.07071227836422622,colour,0.5
033,75,0,2,10,34,484,789.4188200847711,790.0875109881163,"[1, 0, 253]",253,a,0.15378107829019427,colour,0.5
033,75,0,2,10,35,485,790.5979337266181,791.2155097310897,"[95, 0, 159]",159,l,0.09446118725463748,colour,0.5
033,75,0,2,10,36,486,791.722899068147,792.2875335160643,"[58, 0, 196]",196,a,0.0417752368375659,colour,0.5
033,75,0,2,10,37,487,792.8011085973121,793.3355055246502,"[92, 0, 162]",162,l,0.011221457971259952,colour,0.5
033,75,0,2,10,38,488,793.8479439667426,794.4315810864791,"[36, 0, 218]",218,a,0.06609601015225053,colour,0.5
033,75,0,2,10,39,489,794.951558527071,795.5036470131017,"[76, 0, 178]",178,l,0.028738149208948016,colour,0.5
033,75,0,2,10,40,490,796.0140831423923,797.5595097248442,"[43, 0, 211]",211,a,1.0221376854460686,colour,0.5
033,75,0,2,10,41,491,798.0766179976054,798.6395144036505,"[70, 0, 184]",184,l,0.03956261044368148,colour,0.5
033,75,0,2,10,42,492,799.1547133114655,799.7755184585694,"[34, 0, 220]",220,a,0.09743393608368933,colour,0.5
033,75,0,2,10,43,493,800.2953446623869,801.0795174913947,"[63, 0, 191]",191,l,0.261075341142714,colour,0.5
033,75,0,2,10,44,494,801.5922115391586,802.1834900577087,"[20, 0, 234]",234,a,0.06807075371034443,colour,0.5
033,75,0,2,10,45,495,802.7015396223869,803.3595151598565,"[41, 0, 213]",213,a,0.13469136669300497,colour,0.5
033,75,0,2,10,46,496,803.8733986222651,804.4795310397167,"[13, 0, 241]",241,a,0.08299436327069998,colour,0.5
033,75,0,2,10,47,497,804.9984565177001,806.7995414845645,"[23, 0, 231]",231,a,1.2779094974976033,colour,0.5
033,75,0,2,10,48,498,807.3109070900828,808.1274615367875,"[0, 0, 254]",254,a,0.29318205430172384,colour,0.5
033,75,0,2,10,49,499,808.639835387934,809.2395118831191,"[88, 0, 166]",166,l,0.07723239762708545,colour,0.5
033,75,0,2,10,50,500,809.7495982770342,810.3995039116126,"[42, 0, 212]",212,a,0.126669512828812,colour,0.5
033,75,0,2,11,1,501,818.5613678898662,819.2555524397176,"[67, 0, 187]",187,l,0.17025013943202794,colour,0.5
033,75,0,2,11,2,502,819.7653052462265,820.3035228729714,"[44, 0, 210]",210,a,0.015382834011688828,colour,0.5
033,75,0,2,11,3,503,820.812081144657,821.4954857379198,"[56, 0, 198]",198,a,0.16002038540318608,colour,0.5
033,75,0,2,11,4,504,822.015200483147,822.6474771804642,"[25, 0, 229]",229,a,0.10920441546477377,colour,0.5
033,75,0,2,11,5,505,823.1558353786822,825.2555288090371,"[80, 0, 174]",174,l,1.576405714964494,colour,0.5
033,75,0,2,11,6,506,825.7664639409631,826.3435155630577,"[17, 0, 237]",237,a,0.053752091247588396,colour,0.5
033,75,0,2,11,7,507,826.8601846979,827.7435444714502,"[54, 0, 200]",200,a,0.36012325808405876,colour,0.5
033,75,0,2,11,8,508,828.2508613409009,828.7915054522455,"[82, 0, 172]",172,l,0.01735639595426619,colour,0.5
033,75,0,2,11,9,509,829.2977329439018,830.0074933124706,"[73, 0, 181]",181,l,0.1868267203681171,colour,0.5
033,75,0,2,11,10,510,830.5163221564144,831.0635119869839,"[72, 0, 182]",182,l,0.02387887821532786,colour,0.5
033,75,0,2,11,11,511,831.5730785042979,832.2234599047806,"[76, 0, 178]",178,l,0.1270318510942161,colour,0.5
033,75,0,2,11,12,512,832.7450375412591,834.2315042077098,"[97, 0, 157]",157,l,0.9631249939557165,colour,0.5
033,75,0,2,11,13,513,834.7450095782988,838.6874844429549,"[39, 0, 215]",215,a,3.4192568599246442,colour,0.5
033,75,0,2,11,14,514,839.1981513658538,839.8075877565425,"[94, 0, 160]",160,l,0.08511482970789075,colour,0.5
033,75,0,2,11,15,515,840.3243663804606,840.9915271925274,"[31, 0, 223]",223,a,0.14379432727582753,colour,0.5
033,75,0,2,11,16,516,841.5118350698613,842.1275060414337,"[45, 0, 209]",209,a,0.09225683170370758,colour,0.5
033,75,0,2,11,17,517,842.6368019867223,843.2634868596215,"[83, 0, 171]",171,l,0.10343929892405868,colour,0.5
033,75,0,2,11,18,518,843.7774309744127,846.1594654563814,"[23, 0, 231]",231,a,1.8587763048708439,colour,0.5
033,75,0,2,11,19,519,846.6681761466898,847.4555131339002,"[41, 0, 213]",213,a,0.26409141323529184,colour,0.5
033,75,0,2,11,20,520,847.9649355036672,848.655507698888,"[15, 0, 239]",239,a,0.1722181874793023,colour,0.5
033,75,0,2,11,21,521,849.1630608758423,851.0635029284749,"[8, 0, 246]",246,a,1.3708551654126495,colour,0.5
033,75,0,2,11,22,522,851.5755770630203,852.1755509115756,"[49, 0, 205]",205,a,0.07677396084181964,colour,0.5
033,75,0,2,11,23,523,852.6849212937523,853.3754663134459,"[5, 0, 249]",249,a,0.1671312735415995,colour,0.5
033,75,0,2,11,24,524,853.8880792290438,854.4634959967807,"[86, 0, 168]",168,l,0.05197820928879082,colour,0.5
033,75,0,2,11,25,525,854.9818255859427,856.4955168517772,"[61, 0, 193]",193,a,0.9905473040416837,colour,0.5
033,75,0,2,11,26,526,857.0130552044138,857.575498687569,"[46, 0, 208]",208,l,0.03911559539847076,colour,0.5
033,75,0,2,11,27,527,858.0911808444653,859.1754319700412,"[51, 0, 203]",203,a,0.5608602224383503,colour,0.5
033,75,0,2,11,28,528,859.6862300436478,861.6554375942796,"[37, 0, 217]",217,a,1.4462991086766124,colour,0.5
033,75,0,2,11,29,529,862.1706093268003,862.8314370964654,"[84, 0, 170]",170,l,0.13756683561950922,colour,0.5
033,75,0,2,11,30,530,863.342460449785,863.8875999185257,"[79, 0, 175]",175,l,0.021796220913529396,colour,0.5
033,75,0,2,11,31,531,864.4049854590558,865.0794635345228,"[92, 0, 162]",162,l,0.15114821842871606,colour,0.5
033,75,0,2,11,32,532,865.5924632067326,866.175468597794,"[3, 0, 251]",251,a,0.06012215535156429,colour,0.5
033,75,0,2,11,33,533,866.6861567883752,867.4394540663343,"[89, 0, 165]",165,l,0.23011078080162406,colour,0.5
033,75,0,2,11,34,534,867.9516975546721,868.5274427898694,"[91, 0, 163]",163,l,0.05244019068777561,colour,0.5
033,75,0,2,11,35,535,869.0455092899501,869.6155213101301,"[53, 0, 201]",201,a,0.044743259670212865,colour,0.5
033,75,0,2,11,36,536,870.1256876548287,870.9514962993562,"[32, 0, 222]",222,a,0.30245830747298896,colour,0.5
033,75,0,2,11,37,537,871.47398214438,872.0715090283193,"[43, 0, 211]",211,a,0.07430139603093266,colour,0.5
033,75,0,2,11,38,538,872.5833421291318,873.1994597220328,"[96, 0, 158]",158,l,0.09290273883379996,colour,0.5
033,75,0,2,11,39,539,873.7083161352202,875.9194195182063,"[88, 0, 166]",166,l,1.6880669412203133,colour,0.5
033,75,0,2,11,40,540,876.4271601659711,877.0155844830442,"[85, 0, 169]",169,l,0.065351641504094,colour,0.5
033,75,0,2,11,41,541,877.536463042954,878.2074291943572,"[58, 0, 196]",196,a,0.14768985752016306,colour,0.5
033,75,0,2,11,42,542,878.7239951414522,879.3114911634475,"[22, 0, 232]",232,a,0.06419176515191793,colour,0.5
033,75,0,2,11,43,543,879.8188344207592,880.6474342511501,"[7, 0, 247]",247,a,0.3048458013217896,colour,0.5
033,75,0,2,11,44,544,881.162724137539,882.3834460256621,"[28, 0, 226]",226,a,0.6974826157093048,colour,0.5
033,75,0,2,11,45,545,882.8970144113991,883.5356418741867,"[6, 0, 248]",248,a,0.11567333480343223,colour,0.5
033,75,0,2,11,46,546,884.0532007068396,884.615468534641,"[35, 0, 219]",219,a,0.03887180471792817,colour,0.5
033,75,0,2,11,47,547,885.1312653007917,885.8636899266858,"[1, 0, 253]",253,a,0.2091802335344255,colour,0.5
033,75,0,2,11,48,548,886.3812436393928,887.1274398753885,"[48, 0, 206]",206,a,0.22291285288520157,colour,0.5
033,75,0,2,11,49,549,887.6469951129984,888.2314675799571,"[70, 0, 184]",184,l,0.05524555500596762,colour,0.5
033,75,0,2,11,50,550,888.7467468325049,889.4074568422511,"[2, 0, 252]",252,a,0.1377692725509405,colour,0.5
033,75,0,2,12,1,551,899.1845865247305,901.1914414130151,"[90, 0, 164]",164,l,1.4827400965150446,colour,0.5
033,75,0,2,12,2,552,901.7009807550348,902.3114395698067,"[6, 0, 248]",248,a,0.08714077319018543,colour,0.5
033,75,0,2,12,3,553,902.826007142663,903.7194667009171,"[60, 0, 194]",194,a,0.3702328889630735,colour,0.5
033,75,0,2,12,4,554,904.2322166750673,904.8714049742557,"[14, 0, 240]",240,a,0.11468635685741901,colour,0.5
033,75,0,2,12,5,555,905.3896026250441,906.1194396831561,"[32, 0, 222]",222,a,0.20659542246721685,colour,0.5
033,75,0,2,12,6,556,906.6395852959249,907.1914288098924,"[93, 0, 161]",161,l,0.028578641591593623,colour,0.5
033,75,0,2,12,7,557,907.7020130250603,908.2474750536494,"[36, 0, 218]",218,a,0.02205340238288045,colour,0.5
033,75,0,2,12,8,558,908.7646699727047,910.7674804572016,"[98, 0, 156]",156,l,1.4797425349242985,colour,0.5
033,75,0,2,12,9,559,911.2801658406388,911.8314855394419,"[43, 0, 211]",211,a,0.027896894374862313,colour,0.5
033,75,0,2,12,10,560,912.3421524623409,912.9834840712138,"[59, 0, 195]",195,a,0.11805925332009792,colour,0.5
033,75,0,2,12,11,561,913.4984112253878,914.0954481649678,"[18, 0, 236]",236,a,0.07397962384857237,colour,0.5
033,75,0,2,12,12,562,914.609213473741,915.527436488308,"[31, 0, 223]",223,a,0.39496483746916056,colour,0.5
033,75,0,2,12,13,563,916.0467396646272,916.7594168558717,"[39, 0, 215]",215,a,0.18936545122414827,colour,0.5
033,75,0,2,12,14,564,917.2810630216263,917.9194356659427,"[52, 0, 202]",202,a,0.11509004887193441,colour,0.5
033,75,0,2,12,15,565,918.4372898831498,920.4074170638341,"[3, 0, 251]",251,a,1.4472589110955596,colour,0.5
033,75,0,2,12,16,566,920.9278592425399,921.8474292100873,"[29, 0, 225]",225,a,0.39625586452893913,colour,0.5
033,75,0,2,12,17,567,922.3654074885417,923.0714349853806,"[73, 0, 181]",181,l,0.1830091718584299,colour,0.5
033,75,0,2,12,18,568,923.5841766886879,924.1754741116893,"[10, 0, 244]",244,a,0.06821175059303641,colour,0.5
033,75,0,2,12,19,569,924.6935736946762,925.3755368117709,"[44, 0, 210]",210,a,0.1588372723199427,colour,0.5
033,75,0,2,12,20,570,925.8966717654839,926.6714190740604,"[49, 0, 205]",205,a,0.25182035588659346,colour,0.5
033,75,0,2,12,21,571,927.1778446701355,927.839415627066,"[63, 0, 191]",191,l,0.1381556352134794,colour,0.5
033,75,0,2,12,22,572,928.3497540825047,929.071410567034,"[95, 0, 159]",159,l,0.19831835688091815,colour,0.5
033,75,0,2,12,23,573,929.5841097347438,930.2634514134843,"[62, 0, 192]",192,a,0.15612840000540018,colour,0.5
033,75,0,2,12,24,574,930.7715847257059,931.4234060267918,"[0, 0, 254]",254,a,0.12850168417207897,colour,0.5
033,75,0,2,12,25,575,931.943506740965,932.4794400613755,"[48, 0, 206]",206,a,0.012646392686292529,colour,0.5
033,75,0,2,12,26,576,932.9903373841662,933.7034344151616,"[74, 0, 180]",180,l,0.1896698942873627,colour,0.5
033,75,0,2,12,27,577,934.2247674732935,936.3434446707834,"[7, 0, 247]",247,a,1.5953725466970354,colour,0.5
033,75,0,2,12,28,578,936.8496729503386,937.551423280267,"[72, 0, 182]",182,l,0.17840314377099276,colour,0.5
033,75,0,2,12,29,579,938.0685705440119,938.6393982190639,"[99, 0, 155]",155,l,0.04752026731148362,colour,0.5
033,75,0,2,12,30,580,939.1466075687204,939.7354875653982,"[58, 0, 196]",196,a,0.06552178272977471,colour,0.5
033,75,0,2,12,31,581,940.256035688566,940.8955067694187,"[61, 0, 193]",193,a,0.11607978376559913,colour,0.5
033,75,0,2,12,32,582,941.4121522733476,942.1594638810493,"[30, 0, 224]",224,a,0.22398135694675148,colour,0.5
033,75,0,2,12,33,583,942.6777891379315,944.2794541609474,"[56, 0, 198]",198,a,1.0783733690623194,colour,0.5
033,75,0,2,12,34,584,944.7872834240552,945.4154593974818,"[54, 0, 200]",200,a,0.10567555599845946,colour,0.5
033,75,0,2,12,35,585,945.9278537286445,946.6554793419782,"[51, 0, 203]",203,a,0.20464785466901958,colour,0.5
033,75,0,2,12,36,586,947.1622208026238,948.1274032476358,"[69, 0, 185]",185,a,0.44185219425708055,colour,0.5
033,75,0,2,12,37,587,948.6465622764081,949.2313990509138,"[79, 0, 175]",175,l,0.06156205595470965,colour,0.5
033,75,0,2,12,38,588,949.7416248663794,950.4553867094219,"[64, 0, 190]",190,a,0.19058401067741215,colour,0.5
033,75,0,2,12,39,589,950.9759635832161,951.8314343395177,"[23, 0, 231]",231,a,0.3321897361893207,colour,0.5
033,75,0,2,12,40,590,952.3509458601475,953.0074129677378,"[35, 0, 219]",219,a,0.13350392109714448,colour,0.5
033,75,0,2,12,41,591,953.5229423125274,954.2394496554043,"[65, 0, 189]",189,l,0.19338307343423367,colour,0.5
033,75,0,2,12,42,592,954.7571085249074,955.3994251424447,"[11, 0, 243]",243,a,0.11895761592313647,colour,0.5
033,75,0,2,12,43,593,955.9135043462738,956.695439342875,"[24, 0, 230]",230,a,0.25875834561884403,colour,0.5
033,75,0,2,12,44,594,957.2103747678921,958.0794056390878,"[53, 0, 201]",201,a,0.34571401099674404,colour,0.5
033,75,0,2,12,45,595,958.600922229467,959.2315565892495,"[16, 0, 238]",238,a,0.10731828748248518,colour,0.5
033,75,0,2,12,46,596,959.7426697395276,960.3593958246056,"[81, 0, 173]",173,l,0.09333833260461688,colour,0.5
033,75,0,2,12,47,597,960.8677792288363,961.639408852905,"[86, 0, 168]",168,l,0.24840413639321923,colour,0.5
033,75,0,2,12,48,598,962.1489568594843,962.7193843871355,"[26, 0, 228]",228,a,0.04714335664175451,colour,0.5
033,75,0,2,12,49,599,963.227117945673,963.8714049742557,"[46, 0, 208]",208,a,0.12097843922674656,colour,0.5
033,75,0,2,12,50,600,964.3833830102812,965.0313918828033,"[9, 0, 245]",245,a,0.12467901548370719,colour,0.5
033,75,0,2,13,1,601,972.6503916403744,973.319429128198,"[59, 0, 195]",195,a,0.14492348372004926,colour,0.5
033,75,0,2,13,2,602,973.8386436891742,974.44736209861,"[92, 0, 162]",162,l,0.0854263617657125,colour,0.5
033,75,0,2,13,3,603,974.9637299412861,975.5674264216796,"[42, 0, 212]",212,a,0.08054621703922749,colour,0.5
033,75,0,2,13,4,604,976.0885976091959,976.6314129929524,"[39, 0, 215]",215,a,0.019399274606257677,colour,0.5
033,75,0,2,13,5,605,977.1511655475479,979.1194203847554,"[56, 0, 198]",198,a,1.4449025311041623,colour,0.5
033,75,0,2,13,6,606,979.6355597968213,980.2313962939661,"[57, 0, 197]",197,a,0.07265039393678308,colour,0.5
033,75,0,2,13,7,607,980.744907572167,981.4393823863938,"[51, 0, 203]",203,a,0.17126783728599548,colour,0.5
033,75,0,2,13,8,608,981.9480056429747,982.9754039281979,"[63, 0, 191]",191,a,0.5042302990332246,colour,0.5
033,75,0,2,13,9,609,983.4948666121345,984.0873948035296,"[94, 0, 160]",160,l,0.06930900504812598,colour,0.5
033,75,0,2,13,10,610,984.6064486755058,985.2553799352609,"[49, 0, 205]",205,a,0.12606535339727998,colour,0.5
033,75,0,2,13,11,611,985.7639945270494,986.3514015399851,"[89, 0, 165]",165,l,0.06412678048945963,colour,0.5
033,75,0,2,13,12,612,986.857848797692,988.6714509755839,"[1, 0, 253]",253,a,1.2903660561423749,colour,0.5
033,75,0,2,13,13,613,989.1858117794618,989.9753854174633,"[43, 0, 211]",211,a,0.2667282116599381,colour,0.5
033,75,0,2,13,14,614,990.4827790870331,991.2233831048943,"[90, 0, 164]",164,l,0.21745493612252176,colour,0.5
033,75,0,2,13,15,615,991.732753487071,992.2954057084862,"[55, 0, 199]",199,a,0.03946414892561734,colour,0.5
033,75,0,2,13,16,616,992.8108484069817,993.6793802755419,"[45, 0, 209]",209,a,0.34520279918797314,colour,0.5
033,75,0,2,13,17,617,994.1858716439456,994.7834335800726,"[53, 0, 201]",201,a,0.07333489810116589,colour,0.5
033,75,0,2,13,18,618,995.2968318245839,996.03140369826,"[12, 0, 242]",242,a,0.21113843517377973,colour,0.5
033,75,0,2,13,19,619,996.5468999599107,997.1114363402594,"[76, 0, 178]",178,l,0.041325464844703674,colour,0.5
033,75,0,2,13,20,620,997.6249866092112,998.2554342858493,"[73, 0, 181]",181,l,0.1072694503236562,colour,0.5
033,75,0,2,13,21,621,998.7656348953024,999.335398792522,"[21, 0, 233]",233,a,0.04667507391422987,colour,0.5
033,75,0,2,13,22,622,999.843631353695,1000.5354288036469,"[52, 0, 202]",202,a,0.16869090357795358,colour,0.5
033,75,0,2,13,23,623,1001.0467731414828,1001.5834043568466,"[87, 0, 167]",167,l,0.013213530648499727,colour,0.5
033,75,0,2,13,24,624,1002.0936904307455,1003.7833689893596,"[48, 0, 206]",206,a,1.1666334522888064,colour,0.5
033,75,0,2,13,25,625,1004.2968826305587,1004.9194120352622,"[98, 0, 156]",156,l,0.09813498216681182,colour,0.5
033,75,0,2,13,26,626,1005.4385962700471,1007.1673900303431,"[15, 0, 239]",239,a,1.2053130604326725,colour,0.5
033,75,0,2,13,27,627,1007.6885048977565,1008.3514035092667,"[82, 0, 172]",172,l,0.1394580837804824,colour,0.5
033,75,0,2,13,28,628,1008.8605541253928,1009.5353799667209,"[7, 0, 247]",247,a,0.1519941994920373,colour,0.5
033,75,0,2,13,29,629,1010.0478865439072,1010.7594046466984,"[44, 0, 210]",210,a,0.18820478743873537,colour,0.5
033,75,0,2,13,30,630,1011.2667262423784,1013.0953556112945,"[38, 0, 216]",216,a,1.3053349580150098,colour,0.5
033,75,0,2,13,31,631,1013.6104907160625,1014.3034236237872,"[41, 0, 213]",213,a,0.16968772746622562,colour,0.5
033,75,0,2,13,32,632,1014.8147218816448,1015.3673877459951,"[34, 0, 220]",220,a,0.02947070263326168,colour,0.5
033,75,0,2,13,33,633,1015.8772811554372,1016.6633952511474,"[64, 0, 190]",190,l,0.26287797396071255,colour,0.5
033,75,0,2,13,34,634,1017.174095650902,1018.7673808143009,"[31, 0, 223]",223,a,1.0699549126438797,colour,0.5
033,75,0,2,13,35,635,1019.2834607555997,1020.2794415578246,"[88, 0, 166]",166,l,0.4726032898761332,colour,0.5
033,75,0,2,13,36,636,1020.7991078600753,1021.5273671713658,"[78, 0, 176]",176,l,0.20526894950307906,colour,0.5
033,75,0,2,13,37,637,1022.0335040786304,1022.5994393995497,"[26, 0, 228]",228,a,0.04263342707417905,colour,0.5
033,75,0,2,13,38,638,1023.1116041184869,1023.6393584406469,"[46, 0, 208]",208,a,0.004481572657823563,colour,0.5
033,75,0,2,13,39,639,1024.1585430693813,1024.8713703157846,"[9, 0, 245]",245,a,0.18842061469331384,colour,0.5
033,75,0,2,13,40,640,1025.3783488718327,1025.9193872229662,"[91, 0, 163]",163,l,0.01762775587849319,colour,0.5
033,75,0,2,13,41,641,1026.4409341393039,1027.3513885431457,"[61, 0, 193]",193,a,0.38730532210320234,colour,0.5
033,75,0,2,13,42,642,1027.862797077978,1028.5033457209356,"[58, 0, 196]",196,a,0.11767919198609889,colour,0.5
033,75,0,2,13,43,643,1029.0190101547632,1029.775343197165,"[37, 0, 217]",217,a,0.23301106225699186,colour,0.5
033,75,0,2,13,44,644,1030.284636385506,1030.8633870589547,"[16, 0, 238]",238,a,0.055518096312880516,colour,0.5
033,75,0,2,13,45,645,1031.378279948607,1032.295351357665,"[2, 0, 252]",252,a,0.3936072504147887,colour,0.5
033,75,0,2,13,46,646,1032.8159112962894,1033.5279941740446,"[40, 0, 214]",214,a,0.1888404544442892,colour,0.5
033,75,0,2,13,47,647,1034.034589911811,1034.831623779377,"[47, 0, 207]",207,a,0.27368628745898604,colour,0.5
033,75,0,2,13,48,648,1035.3471491856035,1036.1193447662517,"[62, 0, 192]",192,a,0.24889092985540628,colour,0.5
033,75,0,2,13,49,649,1036.6283587180078,1038.5913663459942,"[66, 0, 188]",188,a,1.439734485000372,colour,0.5
033,75,0,2,13,50,650,1039.112748241052,1039.6874100060668,"[17, 0, 237]",237,a,0.0496253736782819,colour,0.5
033,75,0,2,14,1,651,1046.7074843326118,1047.4634077753872,"[83, 0, 171]",171,l,0.2318803307134658,colour,0.5
033,75,0,2,14,2,652,1047.9739896275569,1049.9593566763215,"[41, 0, 213]",213,a,1.46211359789595,colour,0.5
033,75,0,2,14,3,653,1050.475032925373,1053.2874153624289,"[56, 0, 198]",198,a,2.2891348937992007,colour,0.5
033,75,0,2,14,4,654,1053.8032038577367,1054.5193744623102,"[63, 0, 191]",191,a,0.19287973828613758,colour,0.5
033,75,0,2,14,5,655,1055.0376560022123,1055.7913424000144,"[58, 0, 196]",196,a,0.2304924177005887,colour,0.5
033,75,0,2,14,6,656,1056.3032306393143,1058.3673857767135,"[53, 0, 201]",201,a,1.5408122835215181,colour,0.5
033,75,0,2,14,7,657,1058.8813090177719,1060.8873754264787,"[74, 0, 180]",180,a,1.4831264591775835,colour,0.5
033,75,0,2,14,8,658,1061.3969576975796,1062.0473292518873,"[76, 0, 178]",178,l,0.1271641831845045,colour,0.5
033,75,0,2,14,9,659,1062.5531447806861,1063.1993297529407,"[61, 0, 193]",193,a,0.12292403820902109,colour,0.5
033,75,0,2,14,10,660,1063.7094326885417,1064.3434029230848,"[87, 0, 167]",167,l,0.11072426685132086,colour,0.5
033,75,0,2,14,11,661,1064.8512609370518,1065.4953254426364,"[11, 0, 243]",243,a,0.1208082977682352,colour,0.5
033,75,0,2,14,12,662,1066.0074362047017,1066.639392311452,"[31, 0, 223]",223,a,0.10879875416867435,colour,0.5
033,75,0,2,14,13,663,1067.1480927616358,1069.6713529077824,"[40, 0, 214]",214,a,2.0001201229169965,colour,0.5
033,75,0,2,14,14,664,1070.179251881782,1070.7833658386953,"[27, 0, 227]",227,a,0.08073486923240125,colour,0.5
033,75,0,2,14,15,665,1071.3043353769463,1072.087403468322,"[48, 0, 206]",206,a,0.25975438207387924,colour,0.5
033,75,0,2,14,16,666,1072.601173109375,1073.151362470584,"[29, 0, 225]",225,a,0.026948513463139534,colour,0.5
033,75,0,2,14,17,667,1073.6636488877703,1074.2473127890844,"[86, 0, 168]",168,l,0.0603143519256264,colour,0.5
033,75,0,2,14,18,668,1074.7586602778174,1076.7993618906476,"[24, 0, 230]",230,a,1.5177423649001867,colour,0.5
033,75,0,2,14,19,669,1077.3054645333905,1078.1513538057916,"[72, 0, 182]",182,l,0.3225720184855163,colour,0.5
033,75,0,2,14,20,670,1078.6648453916423,1080.887373457197,"[39, 0, 215]",215,a,1.6992001777980477,colour,0.5
033,75,0,2,14,21,671,1081.3992309763562,1082.9913523250725,"[10, 0, 244]",244,a,1.0689053132664412,colour,0.5
033,75,0,2,14,22,672,1083.5086279825773,1084.1594158317894,"[82, 0, 172]",172,l,0.12581211025826633,colour,0.5
033,75,0,2,14,23,673,1084.666774055222,1086.5193228684366,"[8, 0, 246]",246,a,1.3295241869054735,colour,0.5
033,75,0,2,14,24,674,1087.026221867418,1087.983336379053,"[50, 0, 204]",204,a,0.4338224637322128,colour,0.5
033,75,0,2,14,25,675,1088.4949603474233,1090.463411320001,"[43, 0, 211]",211,a,1.444955306360498,colour,0.5
033,75,0,2,14,26,676,1090.9805424360093,1091.5753584783524,"[55, 0, 199]",199,a,0.07142947148531675,colour,0.5
033,75,0,2,14,27,677,1092.0898724882863,1093.0073625554796,"[67, 0, 187]",187,a,0.3945304253138602,colour,0.5
033,75,0,2,14,28,678,1093.5273742605932,1095.4233260760084,"[57, 0, 197]",197,a,1.3727160876151174,colour,0.5
033,75,0,2,14,29,679,1095.93364877766,1096.567381523084,"[38, 0, 216]",216,a,0.11044699931517243,colour,0.5
033,75,0,2,14,30,680,1097.0743305406068,1097.5993669319432,"[5, 0, 249]",249,a,0.0017758512403815985,colour,0.5
033,75,0,2,14,31,681,1098.1211257376708,1098.7034036950208,"[99, 0, 155]",155,l,0.05892486358061433,colour,0.5
033,75,0,2,14,32,682,1099.214932353003,1100.8233081165235,"[42, 0, 212]",212,a,1.084139273269102,colour,0.5
033,75,0,2,14,33,683,1101.341015429236,1101.927326762816,"[96, 0, 158]",158,l,0.06300392583943903,colour,0.5
033,75,0,2,14,34,684,1102.4347736015916,1104.367368841311,"[47, 0, 207]",207,a,1.409428435144946,colour,0.5
033,75,0,2,14,35,685,1104.8878890015185,1105.583314559888,"[20, 0, 234]",234,a,0.1721925875172019,colour,0.5
033,75,0,2,14,36,686,1106.090960684698,1106.8953181172255,"[59, 0, 195]",195,a,0.2809696802869439,colour,0.5
033,75,0,2,14,37,687,1107.4034829370212,1109.1913681575097,"[7, 0, 247]",247,a,1.2648196341469884,colour,0.5
033,75,0,2,14,38,688,1109.7005081397947,1111.199308878975,"[9, 0, 245]",245,a,0.9756784387864172,colour,0.5
033,75,0,2,14,39,689,1111.7161103461403,1112.2714941410813,"[36, 0, 218]",218,a,0.032403673278167844,colour,0.5
033,75,0,2,14,40,690,1112.7784404016566,1114.2633529519662,"[13, 0, 241]",241,a,0.9621750377118587,colour,0.5
033,75,0,2,14,41,691,1114.7796916500665,1115.407332780771,"[81, 0, 173]",173,l,0.1044329721480608,colour,0.5
033,75,0,2,14,42,692,1115.920253683813,1117.2793655456044,"[25, 0, 229]",229,a,0.8358245401177555,colour,0.5
033,75,0,2,14,43,693,1117.7952458069194,1118.439303617226,"[14, 0, 240]",240,a,0.12140733748674393,colour,0.5
033,75,0,2,14,44,694,1118.9515632530674,1119.559287201846,"[46, 0, 208]",208,a,0.08453508862294257,colour,0.5
033,75,0,2,14,45,695,1120.0766006684862,1120.7353312084451,"[95, 0, 159]",159,l,0.1354900859296322,colour,0.5
033,75,0,2,14,46,696,1121.2484513977543,1121.9833005389664,"[78, 0, 176]",176,l,0.210966324666515,colour,0.5
033,75,0,2,14,47,697,1122.4983545115683,1123.239322443027,"[64, 0, 190]",190,a,0.21810832642950118,colour,0.5
033,75,0,2,14,48,698,1123.7483675086405,1124.5993212459143,"[69, 0, 185]",185,l,0.327734551159665,colour,0.5
033,75,0,2,14,49,699,1125.1088503478095,1125.8793122188654,"[94, 0, 160]",160,l,0.24708278314210474,colour,0.5
033,75,0,2,14,50,700,1126.3901374677662,1126.9193222383037,"[32, 0, 222]",222,a,0.005856488831341267,colour,0.5
033,75,0,2,15,1,701,1132.7018539113924,1133.2633194751106,"[26, 0, 228]",228,a,0.03727515344507992,colour,0.5
033,75,0,2,15,2,702,1133.7807546402328,1134.5913261736277,"[64, 0, 190]",190,l,0.28786631603725255,colour,0.5
033,75,0,2,15,3,703,1135.1101724887267,1135.7673363096546,"[93, 0, 161]",161,l,0.13385405018925667,colour,0.5
033,75,0,2,15,4,704,1136.2819472055417,1137.1433870906476,"[67, 0, 187]",187,a,0.33830576948821545,colour,0.5
033,75,0,2,15,5,705,1137.6570243993774,1138.2953285146505,"[85, 0, 169]",169,l,0.11500576580874622,colour,0.5
033,75,0,2,15,6,706,1138.8138814144768,1139.447275058832,"[61, 0, 193]",193,a,0.11077664839103818,colour,0.5
033,75,0,2,15,7,707,1139.953868827084,1140.527314789826,"[63, 0, 191]",191,a,0.05017872713506222,colour,0.5
033,75,0,2,15,8,708,1141.0475470486563,1141.735298913205,"[9, 0, 245]",245,a,0.164418856613338,colour,0.5
033,75,0,2,15,9,709,1142.2507613040507,1144.2633206567261,"[21, 0, 233]",233,a,1.4896367322653532,colour,0.5
033,75,0,2,15,10,710,1144.7831685219426,1145.4553099093027,"[79, 0, 175]",175,l,0.1494314440060407,colour,0.5
033,75,0,2,15,11,711,1145.9707274017856,1146.8952759755775,"[7, 0, 247]",247,a,0.4012510122265667,colour,0.5
033,75,0,2,15,12,712,1147.4082000295166,1148.1033380804583,"[62, 0, 192]",192,a,0.1718849940225482,colour,0.5
033,75,0,2,15,13,713,1148.6113335464615,1149.1433587337378,"[58, 0, 196]",196,a,0.008856807136908174,colour,0.5
033,75,0,2,15,14,714,1149.6581594634335,1150.2153305311222,"[91, 0, 163]",163,l,0.03388413996435702,colour,0.5
033,75,0,2,15,15,715,1150.7363024326041,1151.3192995528225,"[18, 0, 236]",236,a,0.059684592531993985,colour,0.5
033,75,0,2,15,16,716,1151.8299912880175,1153.3353365648072,"[59, 0, 195]",195,a,0.9821288473904133,colour,0.5
033,75,0,2,15,17,717,1153.8456324848812,1154.4233426174615,"[10, 0, 244]",244,a,0.05445628776215017,colour,0.5
033,75,0,2,15,18,718,1154.940678927349,1156.5193102653138,"[28, 0, 226]",226,a,1.0557102931197733,colour,0.5
033,75,0,2,15,19,719,1157.0344032288995,1158.6233478162903,"[2, 0, 252]",252,a,1.0656623858958483,colour,0.5
033,75,0,2,15,20,720,1159.143724616617,1159.7992862723768,"[53, 0, 201]",201,a,0.1321581497322768,colour,0.5
033,75,0,2,15,21,721,1160.315614336403,1161.9353316812776,"[42, 0, 212]",212,a,1.0966328538488597,colour,0.5
033,75,0,2,15,22,722,1162.4561976380646,1163.0792981192935,"[90, 0, 164]",164,l,0.09991240873932838,colour,0.5
033,75,0,2,15,23,723,1163.5968187488616,1165.4472782094963,"[55, 0, 199]",199,a,1.3271941943094134,colour,0.5
033,75,0,2,15,24,724,1165.9574796066154,1167.5993011596147,"[48, 0, 206]",206,a,1.118535806890577,colour,0.5
033,75,0,2,15,25,725,1168.1137753911316,1168.647538620513,"[14, 0, 240]",240,a,0.010471575427800417,colour,0.5
033,75,0,2,15,26,726,1169.1606178495567,1169.7912809601985,"[20, 0, 234]",234,a,0.10736594279296696,colour,0.5
033,75,0,2,15,27,727,1170.3012669235468,1171.0552979365457,"[8, 0, 246]",246,a,0.23076810990460217,colour,0.5
033,75,0,2,15,28,728,1171.5668675543275,1172.6552646958735,"[6, 0, 248]",248,a,0.5652271860744804,colour,0.5
033,75,0,2,15,29,729,1173.1762027265504,1174.8632720559835,"[35, 0, 219]",219,a,1.1637225369922817,colour,0.5
033,75,0,2,15,30,730,1175.3804531905334,1176.1112874664832,"[94, 0, 160]",160,l,0.20743628358468413,colour,0.5
033,75,0,2,15,31,731,1176.6305599226616,1177.3112808498554,"[87, 0, 167]",167,l,0.15740327932871878,colour,0.5
033,75,0,2,15,32,732,1177.8180219165515,1178.4233174114488,"[80, 0, 174]",174,l,0.08208418544381857,colour,0.5
033,75,0,2,15,33,733,1178.943080993602,1179.9673178775702,"[17, 0, 237]",237,a,0.5012362822890282,colour,0.5
033,75,0,2,15,34,734,1180.4907851868775,1181.3832865180448,"[65, 0, 189]",189,a,0.36911515425890684,colour,0.5
033,75,0,2,15,35,735,1181.8932126169093,1182.5192614286207,"[38, 0, 216]",216,a,0.10307696065865457,colour,0.5
033,75,0,2,15,36,736,1183.03383727232,1184.8552998269442,"[34, 0, 220]",220,a,1.298095676349476,colour,0.5
033,75,0,2,15,37,737,1185.3652554641012,1185.9832390989177,"[39, 0, 215]",215,a,0.0948963868431747,colour,0.5
033,75,0,2,15,38,738,1186.490179451881,1188.19128348073,"[4, 0, 250]",250,a,1.1777718088123947,colour,0.5
033,75,0,2,15,39,739,1188.7089013904333,1189.263291905867,"[84, 0, 170]",170,l,0.031077200081199408,colour,0.5
033,75,0,2,15,40,740,1189.771519347094,1190.503287431784,"[5, 0, 249]",249,a,0.20850242441520095,colour,0.5
033,75,0,2,15,41,741,1191.021457907278,1191.5833283443935,"[29, 0, 225]",225,a,0.038544124690815806,colour,0.5
033,75,0,2,15,42,742,1192.0995106857736,1192.7752758495044,"[95, 0, 159]",159,l,0.15252589131705463,colour,0.5
033,75,0,2,15,43,743,1193.2871034364216,1194.047228427371,"[73, 0, 181]",181,l,0.23687154008075595,colour,0.5
033,75,0,2,15,44,744,1194.5683645624667,1195.1912921452895,"[88, 0, 166]",166,l,0.09969658101908863,colour,0.5
033,75,0,2,15,45,745,1195.7090026086662,1196.415307766758,"[74, 0, 180]",180,l,0.18311235937289894,colour,0.5
033,75,0,2,15,46,746,1196.9276540488936,1197.6152558580507,"[76, 0, 178]",178,l,0.16430936753749847,colour,0.5
033,75,0,2,15,47,747,1198.130808045622,1198.727290056413,"[45, 0, 209]",209,a,0.07324391975998878,colour,0.5
033,75,0,2,15,48,748,1199.240097531816,1200.0232597521972,"[19, 0, 235]",235,a,0.26005646167322993,colour,0.5
033,75,0,2,15,49,749,1200.5370475102682,1201.2232488032896,"[54, 0, 200]",200,a,0.1631089251022786,colour,0.5
033,75,0,2,15,50,750,1201.740154639585,1202.4072650393937,"[37, 0, 217]",217,a,0.14377305982634425,colour,0.5
033,75,0,2,16,1,751,1209.0206138954964,1209.9833005389664,"[50, 0, 204]",204,l,0.43852577172219753,colour,0.5
033,75,0,2,16,2,752,1210.4901282519568,1211.303281445289,"[12, 0, 242]",242,a,0.28979143500328064,colour,0.5
033,75,0,2,16,3,753,1211.818290519528,1213.6232981916983,"[46, 0, 208]",208,a,1.2817361042834818,colour,0.5
033,75,0,2,16,4,754,1214.1307915041689,1214.84726970247,"[2, 0, 252]",252,a,0.1916938682552427,colour,0.5
033,75,0,2,16,5,755,1215.3669009523,1216.2873176885769,"[21, 0, 233]",233,a,0.39710145140998065,colour,0.5
033,75,0,2,16,6,756,1216.8044472292531,1219.0233030754607,"[20, 0, 234]",234,a,1.695631145965308,colour,0.5
033,75,0,2,16,7,757,1219.5386280140374,1220.1032947574276,"[78, 0, 176]",176,l,0.041242757346481085,colour,0.5
033,75,0,2,16,8,758,1220.6168580232188,1221.3192979774904,"[47, 0, 207]",207,a,0.17926527257077396,colour,0.5
033,75,0,2,16,9,759,1221.8356252538506,1223.4072677961085,"[64, 0, 190]",190,a,1.0483461620751768,colour,0.5
033,75,0,2,16,10,760,1223.9137079648208,1226.7912785969675,"[90, 0, 164]",164,l,2.354503076756373,colour,0.5
033,75,0,2,16,11,761,1227.308229725575,1228.2392964493483,"[68, 0, 186]",186,l,0.40810471889562905,colour,0.5
033,75,0,2,16,12,762,1228.7456499717664,1231.0552357088309,"[92, 0, 162]",162,l,1.7863058985676616,colour,0.5
033,75,0,2,16,13,763,1231.5738047563937,1232.1592464782298,"[52, 0, 202]",202,a,0.062191815581172705,colour,0.5
033,75,0,2,16,14,764,1232.667598768603,1233.2234067355748,"[1, 0, 253]",253,a,0.03262658999301493,colour,0.5
033,75,0,2,16,15,765,1233.7299823870417,1234.3272603603546,"[73, 0, 181]",181,l,0.07398553169332445,colour,0.5
033,75,0,2,16,16,766,1234.8405723525211,1235.5032649824861,"[74, 0, 180]",180,l,0.1393537144176662,colour,0.5
033,75,0,2,16,17,767,1236.0124656171538,1236.5752631677315,"[94, 0, 160]",160,l,0.03939010598696768,colour,0.5
033,75,0,2,16,18,768,1237.0905597493984,1237.6792605463415,"[69, 0, 185]",185,a,0.06530241062864661,colour,0.5
033,75,0,2,16,19,769,1238.1999669955112,1238.919229290681,"[88, 0, 166]",166,l,0.1958674534689635,colour,0.5
033,75,0,2,16,20,770,1239.4342954724561,1240.1512356521562,"[49, 0, 205]",205,a,0.1937024826183915,colour,0.5
033,75,0,2,16,21,771,1240.6687933031935,1241.2392550953664,"[93, 0, 161]",161,l,0.0471807720605284,colour,0.5
033,75,0,2,16,22,772,1241.7469083094038,1242.3114273606334,"[61, 0, 193]",193,a,0.040555496234446764,colour,0.5
033,75,0,2,16,23,773,1242.824973691022,1243.503216145793,"[34, 0, 220]",220,a,0.15498979156836867,colour,0.5
033,75,0,2,16,24,774,1244.012356128078,1245.519257884007,"[7, 0, 247]",247,a,0.9836439727805555,colour,0.5
033,75,0,2,16,25,775,1246.0280827893876,1246.59923459962,"[98, 0, 156]",156,l,0.047795565566048026,colour,0.5
033,75,0,2,16,26,776,1247.106160380179,1247.6394675360061,"[87, 0, 167]",167,l,0.009927280247211456,colour,0.5
033,75,0,2,16,27,777,1248.1530654602684,1248.7832677708939,"[0, 0, 254]",254,a,0.1068539428524673,colour,0.5
033,75,0,2,16,28,778,1249.2936735739931,1250.7592860991135,"[22, 0, 232]",232,a,0.9408470997586846,colour,0.5
033,75,0,2,16,29,779,1251.2793730287813,1251.8152480598073,"[37, 0, 217]",217,a,0.012443561805412173,colour,0.5
033,75,0,2,16,30,780,1252.3263123731595,1252.9272184551228,"[79, 0, 175]",175,l,0.07751281559467316,colour,0.5
033,75,0,2,16,31,781,1253.4356101301964,1254.1592106381431,"[81, 0, 173]",173,l,0.20050617074593902,colour,0.5
033,75,0,2,16,32,782,1254.6700744840782,1256.3192822234705,"[26, 0, 228]",228,a,1.1262524300254881,colour,0.5
033,75,0,2,16,33,783,1256.8262946500909,1258.3912532334216,"[17, 0, 237]",237,a,1.04166141548194,colour,0.5
033,75,0,2,16,34,784,1258.9044860624708,1259.7194466148503,"[58, 0, 196]",196,a,0.2920981904026121,colour,0.5
033,75,0,2,16,35,785,1260.2337081695441,1262.0152103293221,"[39, 0, 215]",215,a,1.2582329551223665,colour,0.5
033,75,0,2,16,36,786,1262.5305884371046,1264.1752618285827,"[36, 0, 218]",218,a,1.1217649495229125,colour,0.5
033,75,0,2,16,37,787,1264.6867656742688,1265.3672510813922,"[11, 0, 243]",243,a,0.15710316877812147,colour,0.5
033,75,0,2,16,38,788,1265.8743796925992,1266.5112218516879,"[77, 0, 177]",177,l,0.11353868991136551,colour,0.5
033,75,0,2,16,39,789,1267.0305667757057,1267.5832125537563,"[23, 0, 231]",231,a,0.029355305712670088,colour,0.5
033,75,0,2,16,40,790,1268.0930256186984,1268.7432766561396,"[40, 0, 214]",214,a,0.1269755312241614,colour,0.5
033,75,0,2,16,41,791,1269.2492784741335,1269.8312126041856,"[86, 0, 168]",168,l,0.05729434150271118,colour,0.5
033,75,0,2,16,42,792,1270.3443205840886,1270.9272086089477,"[82, 0, 172]",172,l,0.05962433386594057,colour,0.5
033,75,0,2,16,43,793,1271.4379901411012,1272.0072400695644,"[83, 0, 171]",171,l,0.045738508459180593,colour,0.5
033,75,0,2,16,44,794,1272.5226544111501,1273.1272185340058,"[75, 0, 179]",179,l,0.08156352117657661,colour,0.5
033,75,0,2,16,45,795,1273.647625660291,1275.247217084514,"[31, 0, 223]",223,a,1.076160742668435,colour,0.5
033,75,0,2,16,46,796,1275.756989583373,1277.3192168450914,"[8, 0, 246]",246,a,1.0389206416439265,colour,0.5
033,75,0,2,16,47,797,1277.8350537833758,1278.4392319372855,"[30, 0, 224]",224,a,0.08082309062592685,colour,0.5
033,75,0,2,16,48,798,1278.9601376727223,1279.503204724053,"[28, 0, 226]",226,a,0.03224495309405029,colour,0.5
033,75,0,2,16,49,799,1280.0234228044283,1281.1992206575815,"[6, 0, 248]",248,a,0.6526475897990167,colour,0.5
033,75,0,2,16,50,800,1281.710824539885,1282.399219554849,"[55, 0, 199]",199,a,0.16518606850877404,colour,0.5
