id,age,condition,counterbalance,block,trialinblock,trial,tstart,tend,trialstim,trialintensity,response,RT,trialtype,colourfreq
018,69,1,2,Practice,1,NA,5.907611921429634e-06,7.2367035541683435,"[49, 0, 205]",205,l,6.712290995521471,colour,0.5
018,69,1,2,Practice,2,NA,7.752659052843228,13.796720993705094,"[59, 0, 195]",195,l,5.520821862621233,colour,0.5
018,69,1,2,Practice,3,NA,14.315640578977764,19.380733120953664,"[54, 0, 200]",200,l,4.541845768224448,colour,0.5
018,69,1,2,Practice,4,NA,19.894216840621084,20.428702410543337,"[91, 0, 163]",163,a,0.011152149876579642,colour,0.5
018,69,1,2,Practice,5,NA,20.94156661001034,25.820718832314014,"[83, 0, 171]",171,l,4.356306777801365,colour,0.5
018,69,1,2,Practice,6,NA,26.332203388446942,26.900689703412354,"[95, 0, 159]",159,a,0.04515525815077126,colour,0.5
018,69,1,2,Practice,7,NA,27.410509077599272,32.45271954755299,"[33, 0, 221]",221,l,4.518941640621051,colour,0.5
018,69,1,2,Practice,8,NA,32.97331297933124,33.62867153296247,"[42, 0, 212]",212,a,0.13219173066318035,colour,0.5
018,69,1,2,Practice,9,NA,34.14529263158329,34.74878203053959,"[23, 0, 231]",231,a,0.08009375119581819,colour,0.5
018,69,1,2,Practice,10,NA,35.25476770545356,35.828715092269704,"[4, 0, 250]",250,a,0.050544256111606956,colour,0.5
018,69,1,2,1,1,1,4.494785869726911,5.6159770814701915,"[32, 0, 222]",222,a,0.5969692745711654,colour,0.5
018,69,1,2,1,2,2,6.136348777683452,7.951992113608867,"[71, 0, 183]",183,l,1.2923040082678199,colour,0.5
018,69,1,2,1,3,3,8.464649937814102,10.000051987823099,"[97, 0, 157]",157,l,1.0120505131781101,colour,0.5
018,69,1,2,1,4,4,10.511600347002968,11.336049690842628,"[54, 0, 200]",200,a,0.3010596039239317,colour,0.5
018,69,1,2,1,5,5,11.855527749983594,17.47996898065321,"[95, 0, 159]",159,l,5.101204302860424,colour,0.5
018,69,1,2,1,6,6,17.99657353782095,18.535974702565,"[41, 0, 213]",213,a,0.01604844629764557,colour,0.5
018,69,1,2,1,7,7,19.03113433229737,19.64796881680377,"[42, 0, 212]",212,a,0.09346601204015315,colour,0.5
018,69,1,2,1,8,8,20.15623131697066,21.144018932944164,"[17, 0, 237]",237,a,0.4628421834204346,colour,0.5
018,69,1,2,1,9,9,21.658024105010554,23.44001840054989,"[63, 0, 191]",191,l,1.2586522109340876,colour,0.5
018,69,1,2,1,10,10,23.94591467245482,24.56003319332376,"[84, 0, 170]",170,a,0.09102771012112498,colour,0.5
018,69,1,2,1,11,11,25.070978967938572,26.000017723068595,"[85, 0, 169]",169,l,0.40573841822333634,colour,0.5
018,69,1,2,1,12,12,26.508606721879914,31.70404779398814,"[73, 0, 181]",181,l,4.672174212289974,colour,0.5
018,69,1,2,1,13,13,32.20890470570885,34.69597158324905,"[34, 0, 220]",220,l,1.967013014946133,colour,0.5
018,69,1,2,1,14,14,35.205852003768086,36.98405040916987,"[23, 0, 231]",231,l,1.25473225931637,colour,0.5
018,69,1,2,1,15,15,37.50291091762483,38.03259235108271,"[33, 0, 221]",221,a,0.006239312002435327,colour,0.5
018,69,1,2,1,16,16,38.56549111451022,39.90399879962206,"[62, 0, 192]",192,l,0.8150635943748057,colour,0.5
018,69,1,2,1,17,17,40.42509438539855,41.19200870255008,"[94, 0, 160]",160,l,0.24361831275746226,colour,0.5
018,69,1,2,1,18,18,41.706377000780776,42.479941805358976,"[15, 0, 239]",239,a,0.25013686157763004,colour,0.5
018,69,1,2,1,19,19,42.98774389922619,43.70400447095744,"[37, 0, 217]",217,a,0.1929019456729293,colour,0.5
018,69,1,2,1,20,20,44.22224900382571,44.824019263964146,"[20, 0, 234]",234,a,0.07838052022270858,colour,0.5
018,69,1,2,1,21,21,45.33178669936024,46.12798230210319,"[47, 0, 207]",207,l,0.27293543820269406,colour,0.5
018,69,1,2,1,22,22,46.6443820593413,47.40798294800334,"[96, 0, 158]",158,l,0.24026865023188293,colour,0.5
018,69,1,2,1,23,23,47.925676489947364,48.56797785963863,"[27, 0, 227]",227,a,0.11899630655534565,colour,0.5
018,69,1,2,1,24,24,49.082036594627425,49.83197613921948,"[99, 0, 155]",155,a,0.2266411769669503,colour,0.5
018,69,1,2,1,25,25,50.347730776295066,51.2480538089294,"[49, 0, 205]",205,a,0.37691990192979574,colour,0.5
018,69,1,2,1,26,26,51.754070991650224,52.944070684490725,"[77, 0, 177]",177,l,0.6667068391107023,colour,0.5
018,69,1,2,1,27,27,53.45740395481698,58.800047812983394,"[12, 0, 242]",242,l,4.819339582929388,colour,0.5
018,69,1,2,1,28,28,59.31842782883905,59.864000170258805,"[16, 0, 238]",238,a,0.022216472076252103,colour,0.5
018,69,1,2,1,29,29,60.38089026580565,62.160001213196665,"[91, 0, 163]",163,l,1.2556199887767434,colour,0.5
018,69,1,2,1,30,30,62.677854262758046,63.239972084295005,"[76, 0, 178]",178,a,0.03859141678549349,colour,0.5
018,69,1,2,1,31,31,63.75619973056018,64.95210475381464,"[90, 0, 164]",164,l,0.6724739293567836,colour,0.5
018,69,1,2,1,32,32,65.45947243506089,66.03194920020178,"[48, 0, 206]",206,a,0.049590360606089234,colour,0.5
018,69,1,2,1,33,33,66.5533271736931,67.28802211210132,"[75, 0, 179]",179,l,0.2113583676982671,colour,0.5
018,69,1,2,1,34,34,67.80337857059203,70.57598396576941,"[68, 0, 186]",186,l,2.2494775629602373,colour,0.5
018,69,1,2,1,35,35,71.08494908758439,73.84803600702435,"[29, 0, 225]",225,l,2.2397712224628776,colour,0.5
018,69,1,2,1,36,36,74.36643098923378,76.77601610356942,"[45, 0, 209]",209,l,1.886112272972241,colour,0.5
018,69,1,2,1,37,37,77.2885569552891,77.93598817219026,"[93, 0, 161]",161,l,0.1240501415450126,colour,0.5
018,69,1,2,1,38,38,78.44488476449624,79.03998996480368,"[38, 0, 216]",216,a,0.07179698627442122,colour,0.5
018,69,1,2,1,39,39,79.55436889687553,80.31200852920301,"[6, 0, 248]",248,a,0.23435189854353666,colour,0.5
018,69,1,2,1,40,40,80.82006110926159,81.39998078043573,"[18, 0, 236]",236,a,0.05653898976743221,colour,0.5
018,69,1,2,1,41,41,81.91389969992451,82.46399575914256,"[13, 0, 241]",241,a,0.026737432926893234,colour,0.5
018,69,1,2,1,42,42,82.97648659232073,83.56794438278303,"[19, 0, 235]",235,a,0.06829726882278919,colour,0.5
018,69,1,2,1,43,43,84.08602074324153,84.82400902383961,"[2, 0, 252]",252,a,0.21467888541519642,colour,0.5
018,69,1,2,1,44,44,85.33605205384083,85.97598758921959,"[50, 0, 204]",204,l,0.11348561011254787,colour,0.5
018,69,1,2,1,45,45,86.49740061489865,87.1280354715418,"[74, 0, 180]",180,l,0.10722424276173115,colour,0.5
018,69,1,2,1,46,46,87.63817819347605,88.39999535260722,"[59, 0, 195]",195,l,0.23884804686531425,colour,0.5
018,69,1,2,1,47,47,88.9194899534341,89.52004125947133,"[92, 0, 162]",162,l,0.07716944301500916,colour,0.5
018,69,1,2,1,48,48,90.02897369186394,90.73603086499497,"[11, 0, 243]",243,a,0.1836721592117101,colour,0.5
018,69,1,2,1,49,49,91.24782301508822,91.96800629538484,"[66, 0, 188]",188,l,0.1968766418285668,colour,0.5
018,69,1,2,1,50,50,92.48222690122202,93.0560191127006,"[80, 0, 174]",174,l,0.05032015754841268,colour,0.5
018,69,1,2,2,1,51,98.41943323961459,99.51997981942259,"[84, 0, 170]",170,l,0.5763667842838913,colour,0.5
018,69,1,2,2,2,52,100.02983030746691,100.58401094586588,"[38, 0, 216]",216,a,0.030846824636682868,colour,0.5
018,69,1,2,2,3,53,101.09226517518982,101.68800683086738,"[98, 0, 156]",156,l,0.07251693727448583,colour,0.5
018,69,1,2,2,4,54,102.20252085221,102.78399621602148,"[73, 0, 181]",181,l,0.05882251006551087,colour,0.5
018,69,1,2,2,5,55,103.29562807059847,103.84806357626803,"[16, 0, 238]",238,a,0.02898629498668015,colour,0.5
018,69,1,2,2,6,56,104.35819645226002,107.2880449553486,"[58, 0, 196]",196,l,2.4065674648154527,colour,0.5
018,69,1,2,2,7,57,107.7960215229541,108.34402074478567,"[42, 0, 212]",212,a,0.024686675751581788,colour,0.5
018,69,1,2,2,8,58,108.85853949212469,109.41601268504746,"[71, 0, 183]",183,l,0.03423744672909379,colour,0.5
018,69,1,2,2,9,59,109.9367289969232,110.56002492271364,"[66, 0, 188]",188,l,0.09983174898661673,colour,0.5
018,69,1,2,2,10,60,111.07750224298798,113.28809654922225,"[27, 0, 227]",227,l,1.68756887386553,colour,0.5
018,69,1,2,2,11,61,113.79651028616354,116.75207694806159,"[10, 0, 244]",244,l,2.4321040604263544,colour,0.5
018,69,1,2,2,12,62,117.26553979399614,117.99996849242598,"[18, 0, 236]",236,a,0.21110551850870252,colour,0.5
018,69,1,2,2,13,63,118.51556519698352,119.14400436077267,"[37, 0, 217]",217,a,0.10510653140954673,colour,0.5
018,69,1,2,2,14,64,119.65626361244358,122.79214765154757,"[72, 0, 182]",182,l,2.612474213121459,colour,0.5
018,69,1,2,2,15,65,123.29844013275579,124.02404273720458,"[91, 0, 163]",163,l,0.2025440891738981,colour,0.5
018,69,1,2,2,16,66,124.53288379730657,125.9199641442392,"[62, 0, 192]",192,l,0.8643144592642784,colour,0.5
018,69,1,2,2,17,67,126.43922125571407,127.05607661418617,"[5, 0, 249]",249,a,0.09379369230009615,colour,0.5
018,69,1,2,2,18,68,127.56437928648666,128.18402898404747,"[0, 0, 254]",254,a,0.09631745889782906,colour,0.5
018,69,1,2,2,19,69,128.70506785577163,129.45606881612912,"[39, 0, 215]",215,a,0.22754466021433473,colour,0.5
018,69,1,2,2,20,70,129.97080536046997,131.0079564815387,"[33, 0, 221]",221,a,0.5138090364634991,colour,0.5
018,69,1,2,2,21,71,131.5177853081841,132.25597051205114,"[43, 0, 211]",211,a,0.21471827011555433,colour,0.5
018,69,1,2,2,22,72,132.76790090207942,136.74403303279541,"[97, 0, 157]",157,l,3.4528030429501086,colour,0.5
018,69,1,2,2,23,73,137.2537275578361,139.16797620547004,"[20, 0, 234]",234,l,1.3908447292633355,colour,0.5
018,69,1,2,2,24,74,139.67576924082823,140.59196033817716,"[96, 0, 158]",158,l,0.39292029896751046,colour,0.5
018,69,1,2,2,25,75,141.11338124074973,143.19197483174503,"[26, 0, 228]",228,l,1.5551825831644237,colour,0.5
018,69,1,2,2,26,76,143.70732577634044,144.32001857389696,"[22, 0, 232]",232,a,0.08922546985559165,colour,0.5
018,69,1,2,2,27,77,144.82310278364457,146.176002003951,"[46, 0, 208]",208,a,0.839139414485544,colour,0.5
018,69,1,2,2,28,78,146.6889252802357,147.6400914983824,"[76, 0, 178]",178,l,0.4276788041461259,colour,0.5
018,69,1,2,2,29,79,148.157820092747,149.17598900711164,"[23, 0, 231]",231,a,0.4948992975987494,colour,0.5
018,69,1,2,2,30,80,149.68920333590358,153.89602144411765,"[89, 0, 165]",165,l,3.6834657837171108,colour,0.5
018,69,1,2,2,31,81,154.40829251124524,157.6799873339478,"[11, 0, 243]",243,l,2.748390153516084,colour,0.5
018,69,1,2,2,32,82,158.18986224057153,161.69603066029958,"[92, 0, 162]",162,l,2.983137867646292,colour,0.5
018,69,1,2,2,33,83,162.20582600985654,162.93600510735996,"[75, 0, 179]",179,l,0.2068433144595474,colour,0.5
018,69,1,2,2,34,84,163.45588922221214,164.91997241508216,"[51, 0, 203]",203,l,0.9407454405445606,colour,0.5
018,69,1,2,2,35,85,165.44049928686582,168.52809580857866,"[52, 0, 202]",202,l,2.5642343510407954,colour,0.5
018,69,1,2,2,36,86,169.03443555138074,169.63201016769744,"[86, 0, 168]",168,l,0.07419590395875275,colour,0.5
018,69,1,2,2,37,87,170.14396773301996,171.5840554505121,"[56, 0, 198]",198,l,0.9167074298020452,colour,0.5
018,69,1,2,2,38,88,172.09721148991957,172.85604920238256,"[63, 0, 191]",191,l,0.23538456321693957,colour,0.5
018,69,1,2,2,39,89,173.36298641003668,173.93600589525886,"[47, 0, 207]",207,a,0.049660465214401484,colour,0.5
018,69,1,2,2,40,90,174.45675213914365,175.34399514482357,"[87, 0, 167]",167,l,0.3638209702912718,colour,0.5
018,69,1,2,2,41,91,175.85141481389292,176.5840133088641,"[24, 0, 230]",230,a,0.2092824042774737,colour,0.5
018,69,1,2,2,42,92,177.10157176153734,177.64802395529114,"[65, 0, 189]",189,l,0.0231022322550416,colour,0.5
018,69,1,2,2,43,93,178.16622555884533,178.8080196545925,"[74, 0, 180]",180,l,0.11833779560402036,colour,0.5
018,69,1,2,2,44,94,179.32267624814995,180.0160145754926,"[34, 0, 220]",220,a,0.16999624273739755,colour,0.5
018,69,1,2,2,45,95,180.52586112520657,181.28801344754174,"[90, 0, 164]",164,l,0.23922692704945803,colour,0.5
018,69,1,2,2,46,96,181.8072138451971,182.55198455182835,"[21, 0, 233]",233,a,0.22142822830937803,colour,0.5
018,69,1,2,2,47,97,183.07299900520593,184.32001109072007,"[9, 0, 245]",245,a,0.7237255331128836,colour,0.5
018,69,1,2,2,48,98,184.83867310057394,188.1279657606501,"[4, 0, 250]",250,l,2.765978538431227,colour,0.5
018,69,1,2,2,49,99,188.63649292546324,189.7600078296382,"[80, 0, 174]",174,l,0.6008943459019065,colour,0.5
018,69,1,2,2,50,100,190.27727444237098,191.5280205840245,"[17, 0, 237]",237,a,0.7276856570970267,colour,0.5
018,69,1,2,3,1,101,225.07744631683454,226.75999916507863,"[64, 0, 190]",190,l,1.1583762033842504,colour,0.5
018,69,1,2,3,2,102,227.28173160017468,228.37602232652716,"[78, 0, 176]",176,l,0.5711030294187367,colour,0.5
018,69,1,2,3,3,103,228.89106213254854,229.72799994656816,"[77, 0, 177]",177,l,0.31356619112193584,colour,0.5
018,69,1,2,3,4,104,230.2348954062909,231.62400051672012,"[30, 0, 224]",224,a,0.8703249467071146,colour,0.5
018,69,1,2,3,5,105,232.13664179923944,233.32005992764607,"[67, 0, 187]",187,l,0.6549316241871566,colour,0.5
018,69,1,2,3,6,106,233.82944567734376,235.0960260129068,"[40, 0, 214]",214,l,0.7432047741021961,colour,0.5
018,69,1,2,3,7,107,235.61078658187762,237.00010436936282,"[0, 0, 254]",254,a,0.8658969337120652,colour,0.5
018,69,1,2,3,8,108,237.5172859111335,238.28004593821242,"[19, 0, 235]",235,a,0.23985747480764985,colour,0.5
018,69,1,2,3,9,109,238.79858112963848,239.78400448686443,"[56, 0, 198]",198,l,0.46248181420378387,colour,0.5
018,69,1,2,3,10,110,240.29871385591105,240.92001534439623,"[15, 0, 239]",239,a,0.0980058778077364,colour,0.5
018,69,1,2,3,11,111,241.43943196348846,267.60010665352456,"[10, 0, 244]",244,l,25.64983013411984,colour,0.5
018,69,1,2,3,12,112,268.1142752717715,269.3280644584447,"[48, 0, 206]",206,a,0.6904923943802714,colour,0.5
018,69,1,2,3,13,113,269.8487658041995,270.6320074107498,"[24, 0, 230]",230,a,0.2598676204215735,colour,0.5
018,69,1,2,3,14,114,271.14572704420425,271.83201906853355,"[12, 0, 242]",242,a,0.17523282230831683,colour,0.5
018,69,1,2,3,15,115,272.3521741493605,273.90406102733687,"[73, 0, 181]",181,l,1.0285093472339213,colour,0.5
018,69,1,2,3,16,116,274.41496662958525,275.2321388765704,"[75, 0, 179]",179,l,0.2938313439954072,colour,0.5
018,69,1,2,3,17,117,275.7450964176096,277.0400411649607,"[43, 0, 211]",211,a,0.771550675155595,colour,0.5
018,69,1,2,3,18,118,277.55772722372785,279.448015054455,"[69, 0, 185]",185,l,1.3669445645064116,colour,0.5
018,69,1,2,3,19,119,279.9641781100072,280.6800093892962,"[28, 0, 226]",226,a,0.19238876388408244,colour,0.5
018,69,1,2,3,20,120,281.1987619837746,282.1600736808032,"[35, 0, 219]",219,a,0.4380271139089018,colour,0.5
018,69,1,2,3,21,121,282.66750792227685,314.3041142753791,"[85, 0, 169]",169,a,31.113387542311102,colour,0.5
018,69,1,2,3,22,122,314.8106127381325,315.527996953344,"[23, 0, 231]",231,a,0.19417564454488456,colour,0.5
018,69,1,2,3,23,123,316.04503867961466,317.1120118375402,"[54, 0, 200]",200,l,0.5436684887390584,colour,0.5
018,69,1,2,3,24,124,317.6232439382002,327.8080704608001,"[13, 0, 241]",241,a,9.661456868750975,colour,0.5
018,69,1,2,3,25,125,328.32722202152945,329.2160352917854,"[92, 0, 162]",162,l,0.3658358873799443,colour,0.5
018,69,1,2,3,26,126,329.73358744289726,330.3600424095057,"[94, 0, 160]",160,l,0.10311524500139058,colour,0.5
018,69,1,2,3,27,127,330.8743311506696,334.1600197239313,"[27, 0, 227]",227,a,2.762329946970567,colour,0.5
018,69,1,2,3,28,128,334.6714857693296,335.2800333353225,"[32, 0, 222]",222,a,0.08517200453206897,colour,0.5
018,69,1,2,3,29,129,335.7966516769957,336.5920706151519,"[31, 0, 223]",223,a,0.27210048446431756,colour,0.5
018,69,1,2,3,30,130,337.1092718492728,338.07203920185566,"[91, 0, 163]",163,l,0.43960407422855496,colour,0.5
018,69,1,2,3,31,131,338.5936018892098,339.16005123150535,"[90, 0, 164]",164,l,0.043085596058517694,colour,0.5
018,69,1,2,3,32,132,339.67189064319246,341.0640067080967,"[71, 0, 183]",183,l,0.8687239619903266,colour,0.5
018,69,1,2,3,33,133,341.5783419231884,344.0160291478969,"[22, 0, 232]",232,a,1.9143526232801378,colour,0.5
018,69,1,2,3,34,134,344.5327420127578,345.1600461115595,"[11, 0, 243]",243,a,0.10387812508270144,colour,0.5
018,69,1,2,3,35,135,345.67346681584604,346.2480817718897,"[14, 0, 240]",240,a,0.051264600828289986,colour,0.5
018,69,1,2,3,36,136,346.76736605889164,347.9280502013862,"[55, 0, 199]",199,l,0.6374873872846365,colour,0.5
018,69,1,2,3,37,137,348.43935083108954,349.040037620347,"[82, 0, 172]",172,l,0.07737581850960851,colour,0.5
018,69,1,2,3,38,138,349.54883496346883,350.9200535474811,"[52, 0, 202]",202,a,0.8479371515568346,colour,0.5
018,69,1,2,3,39,139,351.4396123450715,351.98405040916987,"[5, 0, 249]",249,a,0.021112127229571342,colour,0.5
018,69,1,2,3,40,140,352.5022059327457,353.35206150938757,"[60, 0, 194]",194,l,0.3265642982441932,colour,0.5
018,69,1,2,3,41,141,353.8616496960167,354.5680853796657,"[87, 0, 167]",167,l,0.18302467605099082,colour,0.5
018,69,1,2,3,42,142,355.08050847123377,356.4080420250539,"[66, 0, 188]",188,l,0.8041867429856211,colour,0.5
018,69,1,2,3,43,143,356.9243976713624,357.53605307801627,"[97, 0, 157]",157,l,0.08714871876873076,colour,0.5
018,69,1,2,3,44,144,358.0507431484293,358.6800105709117,"[4, 0, 250]",250,a,0.10604585474357009,colour,0.5
018,69,1,2,3,45,145,359.1914872501511,360.49601742695086,"[76, 0, 178]",178,l,0.7815134092234075,colour,0.5
018,69,1,2,3,46,146,361.0040365301538,361.600140130613,"[33, 0, 221]",221,a,0.0730659591499716,colour,0.5
018,69,1,2,3,47,147,362.1135214501992,362.68812971096486,"[16, 0, 238]",238,a,0.0511858316604048,colour,0.5
018,69,1,2,3,48,148,363.20745023177005,363.7360497696791,"[25, 0, 229]",229,a,0.0052948687225580215,colour,0.5
018,69,1,2,3,49,149,364.2544026102405,364.9680771876592,"[63, 0, 191]",191,l,0.19029547134414315,colour,0.5
018,69,1,2,3,50,150,365.48884115484543,366.03210437553935,"[93, 0, 161]",161,l,0.01884908671490848,colour,0.5
018,69,1,2,4,1,151,371.30394610296935,372.9040058888495,"[75, 0, 179]",179,l,1.0759725442621857,colour,0.5
018,69,1,2,4,2,152,373.4144085494336,374.00001811701804,"[22, 0, 232]",232,a,0.0623367999214679,colour,0.5
018,69,1,2,4,3,153,374.5080671524629,375.0800216773059,"[13, 0, 241]",241,a,0.04848956014029682,colour,0.5
018,69,1,2,4,4,154,375.58638544473797,378.47206291160546,"[2, 0, 252]",252,a,2.3622987545095384,colour,0.5
018,69,1,2,4,5,155,378.9928327864036,379.9200303105172,"[59, 0, 195]",195,l,0.40082558058202267,colour,0.5
018,69,1,2,4,6,156,380.43382241157815,381.31205224618316,"[60, 0, 194]",194,l,0.3550062975846231,colour,0.5
018,69,1,2,4,7,157,381.8244765193667,382.5200566193089,"[27, 0, 227]",227,a,0.17259208322502673,colour,0.5
018,69,1,2,4,8,158,383.027728744084,385.2480108796153,"[20, 0, 234]",234,a,1.6968348941300064,colour,0.5
018,69,1,2,4,9,159,385.7623409747612,386.68802888621576,"[51, 0, 203]",203,l,0.4023513407446444,colour,0.5
018,69,1,2,4,10,160,387.1998253685888,387.88003246882,"[90, 0, 164]",164,l,0.15527111990377307,colour,0.5
018,69,1,2,4,11,161,388.38909447658807,390.3040433831047,"[72, 0, 182]",182,l,1.391619818750769,colour,0.5
018,69,1,2,4,12,162,390.81114521832205,393.46405995613895,"[44, 0, 210]",210,l,2.1295513855293393,colour,0.5
018,69,1,2,4,13,163,393.9832083659712,394.64802631852217,"[88, 0, 166]",166,l,0.14139512949623168,colour,0.5
018,69,1,2,4,14,164,395.15522858453915,397.89602459501475,"[32, 0, 222]",222,l,2.217516547534615,colour,0.5
018,69,1,2,4,15,165,398.4054938398767,398.94405217375606,"[99, 0, 155]",155,l,0.015204827766865492,colour,0.5
018,69,1,2,4,16,166,399.45248678466305,400.6000204014126,"[97, 0, 157]",157,l,0.6242498215287924,colour,0.5
018,69,1,2,4,17,167,401.1087874183431,401.81609074538574,"[78, 0, 176]",176,l,0.18401441164314747,colour,0.5
018,69,1,2,4,18,168,402.3276237444952,402.94408446899615,"[7, 0, 247]",247,a,0.09303278126753867,colour,0.5
018,69,1,2,4,19,169,403.443438955117,404.84003856545314,"[15, 0, 239]",239,a,0.8737529842182994,colour,0.5
018,69,1,2,4,20,170,405.34988747816533,407.16806994075887,"[87, 0, 167]",167,l,1.2949349009431899,colour,0.5
018,69,1,2,4,21,171,407.6884762956761,408.7280735957902,"[50, 0, 204]",204,a,0.5164375663734972,colour,0.5
018,69,1,2,4,22,172,409.23532115411945,410.00002402462997,"[89, 0, 165]",165,l,0.24134227517060935,colour,0.5
018,69,1,2,4,23,173,410.51662346185185,411.3920168157201,"[94, 0, 160]",160,l,0.3518992445897311,colour,0.5
018,69,1,2,4,24,174,411.9074721294455,412.49604263319634,"[25, 0, 229]",229,a,0.06529537285678089,colour,0.5
018,69,1,2,4,25,175,413.01684795413166,414.61608341988176,"[41, 0, 213]",213,a,1.0762427228037268,colour,0.5
018,69,1,2,4,26,176,415.1264592988882,415.8800360134337,"[91, 0, 163]",163,l,0.24272231245413423,colour,0.5
018,69,1,2,4,27,177,416.39535387489013,417.0560391987674,"[45, 0, 209]",209,l,0.13733575632795691,colour,0.5
018,69,1,2,4,28,178,417.56549032684416,419.76006296812557,"[38, 0, 216]",216,a,1.671169510576874,colour,0.5
018,69,1,2,4,29,179,420.26879414520226,421.1360427590553,"[73, 0, 181]",181,l,0.34391755680553615,colour,0.5
018,69,1,2,4,30,180,421.6442721760832,422.25610835826956,"[18, 0, 236]",236,a,0.0889462330378592,colour,0.5
018,69,1,2,4,31,181,422.7709260350093,424.1280665853992,"[49, 0, 205]",205,a,0.8344979367684573,colour,0.5
018,69,1,2,4,32,182,424.6459987980779,425.41607018653303,"[31, 0, 223]",223,a,0.24672260857187212,colour,0.5
018,69,1,2,4,33,183,425.9273231611587,426.62410055380315,"[9, 0, 245]",245,a,0.17361923423595726,colour,0.5
018,69,1,2,4,34,184,427.130591139663,427.8960907610599,"[8, 0, 246]",246,a,0.24214453995227814,colour,0.5
018,69,1,2,4,35,185,428.41192495496944,429.01605199091136,"[82, 0, 172]",172,l,0.08078180043958127,colour,0.5
018,69,1,2,4,36,186,429.5370814104099,430.4960709901061,"[0, 0, 254]",254,a,0.4357026335783303,colour,0.5
018,69,1,2,4,37,187,431.0058726412244,432.1520301592536,"[11, 0, 243]",243,l,0.6227760487236083,colour,0.5
018,69,1,2,4,38,188,432.6622429857962,433.4080802281387,"[6, 0, 248]",248,l,0.22247270843945444,colour,0.5
018,69,1,2,4,39,189,433.92798009654507,437.07215656805784,"[65, 0, 189]",189,a,2.6210639991331846,colour,0.5
018,69,1,2,4,40,190,437.58715777727775,438.3440766709391,"[98, 0, 156]",156,l,0.2336303722113371,colour,0.5
018,69,1,2,4,41,191,438.85299610649236,439.5120390916709,"[29, 0, 225]",225,a,0.13576982356607914,colour,0.5
018,69,1,2,4,42,192,440.02522230660543,441.184054977959,"[81, 0, 173]",173,l,0.6358446546364576,colour,0.5
018,69,1,2,4,43,193,441.6984500575345,442.30412136460654,"[85, 0, 169]",169,l,0.08232764690183103,colour,0.5
018,69,1,2,4,44,194,442.8233902915381,443.5120505131781,"[64, 0, 190]",190,l,0.1651885616593063,colour,0.5
018,69,1,2,4,45,195,444.0267134082969,448.7680541081354,"[86, 0, 168]",168,l,4.2181593044660985,colour,0.5
018,69,1,2,4,46,196,449.2771082392428,449.96804567985237,"[62, 0, 192]",192,l,0.16789310378953815,colour,0.5
018,69,1,2,4,47,197,450.4803139900323,451.06411501578987,"[43, 0, 211]",211,a,0.06045736582018435,colour,0.5
018,69,1,2,4,48,198,451.57416124548763,452.94403090607375,"[69, 0, 185]",185,l,0.8464874036144465,colour,0.5
018,69,1,2,4,49,199,453.4649161777925,454.07208882668056,"[35, 0, 219]",219,a,0.08366593648679554,colour,0.5
018,69,1,2,4,50,200,454.5900281285867,455.32013751543127,"[4, 0, 250]",250,a,0.2067357946652919,colour,0.5
018,69,1,2,5,1,201,460.4022505162284,462.4960319993552,"[1, 0, 253]",253,a,1.5696142907254398,colour,0.4
018,69,1,2,5,2,202,463.01381494430825,463.88807717198506,"[29, 0, 225]",225,a,0.350778752239421,colour,0.4
018,69,1,2,5,3,203,464.4045998090878,465.1201392484363,"[33, 0, 221]",221,a,0.1922083825338632,colour,0.4
018,69,1,2,5,4,204,465.63910885201767,466.6161157153547,"[60, 0, 194]",194,l,0.45370495109818876,colour,0.4
018,69,1,2,5,5,205,467.12351687368937,468.58408026280813,"[96, 0, 158]",158,l,0.9372209107968956,colour,0.4
018,69,1,2,5,6,206,469.09245776594616,469.6480290754698,"[78, 0, 176]",176,l,0.032322566490620375,colour,0.4
018,69,1,2,5,7,207,470.15506907668896,471.08806362352334,"[91, 0, 163]",163,l,0.40960283763706684,colour,0.4
018,69,1,2,5,8,208,471.6083187414333,472.15209474996664,"[2, 0, 252]",252,a,0.020507179433479905,colour,0.4
018,69,1,2,5,9,209,472.67084143683314,473.47208732995205,"[44, 0, 210]",210,a,0.2780979748349637,colour,0.4
018,69,1,2,5,10,210,473.9834265569225,474.6800381401554,"[39, 0, 215]",215,a,0.17316197883337736,colour,0.4
018,69,1,2,5,11,211,475.18665554444306,475.86406515492126,"[6, 0, 248]",248,a,0.15434479364193976,colour,0.4
018,69,1,2,5,12,212,476.374355569249,476.9201075043529,"[26, 0, 228]",228,a,0.022792275296524167,colour,0.4
018,69,1,2,5,13,213,477.4369125291705,478.04008960793726,"[97, 0, 157]",157,l,0.07971250801347196,colour,0.4
018,69,1,2,5,14,214,478.548445843393,479.28806897997856,"[77, 0, 177]",177,l,0.21618889179080725,colour,0.4
018,69,1,2,5,15,215,479.79856655723415,481.1120685513597,"[54, 0, 200]",200,a,0.7887546659912914,colour,0.4
018,69,1,2,5,16,216,481.6281977361068,482.2640817752108,"[72, 0, 182]",182,l,0.11247933306731284,colour,0.4
018,69,1,2,5,17,217,482.78251062799245,483.76005509123206,"[58, 0, 196]",196,a,0.4542342801578343,colour,0.4
018,69,1,2,5,18,218,484.2669844219927,484.9282022258267,"[34, 0, 220]",220,a,0.1378028579056263,colour,0.4
018,69,1,2,5,19,219,485.4389664372429,486.01604844629765,"[98, 0, 156]",156,l,0.05367493978701532,colour,0.4
018,69,1,2,5,20,220,486.5327676127199,487.2320778304711,"[4, 0, 250]",250,a,0.17589369625784457,colour,0.4
018,69,1,2,5,21,221,487.75164450495504,488.4321245404426,"[80, 0, 174]",174,l,0.1571328309364617,colour,0.4
018,69,1,2,5,22,222,488.9293656477239,491.76007242058404,"[84, 0, 170]",170,l,2.3073268791195005,colour,0.4
018,69,1,2,5,23,223,492.27333440468647,492.79206415615045,"[81, 0, 173]",173,l,0.010877639055252075,colour,0.4
018,69,1,2,5,24,224,493.3049082693178,494.000075224787,"[62, 0, 192]",192,l,0.17211513547226787,colour,0.4
018,69,1,2,5,25,225,494.50804667244665,495.08807268203236,"[31, 0, 223]",223,a,0.05676269414834678,colour,0.4
018,69,1,2,5,26,226,495.6024583093822,496.12806619144976,"[22, 0, 232]",232,a,0.00313422828912735,colour,0.4
018,69,1,2,5,27,227,496.648845912423,497.33611191855744,"[70, 0, 184]",184,l,0.16394912777468562,colour,0.4
018,69,1,2,5,28,228,497.8466362776235,499.66403656150214,"[69, 0, 185]",185,l,1.294022359419614,colour,0.4
018,69,1,2,5,29,229,500.174940982135,501.12007623305544,"[3, 0, 251]",251,a,0.42182821850292385,colour,0.4
018,69,1,2,5,30,230,501.6282449977007,503.2080390318297,"[15, 0, 239]",239,a,1.056552774272859,colour,0.4
018,69,1,2,5,31,231,503.72202726849355,504.2880575582385,"[74, 0, 180]",180,l,0.042701595928519964,colour,0.4
018,69,1,2,5,32,232,504.8002534008119,505.44005817896686,"[57, 0, 197]",197,l,0.11641031200997531,colour,0.4
018,69,1,2,5,33,233,505.95661074854434,506.9200771781616,"[42, 0, 212]",212,a,0.4404536006040871,colour,0.4
018,69,1,2,5,34,234,507.44113889313303,508.1600362653844,"[87, 0, 167]",167,l,0.19558246317319572,colour,0.4
018,69,1,2,5,35,235,508.67554396088235,509.95207206439227,"[46, 0, 208]",208,a,0.7531698714010417,colour,0.4
018,69,1,2,5,36,236,510.47261547786184,511.0081329247914,"[89, 0, 165]",165,l,0.012137947138398886,colour,0.4
018,69,1,2,5,37,237,511.51960842241533,512.4080463573337,"[43, 0, 211]",211,a,0.3651714688166976,colour,0.4
018,69,1,2,5,38,238,512.9259190992452,513.7120657155756,"[27, 0, 227]",227,a,0.2628549439832568,colour,0.4
018,69,1,2,5,39,239,514.2228728563059,516.7920417068526,"[99, 0, 155]",155,l,2.0457885628566146,colour,0.4
018,69,1,2,5,40,240,517.3013396286406,517.8400681039784,"[76, 0, 178]",178,l,0.015501393936574459,colour,0.4
018,69,1,2,5,41,241,518.3482526224107,522.0001260307617,"[83, 0, 171]",171,l,3.128489969763905,colour,0.4
018,69,1,2,5,42,242,522.5205308103468,523.1360722975805,"[86, 0, 168]",168,l,0.09229431976564229,colour,0.4
018,69,1,2,5,43,243,523.64542023791,524.224103625631,"[8, 0, 246]",246,a,0.05518809682689607,colour,0.4
018,69,1,2,5,44,244,524.7394147918094,525.5440729686525,"[63, 0, 191]",191,a,0.2813117599580437,colour,0.4
018,69,1,2,5,45,245,526.0520136964042,527.248071531998,"[16, 0, 238]",238,a,0.6727129940409213,colour,0.4
018,69,1,2,5,46,246,527.7551993611269,528.7121043126099,"[65, 0, 189]",189,l,0.43344195606186986,colour,0.4
018,69,1,2,5,47,247,529.2240914164577,530.4160855466034,"[55, 0, 199]",199,a,0.6686445623636246,colour,0.4
018,69,1,2,5,48,248,530.9273830258753,531.8400929162744,"[50, 0, 204]",204,a,0.3896041135303676,colour,0.4
018,69,1,2,5,49,249,532.3493672073819,532.9440888012759,"[93, 0, 161]",161,l,0.07136887544766068,colour,0.4
018,69,1,2,5,50,250,533.4588320411276,534.696110611083,"[75, 0, 179]",179,l,0.7139951684512198,colour,0.4
018,69,1,2,6,1,251,539.7241441919468,542.3600747047458,"[74, 0, 180]",180,l,2.1117089695762843,colour,0.28
018,69,1,2,6,2,252,542.8668850939721,543.6000534843188,"[63, 0, 191]",191,l,0.20962032419629395,colour,0.28
018,69,1,2,6,3,253,544.117010140093,544.6880875693168,"[76, 0, 178]",178,l,0.04765500011853874,colour,0.28
018,69,1,2,6,4,254,545.1954351647291,547.1440658008214,"[78, 0, 176]",176,l,1.4256879116874188,colour,0.28
018,69,1,2,6,5,255,547.6641732263379,549.0481555787846,"[57, 0, 197]",197,l,0.8609399849083275,colour,0.28
018,69,1,2,6,6,256,549.5550218939316,551.5840802628081,"[36, 0, 218]",218,l,1.5057974164374173,colour,0.28
018,69,1,2,6,7,257,552.1020916386042,554.6880718155298,"[94, 0, 160]",160,l,2.062753489241004,colour,0.28
018,69,1,2,6,8,258,555.1964697986841,556.1841010579374,"[54, 0, 200]",200,a,0.4642639684025198,colour,0.28
018,69,1,2,6,9,259,556.6978588944767,557.312075483147,"[2, 0, 252]",252,a,0.09088789485394955,colour,0.28
018,69,1,2,6,10,260,557.8229814791121,558.8720846518409,"[61, 0, 193]",193,l,0.5257094942498952,colour,0.28
018,69,1,2,6,11,261,559.3855884575751,560.3200634722598,"[70, 0, 184]",184,l,0.411152622429654,colour,0.28
018,69,1,2,6,12,262,560.8389019253664,561.4321528975852,"[67, 0, 187]",187,l,0.07057291246019304,colour,0.28
018,69,1,2,6,13,263,561.9482828699984,563.3440467386972,"[34, 0, 220]",220,a,0.8723162333481014,colour,0.28
018,69,1,2,6,14,264,563.8546821621712,564.4560967790894,"[35, 0, 219]",219,a,0.07804417540319264,colour,0.28
018,69,1,2,6,15,265,564.9641332114115,565.7280708388425,"[0, 0, 254]",254,a,0.24058727198280394,colour,0.28
018,69,1,2,6,16,266,566.2454981408082,567.4641182452906,"[44, 0, 210]",210,a,0.6952575398609042,colour,0.28
018,69,1,2,6,17,267,567.9802651531063,568.696118094027,"[90, 0, 164]",164,l,0.19238797621801496,colour,0.28
018,69,1,2,6,18,268,569.2147190577816,569.8321277701762,"[85, 0, 169]",169,l,0.09391657239757478,colour,0.28
018,69,1,2,6,19,269,570.3399011131842,570.8720815009438,"[75, 0, 179]",179,l,0.008889897027984262,colour,0.28
018,69,1,2,6,20,270,571.3887746734545,573.9920766016003,"[86, 0, 168]",168,l,2.0799480280838907,colour,0.28
018,69,1,2,6,21,271,574.4983474211767,575.0800949328113,"[10, 0, 244]",244,a,0.05829239310696721,colour,0.28
018,69,1,2,6,22,272,575.5922746274155,576.7200722156558,"[64, 0, 190]",190,l,0.6045799590647221,colour,0.28
018,69,1,2,6,23,273,577.2329679229297,577.9680535567459,"[69, 0, 185]",185,l,0.2117281893733889,colour,0.28
018,69,1,2,6,24,274,578.4830657937564,579.152134134667,"[29, 0, 225]",225,a,0.1458018748089671,colour,0.28
018,69,1,2,6,25,275,579.670642150566,580.9520897874609,"[65, 0, 189]",189,l,0.7581315462011844,colour,0.28
018,69,1,2,6,26,276,581.4689082030673,582.1360912022647,"[17, 0, 237]",237,a,0.14377474831417203,colour,0.28
018,69,1,2,6,27,277,582.6565318217035,583.5920863689389,"[45, 0, 209]",209,a,0.41216795798391104,colour,0.28
018,69,1,2,6,28,278,584.1097413140815,584.7440692665987,"[97, 0, 157]",157,l,0.1110118618234992,colour,0.28
018,69,1,2,6,29,279,585.2504515447654,586.0001146092545,"[50, 0, 204]",204,l,0.22626229678280652,colour,0.28
018,69,1,2,6,30,280,586.5162449756172,588.2480841351207,"[62, 0, 192]",192,l,1.2085782072972506,colour,0.28
018,69,1,2,6,31,281,588.7663058247417,590.0160724709276,"[53, 0, 201]",201,l,0.7263843892142177,colour,0.28
018,69,1,2,6,32,282,590.5321855079383,591.3520815954544,"[60, 0, 194]",194,l,0.29660008288919926,colour,0.28
018,69,1,2,6,33,283,591.860396477161,594.1281433852855,"[92, 0, 162]",162,l,1.7446553097106516,colour,0.28
018,69,1,2,6,34,284,594.6418567171786,595.2800868982449,"[20, 0, 234]",234,a,0.11486643482930958,colour,0.28
018,69,1,2,6,35,285,595.7981376587413,598.1521085347049,"[71, 0, 183]",183,l,1.8305149697698653,colour,0.28
018,69,1,2,6,36,286,598.6733132158406,600.6801133647095,"[8, 0, 246]",246,a,1.483339122729376,colour,0.28
018,69,1,2,6,37,287,601.1892588681076,603.6000853858422,"[59, 0, 195]",195,l,1.8880704762414098,colour,0.28
018,69,1,2,6,38,288,604.1113170927856,605.1440685577691,"[79, 0, 175]",175,l,0.5093113128095865,colour,0.28
018,69,1,2,6,39,289,605.6583108250052,607.1680817562155,"[56, 0, 198]",198,l,0.9863973387982696,colour,0.28
018,69,1,2,6,40,290,607.6897507819813,608.3520745062269,"[73, 0, 181]",181,l,0.139046230353415,colour,0.28
018,69,1,2,6,41,291,608.8617351604626,609.7920743960422,"[98, 0, 156]",156,l,0.40702038793824613,colour,0.28
018,69,1,2,6,42,292,610.2993944222108,610.8560728332959,"[87, 0, 167]",167,l,0.033411551266908646,colour,0.28
018,69,1,2,6,43,293,611.3775492683053,613.072109306464,"[93, 0, 161]",161,l,1.1713963658548892,colour,0.28
018,69,1,2,6,44,294,613.5808322129305,615.1520947499666,"[88, 0, 166]",166,l,1.0463746059685946,colour,0.28
018,69,1,2,6,45,295,615.6607345547527,616.2081087424885,"[26, 0, 228]",228,a,0.024249112466350198,colour,0.28
018,69,1,2,6,46,296,616.7233687087428,617.4801643283572,"[72, 0, 182]",182,l,0.23359531979076564,colour,0.28
018,69,1,2,6,47,297,617.9890380778816,618.6401387599763,"[68, 0, 186]",186,l,0.12779049901291728,colour,0.28
018,69,1,2,6,48,298,619.1609637732618,620.8961167549714,"[89, 0, 165]",165,l,1.2119578015990555,colour,0.28
018,69,1,2,6,49,299,621.4111404132564,622.0240695185494,"[7, 0, 247]",247,a,0.09884949633851647,colour,0.28
018,69,1,2,6,50,300,622.5426929316018,623.480081620859,"[55, 0, 199]",199,a,0.41418287553824484,colour,0.28
018,69,1,2,7,1,301,628.4341130701359,641.8161005915608,"[53, 0, 201]",201,l,12.864164010155946,colour,0.14
018,69,1,2,7,2,302,642.3264839535113,643.3041000969242,"[54, 0, 200]",200,l,0.454326834063977,colour,0.14
018,69,1,2,7,3,303,643.8109652304556,645.9840819169767,"[74, 0, 180]",180,l,1.6499250510241836,colour,0.14
018,69,1,2,7,4,304,646.5009566524532,647.0802249021363,"[36, 0, 218]",218,a,0.056432257406413555,colour,0.14
018,69,1,2,7,5,305,647.5947574342135,648.5521149148699,"[60, 0, 194]",194,a,0.43397325463593006,colour,0.14
018,69,1,2,7,6,306,649.0636368864216,649.5921222090255,"[80, 0, 174]",174,l,0.00515229650773108,colour,0.14
018,69,1,2,7,7,307,650.1106227417476,650.8001139792614,"[75, 0, 179]",179,l,0.1663854606449604,colour,0.14
018,69,1,2,7,8,308,651.3138013172429,651.9681000306737,"[17, 0, 237]",237,a,0.13096765661612153,colour,0.14
018,69,1,2,7,9,309,652.4858112956863,653.384233626537,"[67, 0, 187]",187,l,0.3751239632256329,colour,0.14
018,69,1,2,7,10,310,653.8936898745596,654.5041196316015,"[8, 0, 246]",246,a,0.08712548180483282,colour,0.14
018,69,1,2,7,11,311,655.0189231298864,655.7440964418929,"[79, 0, 175]",175,l,0.20180365815758705,colour,0.14
018,69,1,2,7,12,312,656.2533092929516,656.992098263232,"[65, 0, 189]",189,l,0.21533739636652172,colour,0.14
018,69,1,2,7,13,313,657.5023311758414,658.3761361478828,"[95, 0, 159]",159,l,0.3632534376811236,colour,0.14
018,69,1,2,7,14,314,658.897323893616,659.5441225934774,"[16, 0, 238]",238,a,0.12335736583918333,colour,0.14
018,69,1,2,7,15,315,660.0538210568484,660.8161147700157,"[55, 0, 199]",199,l,0.23896226240321994,colour,0.14
018,69,1,2,7,16,316,661.3351060352288,663.8081598638091,"[72, 0, 182]",182,l,1.9496778731700033,colour,0.14
018,69,1,2,7,17,317,664.3161218592431,664.8881157687865,"[82, 0, 172]",172,l,0.049564760411158204,colour,0.14
018,69,1,2,7,18,318,665.4091018652543,666.3201028569601,"[56, 0, 198]",198,l,0.387907030293718,colour,0.14
018,69,1,2,7,19,319,666.8311482744757,667.9200972642284,"[83, 0, 171]",171,l,0.5655730343423784,colour,0.14
018,69,1,2,7,20,320,668.440681243781,669.0560998511501,"[76, 0, 178]",178,l,0.09210094134323299,colour,0.14
018,69,1,2,7,21,321,669.5657766531222,670.3041910752654,"[73, 0, 181]",181,l,0.21509163617156446,colour,0.14
018,69,1,2,7,22,322,670.8158315946348,672.5121080146637,"[92, 0, 162]",162,l,1.1729611170012504,colour,0.14
018,69,1,2,7,23,323,673.0191235977691,674.6160719983745,"[90, 0, 164]",164,l,1.0743554115761071,colour,0.14
018,69,1,2,7,24,324,675.1163890445605,675.6481078446377,"[97, 0, 157]",157,l,0.008504321798682213,colour,0.14
018,69,1,2,7,25,325,676.163171675289,678.4720759084448,"[63, 0, 191]",191,a,1.785510160960257,colour,0.14
018,69,1,2,7,26,326,678.9922916416544,679.9120844628196,"[70, 0, 184]",184,l,0.39723291527479887,colour,0.14
018,69,1,2,7,27,327,680.4292782137636,680.992064392427,"[77, 0, 177]",177,l,0.03801837074570358,colour,0.14
018,69,1,2,7,28,328,681.5092203342356,683.1841258702334,"[89, 0, 165]",165,l,1.1516634884756058,colour,0.14
018,69,1,2,7,29,329,683.6968990911264,684.7600850237068,"[52, 0, 202]",202,a,0.5398194293957204,colour,0.14
018,69,1,2,7,30,330,685.2751331003383,686.0160732585937,"[51, 0, 203]",203,l,0.21752875670790672,colour,0.14
018,69,1,2,7,31,331,686.5252057649195,688.3040949769784,"[58, 0, 196]",196,a,1.2555695765186101,colour,0.14
018,69,1,2,7,32,332,688.822236715816,689.416102482006,"[57, 0, 197]",197,a,0.07042955234646797,colour,0.14
018,69,1,2,7,33,333,689.931804737309,690.592163169058,"[78, 0, 176]",176,l,0.13702540541999042,colour,0.14
018,69,1,2,7,34,334,691.0944116371684,692.288115847623,"[64, 0, 190]",190,a,0.6703798489179462,colour,0.14
018,69,1,2,7,35,335,692.797685917234,693.8160927146673,"[59, 0, 195]",195,l,0.49502375279553235,colour,0.14
018,69,1,2,7,36,336,694.3290494680405,694.9920817215461,"[93, 0, 161]",161,a,0.13970946753397584,colour,0.14
018,69,1,2,7,37,337,695.501046055695,696.2401040226687,"[86, 0, 168]",168,l,0.21573478705249727,colour,0.14
018,69,1,2,7,38,338,696.7511336863972,698.7920972390566,"[85, 0, 169]",169,l,1.517706145066768,colour,0.14
018,69,1,2,7,39,339,699.2982692033984,701.7441247988027,"[94, 0, 160]",160,l,1.922623787773773,colour,0.14
018,69,1,2,7,40,340,702.2515972433612,703.2881599583197,"[98, 0, 156]",156,l,0.5133049134165049,colour,0.14
018,69,1,2,7,41,341,703.7985767973587,704.648111782968,"[91, 0, 163]",163,l,0.3260865625925362,colour,0.14
018,69,1,2,7,42,342,705.1580536435358,706.704119867878,"[87, 0, 167]",167,l,1.0230746630113572,colour,0.14
018,69,1,2,7,43,343,707.2207256066613,707.9681421723217,"[66, 0, 188]",188,l,0.2241457672789693,colour,0.14
018,69,1,2,7,44,344,708.4864816220943,709.2642231660429,"[61, 0, 193]",193,l,0.25442466558888555,colour,0.14
018,69,1,2,7,45,345,709.7833703942597,710.7280952571891,"[50, 0, 204]",204,a,0.42126974440179765,colour,0.14
018,69,1,2,7,46,346,711.236659049755,711.8721078888047,"[28, 0, 226]",226,a,0.11207721591927111,colour,0.14
018,69,1,2,7,47,347,712.3930136405397,713.0960969051812,"[81, 0, 173]",173,l,0.17982703843154013,colour,0.14
018,69,1,2,7,48,348,713.6118353942875,714.2400973273907,"[68, 0, 186]",186,l,0.10490054986439645,colour,0.14
018,69,1,2,7,49,349,714.740185549017,715.3521213741042,"[26, 0, 228]",228,a,0.08860673755407333,colour,0.14
018,69,1,2,7,50,350,715.8651238135062,716.4082818774041,"[0, 0, 254]",254,a,0.019802982453256845,colour,0.14
018,69,1,2,8,1,351,721.2554935642984,722.5761245689355,"[76, 0, 178]",178,l,0.7965150121599436,colour,0.06
018,69,1,2,8,2,352,723.0857096046675,723.6240832244512,"[95, 0, 159]",159,l,0.014974427409470081,colour,0.06
018,69,1,2,8,3,353,724.1326828568708,724.7201561050024,"[77, 0, 177]",177,l,0.06423868355341256,colour,0.06
018,69,1,2,8,4,354,725.227490309393,726.1122564161196,"[60, 0, 194]",194,l,0.361536662094295,colour,0.06
018,69,1,2,8,5,355,726.618231063243,727.1601063699927,"[91, 0, 163]",163,l,0.01854149275459349,colour,0.06
018,69,1,2,8,6,356,727.6808112603612,729.4001540727913,"[90, 0, 164]",164,l,1.19595149718225,colour,0.06
018,69,1,2,8,7,357,729.9153860756196,730.4801844146568,"[66, 0, 188]",188,l,0.041380241978913546,colour,0.06
018,69,1,2,8,8,358,730.9935944848694,732.1760957394727,"[71, 0, 183]",183,l,0.6685846978798509,colour,0.06
018,69,1,2,8,9,359,732.6875865969341,733.4561507359613,"[54, 0, 200]",200,l,0.24302518018521369,colour,0.06
018,69,1,2,8,10,360,733.9711763635278,734.576132445829,"[57, 0, 197]",197,l,0.08132333913818002,colour,0.06
018,69,1,2,8,11,361,735.0992531888187,735.7281405495014,"[88, 0, 166]",166,l,0.10823642741888762,colour,0.06
018,69,1,2,8,12,362,736.2397334133275,737.0641705479939,"[61, 0, 193]",193,l,0.30107811465859413,colour,0.06
018,69,1,2,8,13,363,737.5835993764922,739.3281310184393,"[70, 0, 184]",184,l,1.2211501726415008,colour,0.06
018,69,1,2,8,14,364,739.8494286474306,741.8880945011042,"[75, 0, 179]",179,l,1.51531274151057,colour,0.06
018,69,1,2,8,15,365,742.3964995734859,743.1441091238521,"[56, 0, 198]",198,l,0.2229799823835492,colour,0.06
018,69,1,2,8,16,366,743.6634607585147,744.3521001064219,"[96, 0, 158]",158,l,0.1653551587369293,colour,0.06
018,69,1,2,8,17,367,744.8666082199197,745.6481346262153,"[51, 0, 203]",203,a,0.258111460134387,colour,0.06
018,69,1,2,8,18,368,746.163554887753,746.736120268004,"[67, 0, 187]",187,l,0.04915319103747606,colour,0.06
018,69,1,2,8,19,369,747.257476186147,747.792136623757,"[20, 0, 234]",234,a,0.011344346916303039,colour,0.06
018,69,1,2,8,20,370,748.3044455000199,749.0561427804641,"[79, 0, 175]",175,l,0.22833550348877907,colour,0.06
018,69,1,2,8,21,371,749.570119595388,750.192136308644,"[84, 0, 170]",170,l,0.09862106549553573,colour,0.06
018,69,1,2,8,22,372,750.7106915861368,751.5121560639236,"[69, 0, 185]",185,l,0.2781294824089855,colour,0.06
018,69,1,2,8,23,373,752.0234358201269,753.7041265633889,"[82, 0, 172]",172,l,1.1572986403480172,colour,0.06
018,69,1,2,8,24,374,754.2115426878445,754.888090562541,"[8, 0, 246]",246,a,0.15313962381333113,colour,0.06
018,69,1,2,8,25,375,755.399046970997,756.2001101195347,"[94, 0, 160]",160,l,0.28981450642459095,colour,0.06
018,69,1,2,8,26,376,756.715799771715,757.3041918631643,"[80, 0, 174]",174,l,0.0651476806961,colour,0.06
018,69,1,2,8,27,377,757.8250995841809,759.3521272817161,"[99, 0, 155]",155,l,1.0035871514119208,colour,0.06
018,69,1,2,8,28,378,759.8722106826026,761.4881168715656,"[87, 0, 167]",167,l,1.092511722818017,colour,0.06
018,69,1,2,8,29,379,761.9974143996369,762.8561523901299,"[52, 0, 202]",202,l,0.33539629983715713,colour,0.06
018,69,1,2,8,30,380,763.3724217840936,763.9601210998371,"[3, 0, 251]",251,a,0.06430563726462424,colour,0.06
018,69,1,2,8,31,381,764.4663371748757,765.3521052263677,"[97, 0, 157]",157,l,0.36241415143013,colour,0.06
018,69,1,2,8,32,382,765.8726537595503,766.4566335915588,"[98, 0, 156]",156,l,0.07323294994421303,colour,0.06
018,69,1,2,8,33,383,766.9696060987189,767.6321381677408,"[53, 0, 201]",201,l,0.13905528909526765,colour,0.06
018,69,1,2,8,34,384,768.1416735786479,768.8960958812386,"[92, 0, 162]",162,l,0.23114480869844556,colour,0.06
018,69,1,2,8,35,385,769.4073531879112,771.2401315919124,"[83, 0, 171]",171,l,1.3094438023399562,colour,0.06
018,69,1,2,8,36,386,771.7512459326535,773.304168232251,"[78, 0, 176]",176,l,1.0295175935607404,colour,0.06
018,69,1,2,8,37,387,773.8138631510083,775.5202236101031,"[85, 0, 169]",169,l,1.1829644173849374,colour,0.06
018,69,1,2,8,38,388,776.0328979757614,778.0240915741306,"[72, 0, 182]",182,l,1.4679050769191235,colour,0.06
018,69,1,2,8,39,389,778.5331464926712,779.0641319511924,"[64, 0, 190]",190,l,0.007724900031462312,colour,0.06
018,69,1,2,8,40,390,779.580033886712,780.5520865579601,"[50, 0, 204]",204,l,0.4486164574045688,colour,0.06
018,69,1,2,8,41,391,781.0645423389506,781.5921706520021,"[89, 0, 165]",165,l,0.0042574775870889425,colour,0.06
018,69,1,2,8,42,392,782.1114903851412,782.7440869896673,"[74, 0, 180]",180,l,0.10915999696590006,colour,0.06
018,69,1,2,8,43,393,783.2522266097367,783.8401480547618,"[59, 0, 195]",195,l,0.0646604928188026,colour,0.06
018,69,1,2,8,44,394,784.3616815975402,785.1041230976116,"[62, 0, 192]",192,l,0.21905136643908918,colour,0.06
018,69,1,2,8,45,395,785.6117660775781,786.2560894535854,"[81, 0, 173]",173,l,0.12094269460067153,colour,0.06
018,69,1,2,8,46,396,786.7558354227804,787.3201256999746,"[93, 0, 161]",161,l,0.04066856182180345,colour,0.06
018,69,1,2,8,47,397,787.8308985759504,788.5681495766621,"[65, 0, 189]",189,l,0.2139896545559168,colour,0.06
018,69,1,2,8,48,398,789.0809405206237,789.6961720508989,"[55, 0, 199]",199,l,0.09188117482699454,colour,0.06
018,69,1,2,8,49,399,790.1936411950737,791.1041412143968,"[58, 0, 196]",196,a,0.3876663900446147,colour,0.06
018,69,1,2,8,50,400,791.6155848104972,793.3201241246425,"[86, 0, 168]",168,l,1.1810830140020698,colour,0.06
018,69,1,2,9,1,401,799.0529589273501,799.8561508147977,"[93, 0, 161]",161,l,0.27910346421413124,colour,0.06
018,69,1,2,9,2,402,800.3663411922753,801.3601318125147,"[58, 0, 196]",196,a,0.47053360659629107,colour,0.06
018,69,1,2,9,3,403,801.8663723061327,802.4401649113279,"[94, 0, 160]",160,l,0.05041310517117381,colour,0.06
018,69,1,2,9,4,404,802.9602695798967,803.5840999551583,"[89, 0, 165]",165,l,0.10060014296323061,colour,0.06
018,69,1,2,9,5,405,804.1009549985174,805.1040967097506,"[75, 0, 179]",179,l,0.47972755297087133,colour,0.06
018,69,1,2,9,6,406,805.6166769461706,806.2001254793722,"[68, 0, 186]",186,l,0.060039888601750135,colour,0.06
018,69,1,2,9,7,407,806.7105679183733,807.4241975974292,"[90, 0, 164]",164,l,0.1904317419975996,colour,0.06
018,69,1,2,9,8,408,807.9450233983807,808.5121288886294,"[66, 0, 188]",188,l,0.04373111017048359,colour,0.06
018,69,1,2,9,9,409,809.0232337769121,810.0320984679274,"[82, 0, 172]",172,l,0.48547770781442523,colour,0.06
018,69,1,2,9,10,410,810.538976598531,811.2241095334757,"[60, 0, 194]",194,l,0.16171523183584213,colour,0.06
018,69,1,2,9,11,411,811.7422493032645,813.2401288349647,"[67, 0, 187]",187,l,0.97493601962924,colour,0.06
018,69,1,2,9,12,412,813.7579700693022,815.3120963568799,"[78, 0, 176]",176,l,1.0310870707035065,colour,0.06
018,69,1,2,9,13,413,815.8205542047508,817.3681221648585,"[73, 0, 181]",181,l,1.0241258386522532,colour,0.06
018,69,1,2,9,14,414,817.8833848878276,819.4080896803644,"[69, 0, 185]",185,l,1.0013859448954463,colour,0.06
018,69,1,2,9,15,415,819.9147425310221,821.4961525162216,"[61, 0, 193]",193,l,1.0580371806863695,colour,0.06
018,69,1,2,9,16,416,822.0145675844979,822.6161291059107,"[99, 0, 155]",155,l,0.07816035998985171,colour,0.06
018,69,1,2,9,17,417,823.1259646280669,823.7521116065327,"[65, 0, 189]",189,l,0.10283443238586187,colour,0.06
018,69,1,2,9,18,418,824.2666823419277,825.5841468228027,"[97, 0, 157]",157,l,0.794362248852849,colour,0.06
018,69,1,2,9,19,419,826.0968790836632,827.6081119722221,"[64, 0, 190]",190,l,0.9878203053958714,colour,0.06
018,69,1,2,9,20,420,828.1248673724476,829.5201231793035,"[95, 0, 159]",159,l,0.8718928485177457,colour,0.06
018,69,1,2,9,21,421,830.0323792803101,832.0081628570333,"[81, 0, 173]",173,l,1.4524308582767844,colour,0.06
018,69,1,2,9,22,422,832.5168617388699,833.1040884391405,"[83, 0, 171]",171,l,0.06380939111113548,colour,0.06
018,69,1,2,9,23,423,833.6107062371448,834.1921512747649,"[72, 0, 182]",182,l,0.058198657585307956,colour,0.06
018,69,1,2,9,24,424,834.7045578248799,835.47214207449,"[59, 0, 195]",195,l,0.24418033100664616,colour,0.06
018,69,1,2,9,25,425,835.9858286250383,837.3201127031352,"[87, 0, 167]",167,l,0.810847470536828,colour,0.06
018,69,1,2,9,26,426,837.8302514867391,839.1521081407554,"[96, 0, 158]",158,l,0.7985574987251312,colour,0.06
018,69,1,2,9,27,427,839.6584589113481,840.360145597253,"[88, 0, 166]",166,l,0.1782355059403926,colour,0.06
018,69,1,2,9,28,428,840.8773365912493,841.4721460130531,"[47, 0, 207]",207,a,0.07158076483756304,colour,0.06
018,69,1,2,9,29,429,841.9868053635582,842.6721111971419,"[77, 0, 177]",177,l,0.16192790889181197,colour,0.06
018,69,1,2,9,30,430,843.1900658591185,843.720109237358,"[80, 0, 174]",174,l,0.0069289368111640215,colour,0.06
018,69,1,2,9,31,431,844.2370036651846,844.9040984427556,"[54, 0, 200]",200,a,0.15323020867072046,colour,0.06
018,69,1,2,9,32,432,845.4153522050474,846.9602246815339,"[71, 0, 183]",183,l,1.0219478690996766,colour,0.06
018,69,1,2,9,33,433,847.4807826669421,848.056129783392,"[98, 0, 156]",156,l,0.05199715471826494,colour,0.06
018,69,1,2,9,34,434,848.574564937735,849.1201821775176,"[85, 0, 169]",169,l,0.022247191984206438,colour,0.06
018,69,1,2,9,35,435,849.6372172087431,850.4721570408437,"[70, 0, 184]",184,l,0.31163988914340734,colour,0.06
018,69,1,2,9,36,436,850.9810197625775,851.6001373736653,"[50, 0, 204]",204,a,0.09572156961075962,colour,0.06
018,69,1,2,9,37,437,852.1061789747328,853.0881920175161,"[52, 0, 202]",202,l,0.45869183191098273,colour,0.06
018,69,1,2,9,38,438,853.606297128601,854.2162066148594,"[62, 0, 192]",192,a,0.08659142628312111,colour,0.06
018,69,1,2,9,39,439,854.7313854487147,855.2881182106212,"[51, 0, 203]",203,a,0.03334380965679884,colour,0.06
018,69,1,2,9,40,440,855.8095170578454,856.3841548573691,"[76, 0, 178]",178,l,0.051231911638751626,colour,0.06
018,69,1,2,9,41,441,856.9033328057267,857.480153694516,"[53, 0, 201]",201,a,0.05333977658301592,colour,0.06
018,69,1,2,9,42,442,857.9984088612255,859.4881373515818,"[92, 0, 162]",162,l,0.9663340242113918,colour,0.06
018,69,1,2,9,43,443,859.9990012061317,861.5041192378849,"[17, 0, 237]",237,l,0.9816609441768378,colour,0.06
018,69,1,2,9,44,444,862.0148153137416,862.8882051717956,"[55, 0, 199]",199,a,0.35000838874839246,colour,0.06
018,69,1,2,9,45,445,863.394959240919,864.8721614517272,"[56, 0, 198]",198,l,0.9539558307733387,colour,0.06
018,69,1,2,9,46,446,865.3794582409319,865.9521079044789,"[84, 0, 170]",170,l,0.049250077456235886,colour,0.06
018,69,1,2,9,47,447,866.4732342101634,867.0321421849076,"[74, 0, 180]",180,l,0.03547176090069115,colour,0.06
018,69,1,2,9,48,448,867.539440943161,868.6881438894197,"[57, 0, 197]",197,l,0.6335871277842671,colour,0.06
018,69,1,2,9,49,449,869.2010754365474,869.8641801578924,"[91, 0, 163]",163,l,0.13967244583182037,colour,0.06
018,69,1,2,9,50,450,870.3730759627651,870.9121707151644,"[30, 0, 224]",224,a,0.01571210171096027,colour,0.06
018,69,1,2,10,1,451,876.8128115816507,877.9200984458439,"[55, 0, 199]",199,a,0.5831901701167226,colour,0.06
018,69,1,2,10,2,452,878.4388301665895,879.5841574566439,"[80, 0, 174]",174,l,0.6220631871838123,colour,0.06
018,69,1,2,10,3,453,880.095146948006,882.0961764620151,"[93, 0, 161]",161,l,1.4776732509490103,colour,0.06
018,69,1,2,10,4,454,882.6109602681827,883.2801345537882,"[65, 0, 189]",189,l,0.145848348736763,colour,0.06
018,69,1,2,10,5,455,883.7985771910753,885.3281664648093,"[90, 0, 164]",164,l,1.0062849982641637,colour,0.06
018,69,1,2,10,6,456,885.845585495932,886.4081861728337,"[73, 0, 181]",181,l,0.03918730630539358,colour,0.06
018,69,1,2,10,7,457,886.9237801204436,887.9122104935814,"[92, 0, 162]",162,l,0.4649977039080113,colour,0.06
018,69,1,2,10,8,458,888.4254023730755,890.0081561617553,"[84, 0, 170]",170,l,1.0593632610980421,colour,0.06
018,69,1,2,10,9,459,890.5193012224045,891.9521429568995,"[99, 0, 155]",155,l,0.9094807454384863,colour,0.06
018,69,1,2,10,10,460,892.4726024807896,893.1041542112362,"[66, 0, 188]",188,l,0.10818719654344022,colour,0.06
018,69,1,2,10,11,461,893.6133079854771,894.2481183996424,"[89, 0, 165]",165,l,0.11150416964665055,colour,0.06
018,69,1,2,10,12,462,894.754067053087,895.4001190203708,"[63, 0, 191]",191,l,0.12270358111709356,colour,0.06
018,69,1,2,10,13,463,895.9103409054223,897.64014230459,"[58, 0, 196]",196,l,1.2065097268205136,colour,0.06
018,69,1,2,10,14,464,898.1605549608357,899.592160805827,"[62, 0, 192]",192,l,0.908479981822893,colour,0.06
018,69,1,2,10,15,465,900.098148843972,900.9441636321135,"[50, 0, 204]",204,a,0.3225899958051741,colour,0.06
018,69,1,2,10,16,466,901.4576871301979,902.216162110446,"[83, 0, 171]",171,l,0.23503916035406291,colour,0.06
018,69,1,2,10,17,467,902.723428967176,903.3921263050288,"[54, 0, 200]",200,a,0.14532098872587085,colour,0.06
018,69,1,2,10,18,468,903.9110439210199,904.7521738342475,"[46, 0, 208]",208,a,0.3180127148516476,colour,0.06
018,69,1,2,10,19,469,905.2705124963541,905.9921463122591,"[67, 0, 187]",187,l,0.19825155893340707,colour,0.06
018,69,1,2,10,20,470,906.5050152379554,908.0321228865068,"[78, 0, 176]",176,l,1.0035887269768864,colour,0.06
018,69,1,2,10,21,471,908.5395854848903,909.0641488865949,"[4, 0, 250]",250,a,0.0012681849766522646,colour,0.06
018,69,1,2,10,22,472,909.5866130879149,910.1761504840106,"[95, 0, 159]",159,l,0.06626108381897211,colour,0.06
018,69,1,2,10,23,473,910.6959971832111,912.1601682039909,"[97, 0, 157]",157,l,0.9408037299290299,colour,0.06
018,69,1,2,10,24,474,912.6805316293612,913.6961267585866,"[53, 0, 201]",201,a,0.49231054610572755,colour,0.06
018,69,1,2,10,25,475,914.21191644785,915.6481184784789,"[91, 0, 163]",163,l,0.9132258291356266,colour,0.06
018,69,1,2,10,26,476,916.1651830479968,916.7041848525405,"[85, 0, 169]",169,l,0.015571498312056065,colour,0.06
018,69,1,2,10,27,477,917.2121200663969,918.1441756838467,"[61, 0, 193]",193,a,0.4086528804618865,colour,0.06
018,69,1,2,10,28,478,918.6653744571377,919.8321380100679,"[88, 0, 166]",166,l,0.6433265511877835,colour,0.06
018,69,1,2,10,29,479,920.3529535711277,921.4721050530206,"[94, 0, 160]",160,l,0.5964194650296122,colour,0.06
018,69,1,2,10,30,480,921.9937583249994,922.8482443518005,"[51, 0, 203]",203,a,0.34345636307261884,colour,0.06
018,69,1,2,10,31,481,923.356539541157,924.3282168770675,"[82, 0, 172]",172,l,0.44827853748574853,colour,0.06
018,69,1,2,10,32,482,924.8409125101753,925.5121344025247,"[56, 0, 198]",198,a,0.14776125992648304,colour,0.06
018,69,1,2,10,33,483,926.0286204118747,926.8001616345719,"[59, 0, 195]",195,a,0.24819480581209064,colour,0.06
018,69,1,2,10,34,484,927.3099329594988,928.6162208721507,"[86, 0, 168]",168,l,0.7830604373011738,colour,0.06
018,69,1,2,10,35,485,929.1224562458228,930.5361696563195,"[64, 0, 190]",190,l,0.8902082736603916,colour,0.06
018,69,1,2,10,36,486,931.046529781539,932.1281666222494,"[52, 0, 202]",202,l,0.5583065715618432,colour,0.06
018,69,1,2,10,37,487,932.6385586489923,933.1682156638708,"[77, 0, 177]",177,l,0.006327533395960927,colour,0.06
018,69,1,2,10,38,488,933.7010269935708,934.2801963875536,"[57, 0, 197]",197,a,0.05577098950743675,colour,0.06
018,69,1,2,10,39,489,934.783523206599,935.4081960190088,"[96, 0, 158]",158,l,0.10137759544886649,colour,0.06
018,69,1,2,10,40,490,935.9241503358353,937.3521387032233,"[8, 0, 246]",246,l,0.9045872057322413,colour,0.06
018,69,1,2,10,41,491,937.8617958128452,938.6801759863738,"[75, 0, 179]",179,l,0.29494632268324494,colour,0.06
018,69,1,2,10,42,492,939.1900965790264,939.8241185131483,"[69, 0, 185]",185,l,0.11107842181809247,colour,0.06
018,69,1,2,10,43,493,940.330754034454,941.264166058274,"[60, 0, 194]",194,l,0.4100577300414443,colour,0.06
018,69,1,2,10,44,494,941.784004880581,943.1841447746847,"[81, 0, 173]",173,l,0.8767288862727582,colour,0.06
018,69,1,2,10,45,495,943.6903927514795,945.080131560564,"[87, 0, 167]",167,l,0.8663541891146451,colour,0.06
018,69,1,2,10,46,496,945.5967487206217,946.2161841657944,"[68, 0, 186]",186,l,0.09600947122089565,colour,0.06
018,69,1,2,10,47,497,946.7375105454121,947.2801270706113,"[74, 0, 180]",180,l,0.01923899445682764,colour,0.06
018,69,1,2,10,48,498,947.8001423361711,949.192243041005,"[76, 0, 178]",178,l,0.8688007618766278,colour,0.06
018,69,1,2,10,49,499,949.7064486807212,951.0721368757077,"[98, 0, 156]",156,l,0.8422468611970544,colour,0.06
018,69,1,2,10,50,500,951.5825147239957,952.1281662283,"[71, 0, 183]",183,l,0.022370859747752547,colour,0.06
018,69,1,2,11,1,501,956.9259072840214,960.7441665465012,"[99, 0, 155]",155,l,3.294175565475598,colour,0.06
018,69,1,2,11,2,502,961.25516785332,961.9282053767238,"[0, 0, 254]",254,a,0.1496336048003286,colour,0.06
018,69,1,2,11,3,503,962.4427260933444,964.9841476893052,"[50, 0, 204]",204,a,2.0180653329007328,colour,0.06
018,69,1,2,11,4,504,965.5055126657244,966.6081615968142,"[68, 0, 186]",186,l,0.5793198433239013,colour,0.06
018,69,1,2,11,5,505,967.1149877395947,968.8961911918595,"[54, 0, 200]",200,a,1.258121700026095,colour,0.06
018,69,1,2,11,6,506,969.4120060873684,970.8561374240089,"[58, 0, 196]",196,a,0.9207534119486809,colour,0.06
018,69,1,2,11,7,507,971.3653471244033,972.3521808448713,"[60, 0, 194]",194,a,0.4634183805901557,colour,0.06
018,69,1,2,11,8,508,972.8654920598492,975.6881757909432,"[66, 0, 188]",188,a,2.299297535791993,colour,0.06
018,69,1,2,11,9,509,976.209421038162,977.1921079517342,"[61, 0, 193]",193,a,0.4592743304092437,colour,0.06
018,69,1,2,11,10,510,977.7124788602814,978.648201973876,"[80, 0, 174]",174,a,0.41233376739546657,colour,0.06
018,69,1,2,11,11,511,979.1657474297099,979.9761762416456,"[72, 0, 182]",182,l,0.2869843274820596,colour,0.06
018,69,1,2,11,12,512,980.4815908395685,981.3601585940924,"[55, 0, 199]",199,a,0.3555962792597711,colour,0.06
018,69,1,2,11,13,513,981.8722642457578,982.936129956739,"[84, 0, 170]",170,l,0.5403948386665434,colour,0.06
018,69,1,2,11,14,514,983.4505010119174,984.0401360818651,"[51, 0, 203]",203,a,0.06618073931895196,colour,0.06
018,69,1,2,11,15,515,984.5599804180674,985.264166058274,"[97, 0, 157]",157,l,0.18093610950745642,colour,0.06
018,69,1,2,11,16,516,985.7788549473044,986.6081348152366,"[52, 0, 202]",202,a,0.30619969102554023,colour,0.06
018,69,1,2,11,17,517,987.1226708919276,987.7681620221119,"[9, 0, 245]",245,a,0.12207500240765512,colour,0.06
018,69,1,2,11,18,518,988.2790022457484,988.9521504398435,"[74, 0, 180]",180,l,0.14977538934908807,colour,0.06
018,69,1,2,11,19,519,989.4665955381934,990.2241883026436,"[56, 0, 198]",198,l,0.2342278368305415,colour,0.06
018,69,1,2,11,20,520,990.7323799105361,991.3841572203673,"[91, 0, 163]",163,a,0.12832534220069647,colour,0.06
018,69,1,2,11,21,521,991.9043339628261,993.2081642749254,"[63, 0, 191]",191,l,0.7804460860788822,colour,0.06
018,69,1,2,11,22,522,993.7170581105165,994.7361576834228,"[38, 0, 216]",216,a,0.4957909651566297,colour,0.06
018,69,1,2,11,23,523,995.2483740060125,996.0401797988452,"[69, 0, 185]",185,l,0.26842353609390557,colour,0.06
018,69,1,2,11,24,524,996.5609291936271,997.2001719533,"[92, 0, 162]",162,a,0.11601843521930277,colour,0.06
018,69,1,2,11,25,525,997.7172262829263,998.9921754570678,"[78, 0, 176]",176,l,0.7514688496012241,colour,0.06
018,69,1,2,11,26,526,999.4986684059259,1000.1681337440386,"[65, 0, 189]",189,l,0.14616657653823495,colour,0.06
018,69,1,2,11,27,527,1000.6863065967336,1002.6081678983755,"[70, 0, 184]",184,l,1.3985519062262028,colour,0.06
018,69,1,2,11,28,528,1003.1239449845161,1003.8162597054616,"[62, 0, 192]",192,l,0.16888126404955983,colour,0.06
018,69,1,2,11,29,529,1004.3271952399518,1006.0561738943215,"[83, 0, 171]",171,l,1.2056909205857664,colour,0.06
018,69,1,2,11,30,530,1006.5773899969645,1007.2162554517854,"[53, 0, 201]",201,a,0.11381407780572772,colour,0.06
018,69,1,2,11,31,531,1007.7358177942224,1008.3361658754293,"[87, 0, 167]",167,l,0.07701190421357751,colour,0.06
018,69,1,2,11,32,532,1008.8452140989248,1010.3042036783881,"[75, 0, 179]",179,l,0.9355742395855486,colour,0.06
018,69,1,2,11,33,533,1010.8141136371996,1011.4561464036815,"[98, 0, 156]",156,a,0.11860954947769642,colour,0.06
018,69,1,2,11,34,534,1011.97051312658,1013.2561670413706,"[73, 0, 181]",181,l,0.762398476479575,colour,0.06
018,69,1,2,11,35,535,1013.7674708219711,1014.5121363718063,"[85, 0, 169]",169,l,0.2212675390765071,colour,0.06
018,69,1,2,11,36,536,1015.0332587389275,1016.4161981865764,"[90, 0, 164]",164,l,0.8596950368955731,colour,0.06
018,69,1,2,11,37,537,1016.9239644405898,1018.2641928398516,"[96, 0, 158]",158,l,0.8169067946728319,colour,0.06
018,69,1,2,11,38,538,1018.7835614096839,1019.5282104178332,"[57, 0, 197]",197,a,0.2213817541487515,colour,0.06
018,69,1,2,11,39,539,1020.0492555913515,1021.6321838537697,"[95, 0, 159]",159,l,1.059635802404955,colour,0.06
018,69,1,2,11,40,540,1022.1329353123438,1022.6961677186191,"[59, 0, 195]",195,a,0.044215934816747904,colour,0.06
018,69,1,2,11,41,541,1023.2066771115642,1024.5041475947946,"[93, 0, 161]",161,l,0.7743517095223069,colour,0.06
018,69,1,2,11,42,542,1025.0192823177204,1025.6481503800023,"[82, 0, 172]",172,l,0.10543460538610816,colour,0.06
018,69,1,2,11,43,543,1026.160080376314,1027.0801658250857,"[86, 0, 168]",168,l,0.3967744780238718,colour,0.06
018,69,1,2,11,44,544,1027.5977404254954,1028.6568205109797,"[71, 0, 183]",183,l,0.5361680809874088,colour,0.06
018,69,1,2,11,45,545,1029.1758421023842,1029.8001506067812,"[81, 0, 173]",173,l,0.10080139827914536,colour,0.06
018,69,1,2,11,46,546,1030.316690573236,1031.8161978714634,"[67, 0, 187]",187,l,0.9761431582737714,colour,0.06
018,69,1,2,11,47,547,1032.3324629331473,1033.6801432971843,"[89, 0, 165]",165,l,0.8242898362223059,colour,0.06
018,69,1,2,11,48,548,1034.1920646287035,1034.728168118745,"[77, 0, 177]",177,l,0.0131643102504313,colour,0.06
018,69,1,2,11,49,549,1035.2388834932353,1036.4881609822623,"[88, 0, 166]",166,l,0.7258400935679674,colour,0.06
018,69,1,2,11,50,550,1037.0047064626124,1038.24018239812,"[79, 0, 175]",175,l,0.7124532603193074,colour,0.06
018,69,1,2,12,1,551,1044.2556640997063,1045.2241792441346,"[85, 0, 169]",169,l,0.4447351028211415,colour,0.06
018,69,1,2,12,2,552,1045.740957881324,1046.7201612249482,"[68, 0, 186]",186,l,0.45585535117425025,colour,0.06
018,69,1,2,12,3,553,1047.2411162075587,1047.824170107022,"[54, 0, 200]",200,a,0.059838633285835385,colour,0.06
018,69,1,2,12,4,554,1048.3349169890862,1049.8481569178402,"[74, 0, 180]",180,l,0.9887513576541096,colour,0.06
018,69,1,2,12,5,555,1050.3675436046906,1051.2561441981234,"[69, 0, 185]",185,l,0.3778190528973937,colour,0.06
018,69,1,2,12,6,556,1051.7771503808908,1052.3441294461954,"[3, 0, 251]",251,a,0.04378546075895429,colour,0.06
018,69,1,2,12,7,557,1052.8553127099294,1054.3841828203294,"[99, 0, 155]",155,l,1.0054669794626534,colour,0.06
018,69,1,2,12,8,558,1054.9022902946454,1056.288170592161,"[62, 0, 192]",192,l,0.8624448713380843,colour,0.06
018,69,1,2,12,9,559,1056.8087518147659,1057.4881861885078,"[77, 0, 177]",177,l,0.15609386446885765,colour,0.06
018,69,1,2,12,10,560,1057.9962596422993,1058.520254330244,"[57, 0, 197]",197,l,0.0006396062672138214,colour,0.06
018,69,1,2,12,11,561,1059.0432541624177,1059.648178736912,"[87, 0, 167]",167,l,0.08162620686925948,colour,0.06
018,69,1,2,12,12,562,1060.1684566978365,1061.608352218289,"[71, 0, 183]",183,l,0.9166877374518663,colour,0.06
018,69,1,2,12,13,563,1062.1098051171284,1063.4561499482952,"[98, 0, 156]",156,l,0.8233190050814301,colour,0.06
018,69,1,2,12,14,564,1063.9692843263038,1064.6801555063576,"[55, 0, 199]",199,a,0.18743457226082683,colour,0.06
018,69,1,2,12,15,565,1065.1881738216616,1065.7361907665618,"[94, 0, 160]",160,l,0.02504586335271597,colour,0.06
018,69,1,2,12,16,566,1066.250682732556,1067.5921931013,"[79, 0, 175]",175,l,0.8183384258300066,colour,0.06
018,69,1,2,12,17,567,1068.1111394681502,1068.7041726433672,"[76, 0, 178]",178,l,0.06992070307023823,colour,0.06
018,69,1,2,12,18,568,1069.2205842158291,1070.6641488077585,"[75, 0, 179]",179,l,0.9200732395984232,colour,0.06
018,69,1,2,12,19,569,1071.174623935949,1072.016194563359,"[53, 0, 201]",201,a,0.3181824628263712,colour,0.06
018,69,1,2,12,20,570,1072.534041311359,1076.3761991634965,"[60, 0, 194]",194,l,3.320071349386126,colour,0.06
018,69,1,2,12,21,571,1076.8923933326732,1078.3202044693753,"[78, 0, 176]",176,l,0.9029058762826025,colour,0.06
018,69,1,2,12,22,572,1078.830475191353,1079.400149346562,"[59, 0, 195]",195,a,0.046380513813346624,colour,0.06
018,69,1,2,12,23,573,1079.9086918712128,1081.3761452063918,"[66, 0, 188]",188,a,0.9441175519023091,colour,0.06
018,69,1,2,12,24,574,1081.8932341944892,1082.8641766132787,"[63, 0, 191]",191,a,0.4476865865290165,colour,0.06
018,69,1,2,12,25,575,1083.379328271607,1083.9921986940317,"[61, 0, 193]",193,a,0.08955984539352357,colour,0.06
018,69,1,2,12,26,576,1084.504488271661,1085.168219602434,"[40, 0, 214]",214,a,0.14046880300156772,colour,0.06
018,69,1,2,12,27,577,1085.6763663117308,1086.272183585912,"[84, 0, 170]",170,l,0.0725019711535424,colour,0.06
018,69,1,2,12,28,578,1086.7862084503286,1088.3682099925354,"[88, 0, 166]",166,l,1.0663264621980488,colour,0.06
018,69,1,2,12,29,579,1088.8882067473605,1090.2801723629236,"[89, 0, 165]",165,l,0.8686853649560362,colour,0.06
018,69,1,2,12,30,580,1090.7945241197012,1091.5442072702572,"[51, 0, 203]",203,a,0.22646158304996789,colour,0.06
018,69,1,2,12,31,581,1092.0602687133942,1092.7761507991236,"[91, 0, 163]",163,l,0.1928984010592103,colour,0.06
018,69,1,2,12,32,582,1093.2947123781778,1094.0322473417036,"[56, 0, 198]",198,a,0.21471905754879117,colour,0.06
018,69,1,2,12,33,583,1094.5447657443583,1095.1602068007924,"[93, 0, 161]",161,l,0.09209267050027847,colour,0.06
018,69,1,2,12,34,584,1095.6699316520244,1096.2561788565945,"[73, 0, 181]",181,l,0.0628992123529315,colour,0.06
018,69,1,2,12,35,585,1096.763749762671,1098.2161975565832,"[96, 0, 158]",158,l,0.9291368231642991,colour,0.06
018,69,1,2,12,36,586,1098.7326670242473,1099.432189525105,"[67, 0, 187]",187,l,0.17616505618207157,colour,0.06
018,69,1,2,12,37,587,1099.9515116212424,1101.4241924774833,"[50, 0, 204]",204,l,0.9493931224569678,colour,0.06
018,69,1,2,12,38,588,1101.9360456736758,1103.4322005528957,"[97, 0, 157]",157,l,0.9728352439124137,colour,0.06
018,69,1,2,12,39,589,1103.9517928275745,1105.4241664835718,"[52, 0, 202]",202,l,0.9496250976808369,colour,0.06
018,69,1,2,12,40,590,1105.9363611445297,1107.4721468007192,"[81, 0, 173]",173,l,1.012389614712447,colour,0.06
018,69,1,2,12,41,591,1107.9834360091481,1108.560175371822,"[80, 0, 174]",174,a,0.05343390582129359,colour,0.06
018,69,1,2,12,42,592,1109.0772793260403,1110.4402188681997,"[70, 0, 184]",184,l,0.8397955622058362,colour,0.06
018,69,1,2,12,43,593,1110.9523749321233,1111.576206882717,"[58, 0, 196]",196,a,0.10051743523217738,colour,0.06
018,69,1,2,12,44,594,1112.0930855567567,1113.4561755482573,"[83, 0, 171]",171,l,0.8398097406607121,colour,0.06
018,69,1,2,12,45,595,1113.9682008554228,1114.6962185248267,"[64, 0, 190]",190,l,0.20458775712177157,colour,0.06
018,69,1,2,12,46,596,1115.2027488893364,1116.4401720005553,"[72, 0, 182]",182,l,0.7140207681804895,colour,0.06
018,69,1,2,12,47,597,1116.952884175349,1118.1361609129235,"[92, 0, 162]",162,l,0.6599169299006462,colour,0.06
018,69,1,2,12,48,598,1118.6561773600988,1119.896161653567,"[90, 0, 164]",164,l,0.7167067998088896,colour,0.06
018,69,1,2,12,49,599,1120.4062933477107,1120.9361693414394,"[24, 0, 230]",230,a,0.019099179189652205,colour,0.06
018,69,1,2,12,50,600,1121.4564268223476,1122.2482227690052,"[82, 0, 172]",172,l,0.26845661900006235,colour,0.06
018,69,1,2,13,1,601,1126.6107534987386,1129.8801592872478,"[64, 0, 190]",190,a,2.745488688349724,colour,0.06
018,69,1,2,13,2,602,1130.393131006742,1130.9921841216274,"[86, 0, 168]",168,l,0.07577680260874331,colour,0.06
018,69,1,2,13,3,603,1131.5025414898992,1133.2641644829419,"[87, 0, 167]",167,l,1.2383273823652416,colour,0.06
018,69,1,2,13,4,604,1133.7845523268916,1134.4242098066024,"[95, 0, 159]",159,l,0.11618109350092709,colour,0.06
018,69,1,2,13,5,605,1134.9285165152978,1136.2961987538729,"[89, 0, 165]",165,l,0.844729667995125,colour,0.06
018,69,1,2,13,6,606,1136.8037153091282,1138.2242020873819,"[96, 0, 158]",158,l,0.8955374071374536,colour,0.06
018,69,1,2,13,7,607,1138.742883001687,1140.6321838537697,"[99, 0, 155]",155,l,1.3663214996922761,colour,0.06
018,69,1,2,13,8,608,1141.1493051371071,1141.7041805202607,"[52, 0, 202]",202,a,0.03139033238403499,colour,0.06
018,69,1,2,13,9,609,1142.2119172357488,1142.8721744487993,"[74, 0, 180]",180,a,0.13696947926655412,colour,0.06
018,69,1,2,13,10,610,1143.383866955759,1144.7202037603129,"[84, 0, 170]",170,l,0.8130482831038535,colour,0.06
018,69,1,2,13,11,611,1145.2277982973028,1145.864164010156,"[71, 0, 183]",183,l,0.1131472960114479,colour,0.06
018,69,1,2,13,12,612,1146.3840485187247,1147.6322019707877,"[91, 0, 163]",163,l,0.7249102229252458,colour,0.06
018,69,1,2,13,13,613,1148.149923475692,1149.5441773380153,"[83, 0, 171]",171,l,0.8713335869833827,colour,0.06
018,69,1,2,13,14,614,1150.0562814141158,1150.632214967627,"[57, 0, 197]",197,a,0.052611554972827435,colour,0.06
018,69,1,2,13,15,615,1151.1501605710946,1151.8081634084228,"[66, 0, 188]",188,a,0.13489784812554717,colour,0.06
018,69,1,2,13,16,616,1152.3221118666697,1153.8882079287432,"[70, 0, 184]",184,l,1.0430521192029119,colour,0.06
018,69,1,2,13,17,617,1154.4003903805278,1155.0881857159548,"[60, 0, 194]",194,a,0.16444931249134243,colour,0.06
018,69,1,2,13,18,618,1155.603598100366,1156.1682097562589,"[54, 0, 200]",200,a,0.041217189747840166,colour,0.06
018,69,1,2,13,19,619,1156.6818328974769,1157.3202651215252,"[92, 0, 162]",162,l,0.11501137027516961,colour,0.06
018,69,1,2,13,20,620,1157.8382367189042,1158.5362405488268,"[67, 0, 187]",187,l,0.17472830531187356,colour,0.06
018,69,1,2,13,21,621,1159.049146889709,1159.6241560860071,"[93, 0, 161]",161,l,0.05176478554494679,colour,0.06
018,69,1,2,13,22,622,1160.1428952896968,1161.3601609570906,"[94, 0, 160]",160,l,0.6939704504329711,colour,0.06
018,69,1,2,13,23,623,1161.8773314713035,1162.528201359557,"[73, 0, 181]",181,l,0.12758648674935102,colour,0.06
018,69,1,2,13,24,624,1163.0418595529627,1164.2962306553964,"[68, 0, 186]",186,l,0.7310049931984395,colour,0.06
018,69,1,2,13,25,625,1164.8076644053217,1165.4961785101332,"[62, 0, 192]",192,a,0.16554066026583314,colour,0.06
018,69,1,2,13,26,626,1166.0108217129018,1166.7602094789036,"[88, 0, 166]",166,l,0.22613350907340646,colour,0.06
018,69,1,2,13,27,627,1167.2770999683999,1168.0161894431803,"[69, 0, 185]",185,l,0.21588011621497571,colour,0.06
018,69,1,2,13,28,628,1168.52727779001,1169.1602056194097,"[4, 0, 250]",250,a,0.10975628020241857,colour,0.06
018,69,1,2,13,29,629,1169.6679072824772,1170.416200943524,"[58, 0, 196]",196,l,0.22498662886209786,colour,0.06
018,69,1,2,13,30,630,1170.9336282454897,1171.840217371704,"[47, 0, 207]",207,a,0.3832946971524507,colour,0.06
018,69,1,2,13,31,631,1172.3556049440522,1173.7121740235016,"[77, 0, 177]",177,l,0.8334983550012112,colour,0.06
018,69,1,2,13,32,632,1174.2308041315991,1174.8642030009069,"[75, 0, 179]",179,l,0.11005284613929689,colour,0.06
018,69,1,2,13,33,633,1175.371491913218,1176.0641713358928,"[63, 0, 191]",191,a,0.17402568366378546,colour,0.06
018,69,1,2,13,34,634,1176.5703468446154,1177.2802231691312,"[55, 0, 199]",199,a,0.1864932798780501,colour,0.06
018,69,1,2,13,35,635,1177.7781188488007,1178.4562039054,"[72, 0, 182]",182,l,0.15500999987125397,colour,0.06
018,69,1,2,13,36,636,1178.9655975317582,1180.2321680211462,"[98, 0, 156]",156,l,0.7430850446689874,colour,0.06
018,69,1,2,13,37,637,1180.7470380794257,1181.9601659984328,"[82, 0, 172]",172,l,0.6904029913712293,colour,0.06
018,69,1,2,13,38,638,1182.481607774971,1183.0642583759036,"[65, 0, 189]",189,l,0.05926164868287742,colour,0.06
018,69,1,2,13,39,639,1183.5753731103614,1184.9042134457268,"[78, 0, 176]",176,l,0.8054375986102968,colour,0.06
018,69,1,2,13,40,640,1185.4193209933583,1186.0242152416613,"[80, 0, 174]",174,l,0.0815525574143976,colour,0.06
018,69,1,2,13,41,641,1186.544358113315,1188.104184931377,"[61, 0, 193]",193,a,1.036692290334031,colour,0.06
018,69,1,2,13,42,642,1188.6226366274059,1189.1841762824915,"[6, 0, 248]",248,a,0.03808059822767973,colour,0.06
018,69,1,2,13,43,643,1189.7023680398706,1190.2321841688827,"[81, 0, 173]",173,l,0.006466955179348588,colour,0.06
018,69,1,2,13,44,644,1190.7493235692382,1191.3361918693408,"[56, 0, 198]",198,a,0.0634836801327765,colour,0.06
018,69,1,2,13,45,645,1191.843251563143,1192.4482080391608,"[51, 0, 203]",203,a,0.08167465007863939,colour,0.06
018,69,1,2,13,46,646,1192.968231181614,1194.464192288462,"[85, 0, 169]",169,l,0.9726662838365883,colour,0.06
018,69,1,2,13,47,647,1194.9858006618451,1195.7282193189021,"[76, 0, 178]",178,l,0.21908799395896494,colour,0.06
018,69,1,2,13,48,648,1196.235894200392,1197.7601937251166,"[90, 0, 164]",164,l,1.000911754090339,colour,0.06
018,69,1,2,13,49,649,1198.2673140710685,1198.8082150022965,"[79, 0, 175]",175,l,0.017563572619110346,colour,0.06
018,69,1,2,13,50,650,1199.3298611850478,1200.7601968760137,"[97, 0, 157]",157,l,0.9070010895375162,colour,0.06
018,69,1,2,14,1,651,1206.6421745510306,1207.2641747228336,"[83, 0, 171]",171,l,0.09784794528968632,colour,0.06
018,69,1,2,14,2,652,1207.7837378529366,1210.2801963875536,"[61, 0, 193]",193,a,1.973157410044223,colour,0.06
018,69,1,2,14,3,653,1210.7995610190555,1211.360235000262,"[51, 0, 203]",203,a,0.03780845063738525,colour,0.06
018,69,1,2,14,4,654,1211.8777477666736,1212.448253331473,"[73, 0, 181]",181,l,0.047685720259323716,colour,0.06
018,69,1,2,14,5,655,1212.9559309699107,1213.640225012321,"[53, 0, 201]",201,a,0.1608704316895455,colour,0.06
018,69,1,2,14,6,656,1214.1591548374854,1214.896357001271,"[65, 0, 189]",189,a,0.2140148605685681,colour,0.06
018,69,1,2,14,7,657,1215.4092885483988,1215.9841898307204,"[26, 0, 228]",228,a,0.05154935154132545,colour,0.06
018,69,1,2,14,8,658,1216.5031472253613,1218.0162256772164,"[91, 0, 163]",163,l,0.9897607858292758,colour,0.06
018,69,1,2,14,9,659,1218.5344985667616,1220.0641792127863,"[99, 0, 155]",155,l,1.0062341920565814,colour,0.06
018,69,1,2,14,10,660,1220.5815797331743,1221.336168632377,"[68, 0, 186]",186,l,0.23130195308476686,colour,0.06
018,69,1,2,14,11,661,1221.847264068434,1222.4642056792509,"[72, 0, 182]",182,l,0.09360858472064137,colour,0.06
018,69,1,2,14,12,662,1222.9723594777752,1223.6962137985975,"[93, 0, 161]",161,a,0.20081155933439732,colour,0.06
018,69,1,2,14,13,663,1224.206895696232,1224.7441996296402,"[85, 0, 169]",169,l,0.013987448764964938,colour,0.06
018,69,1,2,14,14,664,1225.2537519761827,1225.9682217291556,"[58, 0, 196]",196,a,0.19104535458609462,colour,0.06
018,69,1,2,14,15,665,1226.4882842563093,1228.2802298644092,"[88, 0, 166]",166,l,1.268559412797913,colour,0.06
018,69,1,2,14,16,666,1228.8009351484943,1229.4882598377299,"[77, 0, 177]",177,l,0.1645044507458806,colour,0.06
018,69,1,2,14,17,667,1230.0041661055293,1231.656229347689,"[80, 0, 174]",174,l,1.1286549915093929,colour,0.06
018,69,1,2,14,18,668,1232.1761737209745,1233.3362564600538,"[54, 0, 200]",200,a,0.6366764577105641,colour,0.06
018,69,1,2,14,19,669,1233.8482128439937,1234.4002001527697,"[90, 0, 164]",164,l,0.028614897979423404,colour,0.06
018,69,1,2,14,20,670,1234.9116681672167,1237.1042054113932,"[94, 0, 160]",160,l,1.6704097813926637,colour,0.06
018,69,1,2,14,21,671,1237.6148187795188,1238.2722584167495,"[78, 0, 176]",176,l,0.134046352468431,colour,0.06
018,69,1,2,14,22,672,1238.7891303955112,1239.376232640352,"[0, 0, 254]",254,a,0.06369005562737584,colour,0.06
018,69,1,2,14,23,673,1239.8829449615441,1240.6642000076827,"[87, 0, 167]",167,l,0.2577219461090863,colour,0.06
018,69,1,2,14,24,674,1241.1799318017438,1242.752281748224,"[71, 0, 183]",183,l,1.0491709143389016,colour,0.06
018,69,1,2,14,25,675,1243.2738775187172,1244.9361858828925,"[96, 0, 158]",158,l,1.138912322698161,colour,0.06
018,69,1,2,14,26,676,1245.4458311770577,1246.6801748047583,"[95, 0, 159]",159,l,0.7108447921928018,colour,0.06
018,69,1,2,14,27,677,1247.1960405064747,1247.7842191329692,"[70, 0, 184]",184,l,0.06473296042531729,colour,0.06
018,69,1,2,14,28,678,1248.305541967973,1248.880219545681,"[81, 0, 173]",173,l,0.05120828072540462,colour,0.06
018,69,1,2,14,29,679,1249.3993254201487,1250.4642730269115,"[62, 0, 192]",192,a,0.5414661006070673,colour,0.06
018,69,1,2,14,30,680,1250.9775933001656,1251.560185217997,"[82, 0, 172]",172,l,0.05933923623524606,colour,0.06
018,69,1,2,14,31,681,1252.071563829435,1253.456215326907,"[79, 0, 175]",175,l,0.86137715424411,colour,0.06
018,69,1,2,14,32,682,1253.9778323648497,1255.3362269217614,"[84, 0, 170]",170,l,0.8352312783244997,colour,0.06
018,69,1,2,14,33,683,1255.8549291037489,1256.5042448746972,"[38, 0, 216]",216,a,0.12599574169144034,colour,0.06
018,69,1,2,14,34,684,1257.0113136270083,1258.6641968570184,"[69, 0, 185]",185,l,1.1297341301105917,colour,0.06
018,69,1,2,14,35,685,1259.1833098207135,1260.688180123223,"[98, 0, 156]",156,l,0.9816861501894891,colour,0.06
018,69,1,2,14,36,686,1261.1990420084912,1261.8322301700246,"[56, 0, 198]",198,a,0.10975037235766649,colour,0.06
018,69,1,2,14,37,687,1262.339793593157,1263.312213723082,"[67, 0, 187]",187,l,0.4494084822945297,colour,0.06
018,69,1,2,14,38,688,1263.8242965317331,1264.7202112434898,"[75, 0, 179]",179,l,0.37323389505036175,colour,0.06
018,69,1,2,14,39,689,1265.2306292639114,1266.6322137860116,"[92, 0, 162]",162,l,0.8784334529191256,colour,0.06
018,69,1,2,14,40,690,1267.1526843379252,1267.6962130109314,"[89, 0, 165]",165,l,0.02015350549481809,colour,0.06
018,69,1,2,14,41,691,1268.2152216054965,1269.3363848540466,"[60, 0, 194]",194,a,0.5977861115243286,colour,0.06
018,69,1,2,14,42,692,1269.856055503944,1270.5042263639625,"[97, 0, 157]",157,l,0.12485201214440167,colour,0.06
018,69,1,2,14,43,693,1271.0123943409417,1271.592232879717,"[52, 0, 202]",202,a,0.05689542042091489,colour,0.06
018,69,1,2,14,44,694,1272.106255774852,1272.712221678812,"[57, 0, 197]",197,a,0.08268722868524492,colour,0.06
018,69,1,2,14,45,695,1273.2313677256461,1273.8162423761096,"[63, 0, 191]",191,a,0.061557378154248,colour,0.06
018,69,1,2,14,46,696,1274.3251362117007,1274.8801982779987,"[50, 0, 204]",204,a,0.031717224745079875,colour,0.06
018,69,1,2,14,47,697,1275.3876813563984,1276.0402211525943,"[55, 0, 199]",199,a,0.12951278849504888,colour,0.06
018,69,1,2,14,48,698,1276.5596830642316,1277.2801873290446,"[86, 0, 168]",168,l,0.19711019261740148,colour,0.06
018,69,1,2,14,49,699,1277.7942078611813,1278.520240939455,"[64, 0, 190]",190,l,0.2027898491360247,colour,0.06
018,69,1,2,14,50,700,1279.0285955995787,1279.5602336612064,"[76, 0, 178]",178,l,0.008251078659668565,colour,0.06
018,69,1,2,15,1,701,1284.78331801272,1287.6322405675892,"[60, 0, 194]",194,a,2.3248680024407804,colour,0.06
018,69,1,2,15,2,702,1288.1392959291115,1288.8081870393362,"[72, 0, 182]",182,l,0.14593381341546774,colour,0.06
018,69,1,2,15,3,703,1289.3268675599247,1289.8562370671425,"[67, 0, 187]",187,l,0.006061293417587876,colour,0.06
018,69,1,2,15,4,704,1290.3738030029926,1290.9842418185435,"[77, 0, 177]",177,l,0.08703332184813917,colour,0.06
018,69,1,2,15,5,705,1291.498827913776,1293.1522329901345,"[81, 0, 173]",173,l,1.129980284254998,colour,0.06
018,69,1,2,15,6,706,1293.670944230631,1294.8882232888136,"[98, 0, 156]",156,l,0.6939586352091283,colour,0.06
018,69,1,2,15,7,707,1295.405630110763,1296.784324289998,"[84, 0, 170]",170,l,0.8535821496043354,colour,0.06
018,69,1,2,15,8,708,1297.2982105202973,1298.4642044976354,"[89, 0, 165]",165,l,0.6426830065902323,colour,0.06
018,69,1,2,15,9,709,1298.9700818648562,1299.5522169212345,"[53, 0, 201]",201,a,0.05866182083263993,colour,0.06
018,69,1,2,15,10,710,1300.0640240372159,1301.5202421210706,"[97, 0, 157]",157,l,0.9330213284119964,colour,0.06
018,69,1,2,15,11,711,1302.0329342095647,1303.2882131275255,"[88, 0, 166]",166,l,0.731878150254488,colour,0.06
018,69,1,2,15,12,712,1303.7987036157865,1305.08019300038,"[1, 0, 253]",253,l,0.758098463062197,colour,0.06
018,69,1,2,15,13,713,1305.5834650748875,1306.1762201946694,"[75, 0, 179]",179,l,0.06945675192400813,colour,0.06
018,69,1,2,15,14,714,1306.692895250395,1307.4561913022771,"[65, 0, 189]",189,a,0.23997720424085855,colour,0.06
018,69,1,2,15,15,715,1307.971442603739,1308.5282092364505,"[58, 0, 196]",196,a,0.03321265894919634,colour,0.06
018,69,1,2,15,16,716,1309.049648256041,1310.3922129510902,"[94, 0, 160]",160,l,0.8191213919781148,colour,0.06
018,69,1,2,15,17,717,1310.91160003189,1312.2082450133748,"[76, 0, 178]",178,l,0.7735525954049081,colour,0.06
018,69,1,2,15,18,718,1312.7241378903855,1313.312237747712,"[55, 0, 199]",199,a,0.06475816667079926,colour,0.06
018,69,1,2,15,19,719,1313.833632656606,1316.152262528427,"[57, 0, 197]",197,a,1.7952889688313007,colour,0.06
018,69,1,2,15,20,720,1316.6619818657637,1317.2161975565832,"[59, 0, 195]",195,a,0.030991760082542896,colour,0.06
018,69,1,2,15,21,721,1317.7245833305642,1318.312246018555,"[85, 0, 169]",169,l,0.06431942200288177,colour,0.06
018,69,1,2,15,22,722,1318.8183986842632,1319.3922283111606,"[95, 0, 159]",159,l,0.050359542248770595,colour,0.06
018,69,1,2,15,23,723,1319.9122731150128,1320.4562488037627,"[86, 0, 168]",168,l,0.020741517888382077,colour,0.06
018,69,1,2,15,24,724,1320.9748123520985,1322.8083071622532,"[87, 0, 167]",167,l,1.3101810824591666,colour,0.06
018,69,1,2,15,25,725,1323.318771262886,1323.9842615108937,"[50, 0, 204]",204,a,0.15227907011285424,colour,0.06
018,69,1,2,15,26,726,1324.4997952000704,1325.2082773088478,"[63, 0, 191]",191,a,0.18509276257827878,colour,0.06
018,69,1,2,15,27,727,1325.7183857662603,1326.8802581427153,"[69, 0, 185]",185,l,0.638334944145754,colour,0.06
018,69,1,2,15,28,728,1327.390585184563,1328.664220487699,"[92, 0, 162]",162,l,0.7502573784440756,colour,0.06
018,69,1,2,15,29,729,1329.1720410923008,1330.1442237331066,"[61, 0, 193]",193,a,0.44910403923131526,colour,0.06
018,69,1,2,15,30,730,1330.6565101600718,1331.88821541192,"[73, 0, 181]",181,l,0.7083871918730438,colour,0.06
018,69,1,2,15,31,731,1332.4066072432324,1333.0241994878743,"[78, 0, 176]",176,l,0.09414972923696041,colour,0.06
018,69,1,2,15,32,732,1333.531725495588,1335.12024716218,"[70, 0, 184]",184,l,1.0652110897935927,colour,0.06
018,69,1,2,15,33,733,1335.6412659478374,1336.1922631270718,"[83, 0, 171]",171,l,0.027659426908940077,colour,0.06
018,69,1,2,15,34,734,1336.7038059725892,1337.5442316888366,"[66, 0, 188]",188,a,0.31707024085335433,colour,0.06
018,69,1,2,15,35,735,1338.0633135386743,1338.632213392295,"[51, 0, 203]",203,a,0.045573129085823894,colour,0.06
018,69,1,2,15,36,736,1339.1414703540504,1340.0162256772164,"[91, 0, 163]",163,l,0.35139748477377,colour,0.06
018,69,1,2,15,37,737,1340.5322745172307,1342.032222135691,"[90, 0, 164]",164,l,0.9766480692196637,colour,0.06
018,69,1,2,15,38,738,1342.548046877142,1343.9282396412455,"[82, 0, 172]",172,l,0.8568203533068299,colour,0.06
018,69,1,2,15,39,739,1344.4387864496093,1346.3282629570458,"[96, 0, 158]",158,l,1.3660670751705766,colour,0.06
018,69,1,2,15,40,740,1346.8452605726197,1347.4242397390772,"[64, 0, 190]",190,a,0.05577295878902078,colour,0.06
018,69,1,2,15,41,741,1347.9390046403278,1348.560242325766,"[62, 0, 192]",192,a,0.09771206835284829,colour,0.06
018,69,1,2,15,42,742,1349.0797767050099,1349.6642496325076,"[54, 0, 200]",200,a,0.06108161201700568,colour,0.06
018,69,1,2,15,43,743,1350.1737558988389,1350.8162703393027,"[99, 0, 155]",155,l,0.11666946299374104,colour,0.06
018,69,1,2,15,44,744,1351.3329520903062,1352.0802032405045,"[71, 0, 183]",183,l,0.22394017945043743,colour,0.06
018,69,1,2,15,45,745,1352.598686050158,1354.8402209163178,"[68, 0, 186]",186,a,1.7253005243837833,colour,0.06
018,69,1,2,15,46,746,1355.3574445997365,1355.920239836676,"[52, 0, 202]",202,a,0.039441337110474706,colour,0.06
018,69,1,2,15,47,747,1356.435622682795,1358.040314888116,"[93, 0, 161]",161,l,1.0812918315641582,colour,0.06
018,69,1,2,15,48,748,1358.5608169473708,1359.1922658840194,"[0, 0, 254]",254,a,0.10824233503080904,colour,0.06
018,69,1,2,15,49,749,1359.7015055166557,1360.2642869690899,"[22, 0, 232]",232,a,0.03926765080541372,colour,0.06
018,69,1,2,15,50,750,1360.7798017535824,1361.4402598282322,"[74, 0, 180]",180,l,0.1370510053820908,colour,0.06
018,69,1,2,16,1,751,1366.2951164643746,1367.0162197693717,"[95, 0, 159]",159,l,0.19704560190439224,colour,0.06
018,69,1,2,16,2,752,1367.5303005599417,1368.1362329868134,"[52, 0, 202]",202,a,0.08252496388740838,colour,0.06
018,69,1,2,16,3,753,1368.6555216060951,1370.4162482051179,"[64, 0, 190]",190,a,1.2373774251900613,colour,0.06
018,69,1,2,16,4,754,1370.9369271015748,1372.3441908862442,"[53, 0, 201]",201,l,0.8839406047482044,colour,0.06
018,69,1,2,16,5,755,1372.8589573630597,1374.392251154175,"[51, 0, 203]",203,a,1.0092801987193525,colour,0.06
018,69,1,2,16,6,756,1374.9065934584942,1375.6722529816907,"[76, 0, 178]",178,l,0.24231034936383367,colour,0.06
018,69,1,2,16,7,757,1376.1879843818024,1376.8722351009492,"[91, 0, 163]",163,l,0.1612233177293092,colour,0.06
018,69,1,2,16,8,758,1377.3911117571406,1378.016195351025,"[66, 0, 188]",188,l,0.10178286326117814,colour,0.06
018,69,1,2,16,9,759,1378.5318838218227,1380.3442239693832,"[81, 0, 173]",173,l,1.2889472569804639,colour,0.06
018,69,1,2,16,10,760,1380.860194434179,1381.600278370548,"[69, 0, 185]",185,l,0.216708768857643,colour,0.06
018,69,1,2,16,11,761,1382.1115061389282,1382.816258523846,"[57, 0, 197]",197,a,0.1815938325598836,colour,0.06
018,69,1,2,16,12,762,1383.3303479789756,1384.056246361928,"[77, 0, 177]",177,l,0.2032010245602578,colour,0.06
018,69,1,2,16,13,763,1384.5648389051203,1386.320222192444,"[87, 0, 167]",167,l,1.2320258426479995,colour,0.06
018,69,1,2,16,14,764,1386.8306008281652,1387.5683303519618,"[60, 0, 194]",194,a,0.21467376523651183,colour,0.06
018,69,1,2,16,15,765,1388.0813918684144,1389.1042298297398,"[49, 0, 205]",205,a,0.49940332281403244,colour,0.06
018,69,1,2,16,16,766,1389.612865302246,1390.1522329901345,"[97, 0, 157]",157,l,0.016728618647903204,colour,0.06
018,69,1,2,16,17,767,1390.6597645115107,1391.3042115552817,"[70, 0, 184]",184,l,0.12104391306638718,colour,0.06
018,69,1,2,16,18,768,1391.8160627824254,1394.0402384819463,"[98, 0, 156]",156,l,1.7007127043325454,colour,0.06
018,69,1,2,16,19,769,1394.5414282912388,1395.1122312098742,"[61, 0, 193]",193,a,0.0475372401997447,colour,0.06
018,69,1,2,16,20,770,1395.6214641469996,1397.344246418681,"[55, 0, 199]",199,a,1.1994488516356796,colour,0.06
018,69,1,2,16,21,771,1397.856049596332,1399.8082291807514,"[68, 0, 186]",186,l,1.4288883060216904,colour,0.06
018,69,1,2,16,22,772,1400.3249692209065,1400.8642412039917,"[79, 0, 175]",175,l,0.015857036923989654,colour,0.06
018,69,1,2,16,23,773,1401.3719133287668,1402.0242506880313,"[74, 0, 180]",180,l,0.12891374854370952,colour,0.06
018,69,1,2,16,24,774,1402.54395166412,1403.0722510912456,"[82, 0, 172]",172,l,0.0050345363561064005,colour,0.06
018,69,1,2,16,25,775,1403.590785101056,1404.9522280276287,"[88, 0, 166]",166,l,0.8380386142525822,colour,0.06
018,69,1,2,16,26,776,1405.4660622703377,1406.7922165745404,"[73, 0, 181]",181,l,0.8028862627688795,colour,0.06
018,69,1,2,16,27,777,1407.3099207503255,1408.9843698185869,"[85, 0, 169]",169,l,1.1511042267084122,colour,0.06
018,69,1,2,16,28,778,1409.4976700057741,1410.3682103864849,"[67, 0, 187]",187,a,0.34733496070839465,colour,0.06
018,69,1,2,16,29,779,1410.8883237196133,1412.016226858599,"[65, 0, 189]",189,l,0.6046114666387439,colour,0.06
018,69,1,2,16,30,780,1412.5290032303892,1414.0402845619246,"[86, 0, 168]",168,l,0.9879605146124959,colour,0.06
018,69,1,2,16,31,781,1414.5605499197263,1415.216272387188,"[80, 0, 174]",174,l,0.13250798918306828,colour,0.06
018,69,1,2,16,32,782,1415.732451196527,1416.6642661739606,"[93, 0, 161]",161,l,0.40843035746365786,colour,0.06
018,69,1,2,16,33,783,1417.185675655026,1417.7442579190247,"[78, 0, 176]",176,l,0.03558755177073181,colour,0.06
018,69,1,2,16,34,784,1418.2638868212234,1419.744240195956,"[90, 0, 164]",164,l,0.957008927129209,colour,0.06
018,69,1,2,16,35,785,1420.264058538247,1421.5522889948916,"[94, 0, 160]",160,l,0.7649234244599938,colour,0.06
018,69,1,2,16,36,786,1422.061131236609,1422.8242075224407,"[63, 0, 191]",191,a,0.23985589970834553,colour,0.06
018,69,1,2,16,37,787,1423.3424457537476,1424.8402335194405,"[50, 0, 204]",204,l,0.975127429002896,colour,0.06
018,69,1,2,16,38,788,1425.3581944829784,1427.1282682346646,"[56, 0, 198]",198,a,1.2466859810519964,colour,0.06
018,69,1,2,16,39,789,1427.6396527537145,1428.3442279079463,"[89, 0, 165]",165,l,0.181212589610368,colour,0.06
018,69,1,2,16,40,790,1428.8585166491102,1429.5202519672457,"[54, 0, 200]",200,a,0.13835187954828143,colour,0.06
018,69,1,2,16,41,791,1430.0304372245446,1430.6642677492928,"[31, 0, 223]",223,a,0.11043724021874368,colour,0.06
018,69,1,2,16,42,792,1431.171084833797,1432.8962762628216,"[36, 0, 218]",218,a,1.201726858271286,colour,0.06
018,69,1,2,16,43,793,1433.4057364491746,1434.040271958802,"[96, 0, 158]",158,l,0.11125801573507488,colour,0.06
018,69,1,2,16,44,794,1434.5464293507393,1435.552246459527,"[92, 0, 162]",162,l,0.4824104334693402,colour,0.06
018,69,1,2,16,45,795,1436.062184775481,1438.6803358879406,"[99, 0, 155]",155,l,2.094903157092631,colour,0.06
018,69,1,2,16,46,796,1439.1874420554377,1440.6482527800836,"[84, 0, 170]",170,l,0.937856184784323,colour,0.06
018,69,1,2,16,47,797,1441.1563439569436,1441.800302237738,"[71, 0, 183]",183,l,0.12626592023298144,colour,0.06
018,69,1,2,16,48,798,1442.3069881713018,1443.7122551556677,"[75, 0, 179]",179,l,0.8908762368373573,colour,0.06
018,69,1,2,16,49,799,1444.2199418526143,1445.5762569012586,"[72, 0, 182]",182,l,0.8328465393278748,colour,0.06
018,69,1,2,16,50,800,1446.0951028373092,1446.9923188169487,"[62, 0, 192]",192,a,0.37408617814071476,colour,0.06
