id,age,condition,counterbalance,block,trialinblock,trial,tstart,tend,trialstim,trialintensity,response,RT,trialtype,colourfreq
151,19,1,1,Practice,1,NA,5.5138953030109406e-06,1.4699921152787283,"[17, 0, 237]",237,a,0.8519483149284497,colour,0.5
151,19,1,1,Practice,2,NA,1.9852638726588339,2.5179656613618135,"[65, 0, 189]",189,a,0.009479469968937337,colour,0.5
151,19,1,1,Practice,3,NA,3.0328144286759198,7.166052398853935,"[73, 0, 181]",181,a,3.610879748710431,colour,0.5
151,19,1,1,Practice,4,NA,7.6726311958627775,8.501948748133145,"[81, 0, 173]",173,a,0.3060680581256747,colour,0.5
151,19,1,1,Practice,5,NA,9.016830204520375,9.813977265614085,"[10, 0, 244]",244,a,0.2742662065429613,colour,0.5
151,19,1,1,Practice,6,NA,10.328917011269368,11.181954309227876,"[58, 0, 196]",196,a,0.32973936083726585,colour,0.5
151,19,1,1,Practice,7,NA,11.68823378358502,12.526261625345796,"[54, 0, 200]",200,a,0.31469052005559206,colour,0.5
151,19,1,1,Practice,8,NA,13.03195584518835,13.893952736980282,"[37, 0, 217]",217,a,0.33856898557860404,colour,0.5
151,19,1,1,Practice,9,NA,14.407046528183855,15.341912340954877,"[13, 0, 241]",241,a,0.4115859925514087,colour,0.5
151,19,1,1,Practice,10,NA,15.860017423750833,16.72608904214576,"[25, 0, 229]",229,a,0.3425074416445568,colour,0.5
151,19,1,1,1,1,1,4.685504827299155,5.8000024418579414,"[11, 0, 243]",243,a,0.5887322346679866,colour,0.5
151,19,1,1,1,2,2,6.316320647019893,7.192048572120257,"[8, 0, 246]",246,a,0.3523334958590567,colour,0.5
151,19,1,1,1,3,3,7.707134828320704,8.61599147086963,"[46, 0, 208]",208,a,0.38568867451976985,colour,0.5
151,19,1,1,1,4,4,9.128989163669758,9.960076658055186,"[51, 0, 203]",203,a,0.30774190195370466,colour,0.5
151,19,1,1,1,5,5,10.472632062272169,11.248017971985973,"[17, 0, 237]",237,a,0.2520103849237785,colour,0.5
151,19,1,1,1,6,6,11.769542028428987,12.592056291527115,"[16, 0, 238]",238,a,0.29916118760593235,colour,0.5
151,19,1,1,1,7,7,13.113271573092788,13.976002593059093,"[75, 0, 179]",179,l,0.33931768615730107,colour,0.5
151,19,1,1,1,8,8,14.488284274586476,15.32001019269228,"[96, 0, 158]",158,l,0.3082275135675445,colour,0.5
151,19,1,1,1,9,9,15.832117006764747,16.663958321674727,"[59, 0, 195]",195,a,0.30864223302342,colour,0.5
151,19,1,1,1,10,10,17.17582843452692,18.104004385881126,"[72, 0, 182]",182,l,0.404850838938728,colour,0.5
151,19,1,1,1,11,11,18.60231636359822,19.46407064644154,"[47, 0, 207]",207,a,0.33829801983665675,colour,0.5
151,19,1,1,1,12,12,19.977356240386143,20.791978625231422,"[78, 0, 176]",176,l,0.29129490931518376,colour,0.5
151,19,1,1,1,13,13,21.305420575896278,22.167940100771375,"[87, 0, 167]",167,l,0.3397918762639165,colour,0.5
151,19,1,1,1,14,14,22.68047541892156,23.488077111775056,"[34, 0, 220]",220,a,0.28430414956528693,colour,0.5
151,19,1,1,1,15,15,24.008606314309873,24.904053695267066,"[43, 0, 211]",211,a,0.3721120285335928,colour,0.5
151,19,1,1,1,16,16,25.414694615988992,26.247930538258515,"[97, 0, 157]",157,l,0.30975445301737636,colour,0.5
151,19,1,1,1,17,17,26.75846275757067,27.60002615128178,"[49, 0, 205]",205,a,0.31823316123336554,colour,0.5
151,19,1,1,1,18,18,28.11784687754698,28.9519752538763,"[93, 0, 161]",161,l,0.3108796699671075,colour,0.5
151,19,1,1,1,19,19,29.461621320573613,30.59199485159479,"[73, 0, 181]",181,l,0.6195896443678066,colour,0.5
151,19,1,1,1,20,20,31.105460433056578,32.02397495764308,"[80, 0, 174]",174,l,0.3960271216928959,colour,0.5
151,19,1,1,1,21,21,32.542903571622446,33.33601332141552,"[83, 0, 171]",171,l,0.27059359627310187,colour,0.5
151,19,1,1,1,22,22,33.85536728857551,34.648018208215944,"[48, 0, 206]",206,a,0.26905602298211306,colour,0.5
151,19,1,1,1,23,23,35.167914500809275,36.11997679458,"[66, 0, 188]",188,l,0.42856388923246413,colour,0.5
151,19,1,1,1,24,24,36.63656242098659,37.471962524810806,"[45, 0, 209]",209,a,0.3121320989448577,colour,0.5
151,19,1,1,1,25,25,37.982970903394744,38.88797928055283,"[6, 0, 248]",248,a,0.38191445206757635,colour,0.5
151,19,1,1,1,26,26,39.4047594666481,40.23199357558042,"[50, 0, 204]",204,a,0.3043950019637123,colour,0.5
151,19,1,1,1,27,27,40.7485090973787,41.55995157267898,"[99, 0, 155]",155,l,0.28877744800411165,colour,0.5
151,19,1,1,1,28,28,42.07677232497372,42.91202709975187,"[3, 0, 251]",251,a,0.31286701490171254,colour,0.5
151,19,1,1,1,29,29,43.42052786331624,44.28794997849036,"[94, 0, 160]",160,l,0.34488351235631853,colour,0.5
151,19,1,1,1,30,30,44.79538932815194,45.60002142516896,"[32, 0, 222]",222,a,0.28127232613041997,colour,0.5
151,19,1,1,1,31,31,46.107926300377585,46.91996939026285,"[95, 0, 159]",159,l,0.28962618531659245,colour,0.5
151,19,1,1,1,32,32,47.43598512210883,48.22390319907572,"[53, 0, 201]",201,a,0.2651951544685289,colour,0.5
151,19,1,1,1,33,33,48.733412601286545,49.5679742078064,"[31, 0, 223]",223,a,0.3111994725186378,colour,0.5
151,19,1,1,1,34,34,50.07706495223101,50.89595938031562,"[24, 0, 230]",230,a,0.2956500540021807,colour,0.5
151,19,1,1,1,35,35,51.434681493090466,52.247901393682696,"[39, 0, 215]",215,a,0.2885186915518716,colour,0.5
151,19,1,1,1,36,36,52.76462683524005,53.53593171655666,"[60, 0, 194]",194,a,0.25756360800005496,colour,0.5
151,19,1,1,1,37,37,54.05196832213551,54.79989374044817,"[37, 0, 217]",217,a,0.22446482290979475,colour,0.5
151,19,1,1,1,38,38,55.31758725445252,56.05598515353631,"[1, 0, 253]",253,a,0.21529924776405096,colour,0.5
151,19,1,1,1,39,39,56.56749410997145,57.24793802131899,"[18, 0, 236]",236,a,0.1569986758986488,colour,0.5
151,19,1,1,1,40,40,57.755058356095105,58.47990323998965,"[44, 0, 210]",210,a,0.20140004239510745,colour,0.5
151,19,1,1,1,41,41,58.98941579298116,59.79194908682257,"[84, 0, 170]",170,l,0.27923102432396263,colour,0.5
151,19,1,1,1,42,42,60.301881085382774,61.09594315383583,"[68, 0, 186]",186,a,0.27061565150506794,colour,0.5
151,19,1,1,1,43,43,61.614655152661726,62.447918250225484,"[20, 0, 234]",234,a,0.31009316025301814,colour,0.5
151,19,1,1,1,44,44,62.95847252488602,63.767910326016136,"[82, 0, 172]",172,l,0.2862847992219031,colour,0.5
151,19,1,1,1,45,45,64.28654040500987,65.0239072162658,"[56, 0, 198]",198,a,0.21426185849122703,colour,0.5
151,19,1,1,1,46,46,65.53652366658207,66.35990163311362,"[22, 0, 232]",232,a,0.2999102820176631,colour,0.5
151,19,1,1,1,47,47,66.88132644048892,67.73591273324564,"[65, 0, 189]",189,l,0.3310788298258558,colour,0.5
151,19,1,1,1,48,48,68.25632535736077,68.89592393417843,"[21, 0, 233]",233,a,0.11621556896716356,colour,0.5
151,19,1,1,1,49,49,69.4125950250309,70.1919355384307,"[91, 0, 163]",163,l,0.2565593016333878,colour,0.5
151,19,1,1,1,50,50,70.70953216648195,71.43992909207009,"[35, 0, 219]",219,a,0.20708914229180664,colour,0.5
151,19,1,1,2,1,51,77.30563285865355,78.12790726986714,"[31, 0, 223]",223,a,0.2982080812798813,colour,0.5
151,19,1,1,2,2,52,78.6345030022785,79.42391296639107,"[16, 0, 238]",238,a,0.2660883963108063,colour,0.5
151,19,1,1,2,3,53,79.93136373767629,80.68790334707592,"[89, 0, 165]",165,l,0.23321449698414654,colour,0.5
151,19,1,1,2,4,54,81.1969338330673,81.98404452658724,"[17, 0, 237]",237,a,0.26382142095826566,colour,0.5
151,19,1,1,2,5,55,82.49382253154181,83.30401021474972,"[36, 0, 218]",218,a,0.2970332397380844,colour,0.5
151,19,1,1,2,6,56,83.81168941652868,84.59185227949638,"[61, 0, 193]",193,l,0.25673771381843835,colour,0.5
151,19,1,1,2,7,57,85.10857338877395,85.92788529326208,"[23, 0, 231]",231,a,0.29586981993634254,colour,0.5
151,19,1,1,2,8,58,86.43735373555683,87.13586295116693,"[91, 0, 163]",163,l,0.17587451450526714,colour,0.5
151,19,1,1,2,9,59,87.65552333020605,88.41588442365173,"[94, 0, 160]",160,l,0.23714428849052638,colour,0.5
151,19,1,1,2,10,60,88.93664087494835,89.72790270124096,"[84, 0, 170]",170,l,0.26844044227618724,colour,0.5
151,19,1,1,2,11,61,90.23363276105374,91.01593105494976,"[42, 0, 212]",212,a,0.259789623436518,colour,0.5
151,19,1,1,2,12,62,91.53043835796416,92.33587823237758,"[30, 0, 224]",224,a,0.2825558689655736,colour,0.5
151,19,1,1,2,13,63,92.84292137343436,93.69584642536938,"[86, 0, 168]",168,l,0.3297417239518836,colour,0.5
151,19,1,1,2,14,64,94.2023247918114,94.97585371939931,"[55, 0, 199]",199,a,0.25062326062470675,colour,0.5
151,19,1,1,2,15,65,95.48360735794995,96.24786712904461,"[14, 0, 240]",240,a,0.2516791607486084,colour,0.5
151,19,1,1,2,16,66,96.75436636933591,97.54387755179778,"[72, 0, 182]",182,l,0.2660970608703792,colour,0.5
151,19,1,1,2,17,67,98.05117787409108,98.75983924791217,"[70, 0, 184]",184,l,0.18530869216192514,colour,0.5
151,19,1,1,2,18,68,99.27002606471069,100.31987077137455,"[3, 0, 251]",251,a,0.527492786757648,colour,0.5
151,19,1,1,2,19,69,100.83240648335777,101.55984287138563,"[53, 0, 201]",201,a,0.20419122627936304,colour,0.5
151,19,1,1,2,20,70,102.06690452317707,102.81588820449542,"[33, 0, 221]",221,a,0.22597285767551512,colour,0.5
151,19,1,1,2,21,71,103.332529363106,104.05592253210489,"[38, 0, 216]",216,a,0.2005729665979743,colour,0.5
151,19,1,1,2,22,72,104.56685017247219,105.31190248695202,"[96, 0, 158]",158,l,0.22206866624765098,colour,0.5
151,19,1,1,2,23,73,105.83240924018901,106.63187999045476,"[9, 0, 245]",245,a,0.2764622896211222,colour,0.5
151,19,1,1,2,24,74,107.14483239105903,107.92784590867814,"[68, 0, 186]",186,l,0.25955686066299677,colour,0.5
151,19,1,1,2,25,75,108.4422070949804,109.21582660707645,"[51, 0, 203]",203,a,0.2506780051626265,colour,0.5
151,19,1,1,2,26,76,109.72308439400513,110.37587719259318,"[46, 0, 208]",208,a,0.12951573531609029,colour,0.5
151,19,1,1,2,27,77,110.8948786680121,111.50387504696846,"[4, 0, 250]",250,a,0.08443577284924686,colour,0.5
151,19,1,1,2,28,78,112.02094549720641,112.79182541929185,"[82, 0, 172]",172,l,0.247424446628429,colour,0.5
151,19,1,1,2,29,79,113.30440287885722,114.0398465419421,"[18, 0, 236]",236,a,0.21231862425338477,colour,0.5
151,19,1,1,2,30,80,114.55417425150517,115.31182844401337,"[54, 0, 200]",200,a,0.2342400710331276,colour,0.5
151,19,1,1,2,31,81,115.81967739318497,116.57582591392566,"[59, 0, 195]",195,a,0.23259852244518697,colour,0.5
151,19,1,1,2,32,82,117.08532428846229,117.91197274904698,"[60, 0, 194]",194,a,0.3036935629788786,colour,0.5
151,19,1,1,2,33,83,118.42915111302864,119.17585639760364,"[57, 0, 197]",197,a,0.23265681159682572,colour,0.5
151,19,1,1,2,34,84,119.6854173935717,120.4878372597741,"[12, 0, 242]",242,a,0.2791160213528201,colour,0.5
151,19,1,1,2,35,85,120.99785275373142,122.751837092801,"[0, 0, 254]",254,a,1.2306222051847726,colour,0.5
151,19,1,1,2,36,86,123.26356896583457,124.06382622581441,"[43, 0, 211]",211,a,0.27692781516816467,colour,0.5
151,19,1,1,2,37,87,124.57609884894919,125.35186363803223,"[32, 0, 222]",222,a,0.25243376893922687,colour,0.5
151,19,1,1,2,38,88,125.8729209874291,126.57583772926591,"[48, 0, 206]",206,a,0.17959241708740592,colour,0.5
151,19,1,1,2,39,89,127.09182786103338,128.0158081750851,"[11, 0, 243]",243,a,0.4006701676407829,colour,0.5
151,19,1,1,2,40,90,128.52912960899994,129.39981867349707,"[74, 0, 180]",180,l,0.34727454907260835,colour,0.5
151,19,1,1,2,41,91,129.9198173659388,130.71982098929584,"[75, 0, 179]",179,l,0.2765442095696926,colour,0.5
151,19,1,1,2,42,92,131.2322948675137,131.99988617864437,"[66, 0, 188]",188,l,0.24439853080548346,colour,0.5
151,19,1,1,2,43,93,132.5134202891495,133.16779280256014,"[92, 0, 162]",162,l,0.13167952315416187,colour,0.5
151,19,1,1,2,44,94,133.6853382306872,134.3278024281608,"[71, 0, 183]",183,a,0.11959830904379487,colour,0.5
151,19,1,1,2,45,95,134.8416799720144,135.44779970275704,"[67, 0, 187]",187,a,0.08266819384880364,colour,0.5
151,19,1,1,2,46,96,135.9542095400393,136.9358078915393,"[76, 0, 178]",178,l,0.45819171296898276,colour,0.5
151,19,1,1,2,47,97,137.45427216147073,138.41577926685568,"[45, 0, 209]",209,a,0.43821586365811527,colour,0.5
151,19,1,1,2,48,98,138.92289881396573,139.58379144140054,"[7, 0, 247]",247,a,0.13758248114027083,colour,0.5
151,19,1,1,2,49,99,140.09650753461756,140.71179441572167,"[20, 0, 234]",234,a,0.09192986716516316,colour,0.5
151,19,1,1,2,50,100,141.22145820548758,141.83993917447515,"[29, 0, 225]",225,a,0.09502746281214058,colour,0.5
151,19,1,1,3,1,101,146.97068764653523,147.90385007718578,"[5, 0, 249]",249,a,0.4150144187733531,colour,0.5
151,19,1,1,3,2,102,148.41894145321567,149.19983489986043,"[95, 0, 159]",159,l,0.2575096511282027,colour,0.5
151,19,1,1,3,3,103,149.7158305455232,150.41581668215804,"[63, 0, 191]",191,l,0.1768020208692178,colour,0.5
151,19,1,1,3,4,104,150.9344837826211,151.7278487443691,"[24, 0, 230]",230,a,0.269914606353268,colour,0.5
151,19,1,1,3,5,105,152.24687385046855,152.99977550795302,"[11, 0, 243]",243,a,0.22976992325857282,colour,0.5
151,19,1,1,3,6,106,153.5085622036131,154.21579864399973,"[50, 0, 204]",204,a,0.1838404358131811,colour,0.5
151,19,1,1,3,7,107,154.72727294208016,155.44781112426426,"[14, 0, 240]",240,a,0.19653368601575494,colour,0.5
151,19,1,1,3,8,108,155.961739080376,156.64776142092887,"[17, 0, 237]",237,a,0.162684231181629,colour,0.5
151,19,1,1,3,9,109,157.16483856656123,157.91978900902905,"[31, 0, 223]",223,a,0.23101959540508687,colour,0.5
151,19,1,1,3,10,110,158.43155042047147,159.1198066532379,"[22, 0, 232]",232,a,0.16530606127344072,colour,0.5
151,19,1,1,3,11,111,159.6343860301422,160.33575417101383,"[57, 0, 197]",197,l,0.1785002831602469,colour,0.5
151,19,1,1,3,12,112,160.8535299987998,161.51177755917888,"[12, 0, 242]",242,a,0.1348881833255291,colour,0.5
151,19,1,1,3,13,113,162.02535420504864,162.74380539928097,"[4, 0, 250]",250,a,0.19503943575546145,colour,0.5
151,19,1,1,3,14,114,163.2602035551099,164.02380245330278,"[19, 0, 235]",235,a,0.24082201882265508,colour,0.5
151,19,1,1,3,15,115,164.53193300205749,165.33580222015735,"[1, 0, 253]",253,a,0.27823932108003646,colour,0.5
151,19,1,1,3,16,116,165.8476219207514,166.6237821308896,"[77, 0, 177]",177,l,0.2530910972272977,colour,0.5
151,19,1,1,3,17,117,167.14458426833153,167.95982617232949,"[85, 0, 169]",169,l,0.29190576379187405,colour,0.5
151,19,1,1,3,18,118,168.47263954533264,169.16791174386162,"[46, 0, 208]",208,a,0.1718537446577102,colour,0.5
151,19,1,1,3,19,119,169.67579889611807,170.4157493346138,"[7, 0, 247]",247,a,0.21655443380586803,colour,0.5
151,19,1,1,3,20,120,170.92575222544838,172.08793666644488,"[81, 0, 173]",173,l,0.6389018639456481,colour,0.5
151,19,1,1,3,21,121,172.59840193204582,173.67176631093025,"[64, 0, 190]",190,a,0.5508612222038209,colour,0.5
151,19,1,1,3,22,122,174.191395969945,175.11975584714673,"[20, 0, 234]",234,a,0.40502531244419515,colour,0.5
151,19,1,1,3,23,123,175.62891905917786,176.4238042649813,"[6, 0, 248]",248,a,0.27152740419842303,colour,0.5
151,19,1,1,3,24,124,176.94141664693598,177.70373948523775,"[13, 0, 241]",241,a,0.23918480251450092,colour,0.5
151,19,1,1,3,25,125,178.22253497934435,178.99975463410374,"[97, 0, 157]",157,l,0.25371494865976274,colour,0.5
151,19,1,1,3,26,126,179.51954498223495,180.51174920226913,"[45, 0, 209]",209,a,0.4691737040411681,colour,0.5
151,19,1,1,3,27,127,181.01948511775117,181.63978210883215,"[90, 0, 164]",164,l,0.09685214958153665,colour,0.5
151,19,1,1,3,28,128,182.16018646222074,182.87979674409144,"[54, 0, 200]",200,a,0.19664317509159446,colour,0.5
151,19,1,1,3,29,129,183.39454429305624,184.1037436600309,"[41, 0, 213]",213,a,0.18589197762776166,colour,0.5
151,19,1,1,3,30,130,184.6164038272109,185.28777629253455,"[61, 0, 193]",193,a,0.14821276802103966,colour,0.5
151,19,1,1,3,31,131,185.80397161783185,186.56772450974677,"[83, 0, 171]",171,l,0.24042581021785736,colour,0.5
151,19,1,1,3,32,132,187.08512933494058,187.87976523651741,"[94, 0, 160]",160,l,0.2714261858491227,colour,0.5
151,19,1,1,3,33,133,188.38983547489624,189.17575990536716,"[82, 0, 172]",172,l,0.26260719494894147,colour,0.5
151,19,1,1,3,34,134,189.6866969979601,190.4237140743062,"[69, 0, 185]",185,a,0.22488466231152415,colour,0.5
151,19,1,1,3,35,135,190.94149777910206,191.63971515512094,"[28, 0, 226]",226,a,0.17533730913419276,colour,0.5
151,19,1,1,3,36,136,192.15976071509067,192.8077474157326,"[91, 0, 163]",163,l,0.12451940984465182,colour,0.5
151,19,1,1,3,37,137,193.3068116386421,195.71977806009818,"[76, 0, 178]",178,l,1.88956372148823,colour,0.5
151,19,1,1,3,38,138,196.22867266938556,196.88774612394627,"[21, 0, 233]",233,a,0.13572746829595417,colour,0.5
151,19,1,1,3,39,139,197.4005535893375,198.2877302125562,"[72, 0, 182]",182,l,0.36202170397154987,colour,0.5
151,19,1,1,3,40,140,198.80855716229416,199.46368389006238,"[32, 0, 222]",222,a,0.1317358430242166,colour,0.5
151,19,1,1,3,41,141,199.9804077561712,200.56774814042728,"[88, 0, 166]",166,l,0.06413578847423196,colour,0.5
151,19,1,1,3,42,142,201.07411268551368,201.72770105220843,"[52, 0, 202]",202,a,0.13072405359707773,colour,0.5
151,19,1,1,3,43,143,202.24608931003604,202.92771475808695,"[62, 0, 192]",192,a,0.15835035406053066,colour,0.5
151,19,1,1,3,44,144,203.44922069762833,204.51170351612382,"[79, 0, 175]",175,l,0.5396728561026976,colour,0.5
151,19,1,1,3,45,145,205.02734706376214,205.69572393945418,"[73, 0, 181]",181,l,0.15743702615145594,colour,0.5
151,19,1,1,3,46,146,206.20243191788904,206.8797597226221,"[9, 0, 245]",245,a,0.1540393199538812,colour,0.5
151,19,1,1,3,47,147,207.38988194870763,207.98371999780647,"[25, 0, 229]",229,a,0.07053341658320278,colour,0.5
151,19,1,1,3,48,148,208.50115475535858,209.18371125438716,"[43, 0, 211]",211,a,0.15917861135676503,colour,0.5
151,19,1,1,3,49,149,209.70434285677038,210.31970299314708,"[47, 0, 207]",207,a,0.09206928848288953,colour,0.5
151,19,1,1,3,50,150,210.82915607548784,211.5357517291559,"[66, 0, 188]",188,a,0.1840968292672187,colour,0.5
151,19,1,1,4,1,151,216.86943427228834,217.41569852852263,"[19, 0, 235]",235,a,0.022209741757251322,colour,0.5
151,19,1,1,4,2,152,217.93275204347447,218.66370862349868,"[68, 0, 186]",186,l,0.20822735596448183,colour,0.5
151,19,1,1,4,3,153,219.18250254227314,219.95969856635202,"[18, 0, 236]",236,a,0.2537996255559847,colour,0.5
151,19,1,1,4,4,154,220.47947079746518,221.18378884205595,"[40, 0, 214]",214,a,0.18146830378100276,colour,0.5
151,19,1,1,4,5,155,221.69824415748008,222.42367902211845,"[1, 0, 253]",253,a,0.2028407296165824,colour,0.5
151,19,1,1,4,6,156,222.9201856115833,223.5596857268829,"[21, 0, 233]",233,a,0.1160615753615275,colour,0.5
151,19,1,1,4,7,157,224.07635642390233,224.85570048191585,"[94, 0, 160]",160,l,0.25618948065675795,colour,0.5
151,19,1,1,4,8,158,225.37331640848424,226.1356813883176,"[87, 0, 167]",167,l,0.23996501078363508,colour,0.5
151,19,1,1,4,9,159,226.65489593415987,227.37573777127545,"[86, 0, 168]",168,l,0.20797490107361227,colour,0.5
151,19,1,1,4,10,160,227.8945494130021,228.58381349674892,"[84, 0, 170]",170,l,0.16507644939702004,colour,0.5
151,19,1,1,4,11,161,229.08660783141386,229.81570112786721,"[41, 0, 213]",213,a,0.2056082827039063,colour,0.5
151,19,1,1,4,12,162,230.3366651359247,231.05586069833953,"[49, 0, 205]",205,a,0.19605319434776902,colour,0.5
151,19,1,1,4,13,163,231.5712943263352,232.31181781017222,"[90, 0, 164]",164,l,0.21780804439913481,colour,0.5
151,19,1,1,4,14,164,232.82165016583167,233.87168982613366,"[63, 0, 191]",191,a,0.526967002893798,colour,0.5
151,19,1,1,4,15,165,234.38409871968906,235.06366553681437,"[6, 0, 248]",248,a,0.15615781547967345,colour,0.5
151,19,1,1,4,16,166,235.57151999988127,236.35168246901594,"[83, 0, 171]",171,l,0.25694802729412913,colour,0.5
151,19,1,1,4,17,167,236.86848904273938,237.63165983080398,"[45, 0, 209]",209,a,0.2387755970703438,colour,0.5
151,19,1,1,4,18,168,238.1512099331012,238.96766763844062,"[12, 0, 242]",242,a,0.2934594847029075,colour,0.5
151,19,1,1,4,19,169,239.4793140469119,240.8476561853895,"[64, 0, 190]",190,a,0.8448413708247244,colour,0.5
151,19,1,1,4,20,170,241.35439960996155,242.0316628239816,"[79, 0, 175]",175,l,0.15392195398453623,colour,0.5
151,19,1,1,4,21,171,242.54201544972602,243.29567565396428,"[38, 0, 216]",216,a,0.2303925931919366,colour,0.5
151,19,1,1,4,22,172,243.8094665518729,244.56776546966285,"[47, 0, 207]",207,a,0.23501515912357718,colour,0.5
151,19,1,1,4,23,173,245.07504570577294,247.1037149092881,"[70, 0, 184]",184,a,1.5057080044643953,colour,0.5
151,19,1,1,4,24,174,247.62183692737017,248.29562563553918,"[32, 0, 222]",222,a,0.1509145488962531,colour,0.5
151,19,1,1,4,25,175,248.81213288661093,249.59965002874378,"[96, 0, 158]",158,l,0.2641715497011319,colour,0.5
151,19,1,1,4,26,176,250.10909996030387,250.79965231311508,"[61, 0, 193]",193,a,0.16798145463690162,colour,0.5
151,19,1,1,4,27,177,251.31227742799092,252.02378748718183,"[62, 0, 192]",192,a,0.18841731559950858,colour,0.5
151,19,1,1,4,28,178,252.53097083733883,253.30367229518015,"[34, 0, 220]",220,a,0.25009432598017156,colour,0.5
151,19,1,1,4,29,179,253.81362634920515,254.58367604459636,"[4, 0, 250]",250,a,0.2470975547330454,colour,0.5
151,19,1,1,4,30,180,255.0949569644872,255.8556374666514,"[93, 0, 161]",161,l,0.23746369720902294,colour,0.5
151,19,1,1,4,31,181,256.3762403182918,257.1916263697203,"[15, 0, 239]",239,a,0.2921227727783844,colour,0.5
151,19,1,1,4,32,182,257.7043318290962,258.5116452269722,"[78, 0, 176]",176,l,0.2838244456797838,colour,0.5
151,19,1,1,4,33,183,259.0324847798329,260.0876353745116,"[66, 0, 188]",188,a,0.5318664421793073,colour,0.5
151,19,1,1,4,34,184,260.59497744438704,261.2316292683827,"[3, 0, 251]",251,a,0.1133188345702365,colour,0.5
151,19,1,1,4,35,185,261.7511592844967,262.4316662111087,"[29, 0, 225]",225,a,0.15723970939870924,colour,0.5
151,19,1,1,4,36,186,262.9386274322169,263.74362265493255,"[0, 0, 254]",254,a,0.2819257159717381,colour,0.5
151,19,1,1,4,37,187,264.2511226568604,265.39965719671454,"[73, 0, 181]",181,a,0.6251314459368587,colour,0.5
151,19,1,1,4,38,188,265.90737932769116,269.15161874482874,"[76, 0, 178]",178,a,2.720883190864697,colour,0.5
151,19,1,1,4,39,189,269.65748074289877,270.39163928781636,"[44, 0, 210]",210,a,0.21091141388751566,colour,0.5
151,19,1,1,4,40,190,270.9074356475612,272.0956477696309,"[69, 0, 185]",185,a,0.6648074528202415,colour,0.5
151,19,1,1,4,41,191,272.6105445860885,273.2476300339913,"[10, 0, 244]",244,a,0.11381626152433455,colour,0.5
151,19,1,1,4,42,192,273.76672209380195,274.55164379335474,"[60, 0, 194]",194,a,0.2748195595340803,colour,0.5
151,19,1,1,4,43,193,275.0666591572808,275.8636679786723,"[82, 0, 172]",172,l,0.2736581088975072,colour,0.5
151,19,1,1,4,44,194,276.3792366957059,276.951642848202,"[97, 0, 157]",157,l,0.049363427329808474,colour,0.5
151,19,1,1,4,45,195,277.47297549573705,278.11958570592105,"[46, 0, 208]",208,a,0.12309802114032209,colour,0.5
151,19,1,1,4,46,196,278.62910140969325,279.6956073611509,"[7, 0, 247]",247,a,0.5430500822840258,colour,0.5
151,19,1,1,4,47,197,280.20730693882797,280.82362057536375,"[25, 0, 229]",229,a,0.0928857303224504,colour,0.5
151,19,1,1,4,48,198,281.33241987403017,281.8796029720688,"[22, 0, 232]",232,a,0.0240631791530177,colour,0.5
151,19,1,1,4,49,199,282.3948932403,282.9996026097797,"[77, 0, 177]",177,l,0.0813397525344044,colour,0.5
151,19,1,1,4,50,200,283.51979664957616,285.3996130860178,"[59, 0, 195]",195,a,1.3575066579505801,colour,0.5
151,19,1,1,5,1,201,290.1922360426979,290.7516677392414,"[80, 0, 174]",174,l,0.03221223864238709,colour,0.4
151,19,1,1,5,2,202,291.2463626388926,292.14360319892876,"[35, 0, 219]",219,a,0.3742116194916889,colour,0.4
151,19,1,1,5,3,203,292.65250883589033,293.26365324889775,"[87, 0, 167]",167,l,0.08781693747732788,colour,0.4
151,19,1,1,5,4,204,293.7774843190564,294.4955905044917,"[85, 0, 169]",169,l,0.19585824070964009,colour,0.4
151,19,1,1,5,5,205,295.0117614114424,296.3356828849064,"[74, 0, 180]",180,a,0.8005014441441745,colour,0.4
151,19,1,1,5,6,206,296.8555027714465,297.5115999347763,"[71, 0, 183]",183,a,0.13264286948833615,colour,0.4
151,19,1,1,5,7,207,298.0274530083407,298.79160053341184,"[11, 0, 243]",243,a,0.24126430740579963,colour,0.4
151,19,1,1,5,8,208,299.3086174207274,300.1515726648504,"[61, 0, 193]",193,a,0.3197207162156701,colour,0.4
151,19,1,1,5,9,209,300.66728316631634,301.6635652637342,"[62, 0, 192]",192,a,0.4729333542054519,colour,0.4
151,19,1,1,5,10,210,302.1829070217209,302.9837873453507,"[89, 0, 165]",165,l,0.2774610820924863,colour,0.4
151,19,1,1,5,11,211,303.4954369047191,304.2715372502571,"[94, 0, 160]",160,l,0.26505140075460076,colour,0.4
151,19,1,1,5,12,212,304.77983636502177,305.5435742906993,"[86, 0, 168]",168,l,0.2404218716546893,colour,0.4
151,19,1,1,5,13,213,306.06118194642477,306.8475616624346,"[39, 0, 215]",215,a,0.26312037580646574,colour,0.4
151,19,1,1,5,14,214,307.3581064847531,308.0955552159576,"[70, 0, 184]",184,a,0.21414409868884832,colour,0.4
151,19,1,1,5,15,215,308.5960628829198,309.3675958008971,"[79, 0, 175]",175,l,0.2489013676531613,colour,0.4
151,19,1,1,5,16,216,309.8772781013977,310.61556690523867,"[96, 0, 158]",158,l,0.2148530207341537,colour,0.4
151,19,1,1,5,17,217,311.12731571367476,311.8796884366311,"[92, 0, 162]",162,l,0.2294446068117395,colour,0.4
151,19,1,1,5,18,218,312.3929681228474,313.183573408518,"[57, 0, 197]",197,a,0.2672825362533331,colour,0.4
151,19,1,1,5,19,219,313.68977647682186,314.3995618860936,"[48, 0, 206]",206,a,0.1988388643367216,colour,0.4
151,19,1,1,5,20,220,314.8992527172668,315.66359677142464,"[36, 0, 218]",218,a,0.2411335507640615,colour,0.4
151,19,1,1,5,21,221,316.1713421391323,316.95954654191155,"[90, 0, 164]",164,l,0.2775351251475513,colour,0.4
151,19,1,1,5,22,222,317.4712614795426,318.271551428712,"[83, 0, 171]",171,l,0.2769565659109503,colour,0.4
151,19,1,1,5,23,223,318.78362043364905,319.5755226528272,"[44, 0, 210]",210,a,0.2682939317310229,colour,0.4
151,19,1,1,5,24,224,320.0872927288292,320.88752911495976,"[75, 0, 179]",179,a,0.27690497203730047,colour,0.4
151,19,1,1,5,25,225,321.3879733728245,322.1355541761732,"[55, 0, 199]",199,a,0.23687411041464657,colour,0.4
151,19,1,1,5,26,226,322.6567099870881,323.48752533411607,"[27, 0, 227]",227,a,0.30736696091480553,colour,0.4
151,19,1,1,5,27,227,324.0004887623945,324.8156030602986,"[23, 0, 231]",231,a,0.29193884681444615,colour,0.4
151,19,1,1,5,28,228,325.32860666082706,326.10356839874294,"[10, 0, 244]",244,a,0.25160511780995876,colour,0.4
151,19,1,1,5,29,229,326.6098356639268,327.4075246567372,"[43, 0, 211]",211,a,0.27435915416572243,colour,0.4
151,19,1,1,5,30,230,327.9223151347833,328.6555560193956,"[88, 0, 166]",166,l,0.2098003753926605,colour,0.4
151,19,1,1,5,31,231,329.17231927008834,329.99960142816417,"[68, 0, 186]",186,a,0.3031067328993231,colour,0.4
151,19,1,1,5,32,232,330.5169259089744,331.2796051775804,"[30, 0, 224]",224,a,0.24035097938030958,colour,0.4
151,19,1,1,5,33,233,331.7980615706183,332.5355552001856,"[1, 0, 253]",253,a,0.21389440051279962,colour,0.4
151,19,1,1,5,34,234,333.05172177485656,334.5515299719991,"[76, 0, 178]",178,l,0.976582333794795,colour,0.4
151,19,1,1,5,35,235,335.0674570885021,336.535857673618,"[64, 0, 190]",190,a,0.9450089127058163,colour,0.4
151,19,1,1,5,36,236,337.0519033377059,337.6555796500761,"[24, 0, 230]",230,a,0.081189303426072,colour,0.4
151,19,1,1,5,37,237,338.1492218003841,338.88762797031086,"[77, 0, 177]",177,l,0.2153480846900493,colour,0.4
151,19,1,1,5,38,238,339.3991794619942,340.11956916435156,"[98, 0, 156]",156,l,0.19741747551597655,colour,0.4
151,19,1,1,5,39,239,340.6361555784242,341.3674878872698,"[42, 0, 212]",212,a,0.20790873491205275,colour,0.4
151,19,1,1,5,40,240,341.8862711720867,342.54363218601793,"[54, 0, 200]",200,a,0.13438524247612804,colour,0.4
151,19,1,1,5,41,241,343.05814736592583,343.7595600114437,"[95, 0, 159]",159,l,0.17807729297783226,colour,0.4
151,19,1,1,5,42,242,344.2768738582963,344.95171767880674,"[12, 0, 242]",242,a,0.15181527379900217,colour,0.4
151,19,1,1,5,43,243,345.464438498253,346.2075144954724,"[59, 0, 195]",195,a,0.22060986200813204,colour,0.4
151,19,1,1,5,44,244,346.714402067475,347.3754920116626,"[34, 0, 220]",220,a,0.1380771512631327,colour,0.4
151,19,1,1,5,45,245,347.8862908644369,348.55952385638375,"[84, 0, 170]",170,l,0.14996419940143824,colour,0.4
151,19,1,1,5,46,246,349.07371726445854,349.68784584570676,"[14, 0, 240]",240,a,0.09068807191215456,colour,0.4
151,19,1,1,5,47,247,350.20064740336966,350.9675250662258,"[82, 0, 172]",172,l,0.24359114724211395,colour,0.4
151,19,1,1,5,48,248,351.4820370954694,352.56752207304817,"[16, 0, 238]",238,a,0.5625544984359294,colour,0.4
151,19,1,1,5,49,249,353.077400902519,353.79153948731255,"[40, 0, 214]",214,a,0.19077093701343983,colour,0.4
151,19,1,1,5,50,250,354.3117618840188,355.327604323742,"[49, 0, 205]",205,a,0.4926252409350127,colour,0.4
151,19,1,1,6,1,251,359.9205081710825,361.7354728076607,"[69, 0, 185]",185,a,1.2914335428504273,colour,0.28
151,19,1,1,6,2,252,362.2491979333572,363.0074807035271,"[91, 0, 163]",163,l,0.23494978074450046,colour,0.28
151,19,1,1,6,3,253,363.51482986263,364.0474828145234,"[46, 0, 208]",208,a,0.009313661023043096,colour,0.28
151,19,1,1,6,4,254,364.56180816097185,365.18349385168403,"[82, 0, 172]",172,l,0.0989934882381931,colour,0.28
151,19,1,1,6,5,255,365.7023846564116,366.6875224984251,"[56, 0, 198]",198,a,0.46178831113502383,colour,0.28
151,19,1,1,6,6,256,367.20227634883486,367.8476975391386,"[5, 0, 249]",249,a,0.12266242783516645,colour,0.28
151,19,1,1,6,7,257,368.3467637312133,368.959473680472,"[25, 0, 229]",229,a,0.08929937228094786,colour,0.28
151,19,1,1,6,8,258,369.4717435466591,370.5994779182365,"[71, 0, 183]",183,l,0.6047645078506321,colour,0.28
151,19,1,1,6,9,259,371.11235312512144,371.6634853130672,"[49, 0, 205]",205,a,0.028411234612576663,colour,0.28
151,19,1,1,6,10,260,372.17489186965395,372.8874980012188,"[77, 0, 177]",177,l,0.1893424589652568,colour,0.28
151,19,1,1,6,11,261,373.3823898236733,374.5994987920858,"[83, 0, 171]",171,l,0.6939839295810089,colour,0.28
151,19,1,1,6,12,262,375.1167980666505,375.7194744051667,"[98, 0, 156]",156,l,0.07940675830468535,colour,0.28
151,19,1,1,6,13,263,376.2261272452306,376.9274804199813,"[65, 0, 189]",189,a,0.17823522514663637,colour,0.28
151,19,1,1,6,14,264,377.44558904727455,377.9915055378806,"[80, 0, 174]",174,a,0.02318017731886357,colour,0.28
151,19,1,1,6,15,265,378.5074381681625,379.7034988455707,"[1, 0, 253]",253,a,0.6727131156949326,colour,0.28
151,19,1,1,6,16,266,380.21050811593886,380.99948642530944,"[79, 0, 175]",175,l,0.2656248400453478,colour,0.28
151,19,1,1,6,17,267,381.4986526541179,382.2716305917129,"[16, 0, 238]",238,a,0.24983320641331375,colour,0.28
151,19,1,1,6,18,268,382.77999744785484,383.6714472959284,"[86, 0, 168]",168,l,0.36844847665634006,colour,0.28
151,19,1,1,6,19,269,384.18612434645183,384.8154904204421,"[52, 0, 202]",202,a,0.10586648783646524,colour,0.28
151,19,1,1,6,20,270,385.3268422324909,386.2874734252691,"[55, 0, 199]",199,a,0.4372820557327941,colour,0.28
151,19,1,1,6,21,271,386.79552599263843,387.5514831043547,"[89, 0, 165]",165,l,0.23268201772589236,colour,0.28
151,19,1,1,6,22,272,388.061153195682,388.6874744492816,"[66, 0, 188]",188,a,0.10297251038718969,colour,0.28
151,19,1,1,6,23,273,389.20176238031127,390.16745015687775,"[57, 0, 197]",197,a,0.4395746310474351,colour,0.28
151,19,1,1,6,24,274,390.68895649025217,391.43949349876493,"[67, 0, 187]",187,a,0.22716857306659222,colour,0.28
151,19,1,1,6,25,275,391.9545435210457,392.67943527258467,"[72, 0, 182]",182,a,0.20152764825616032,colour,0.28
151,19,1,1,6,26,276,393.18890844110865,393.95147191919386,"[18, 0, 236]",236,a,0.23923994100186974,colour,0.28
151,19,1,1,6,27,277,394.47014925954863,395.23146661010105,"[24, 0, 230]",230,a,0.23798475496005267,colour,0.28
151,19,1,1,6,28,278,395.73768543230835,396.455445427564,"[29, 0, 225]",225,a,0.19444866734556854,colour,0.28
151,19,1,1,6,29,279,396.9719448017422,397.5754915389698,"[50, 0, 204]",204,a,0.08040673227515072,colour,0.28
151,19,1,1,6,30,280,398.097035287763,398.8314246261725,"[61, 0, 193]",193,a,0.2110661951592192,colour,0.28
151,19,1,1,6,31,281,399.34698270936497,400.2074353324715,"[94, 0, 160]",160,l,0.3370542553020641,colour,0.28
151,19,1,1,6,32,282,400.7219446047675,401.50345678289887,"[85, 0, 169]",169,l,0.258015742758289,colour,0.28
151,19,1,1,6,33,283,402.0188809585525,402.6874760246137,"[63, 0, 191]",191,a,0.14546411950141191,colour,0.28
151,19,1,1,6,34,284,403.20641645393334,403.94346818863414,"[8, 0, 246]",246,a,0.21376324992161244,colour,0.28
151,19,1,1,6,35,285,404.4563894754974,405.63149914180394,"[75, 0, 179]",179,l,0.6518692306708544,colour,0.28
151,19,1,1,6,36,286,406.1438005155651,406.89546786097344,"[35, 0, 219]",219,a,0.22820871928706765,colour,0.28
151,19,1,1,6,37,287,407.4094560755184,408.1114327078685,"[60, 0, 194]",194,a,0.17857156915124506,colour,0.28
151,19,1,1,6,38,288,408.6282774846768,409.391497109551,"[92, 0, 162]",162,l,0.24044865323230624,colour,0.28
151,19,1,1,6,39,289,409.9094060572097,410.5997126501752,"[53, 0, 201]",201,a,0.1675663412315771,colour,0.28
151,19,1,1,6,40,290,411.1126355123706,412.0713935754029,"[68, 0, 186]",186,a,0.4354853320401162,colour,0.28
151,19,1,1,6,41,291,412.58135038625915,413.43158704810776,"[76, 0, 178]",178,l,0.3274857762735337,colour,0.28
151,19,1,1,6,42,292,413.94067661103327,414.63944497704506,"[33, 0, 221]",221,a,0.17538969055749476,colour,0.28
151,19,1,1,6,43,293,415.146986332722,415.9434567671269,"[90, 0, 164]",164,l,0.2731858880724758,colour,0.28
151,19,1,1,6,44,294,416.4595229111146,417.1034270081436,"[87, 0, 167]",167,l,0.12112446071114391,colour,0.28
151,19,1,1,6,45,295,417.6111396867782,418.36741029971745,"[99, 0, 155]",155,l,0.23288563592359424,colour,0.28
151,19,1,1,6,46,296,418.87713434780017,419.57549114513677,"[6, 0, 248]",248,a,0.17517937696538866,colour,0.28
151,19,1,1,6,47,297,420.09585887088906,420.73545429692604,"[62, 0, 192]",192,a,0.11611001833807677,colour,0.28
151,19,1,1,6,48,298,421.2535392935388,421.9194424248999,"[64, 0, 190]",190,a,0.1424622283084318,colour,0.28
151,19,1,1,6,49,299,422.4409987766994,423.21542803535704,"[96, 0, 158]",158,l,0.25096039252821356,colour,0.28
151,19,1,1,6,50,300,423.72223801980726,424.39943467394914,"[39, 0, 215]",215,a,0.15379671100527048,colour,0.28
151,19,1,1,7,1,301,429.287167407223,430.36741581349634,"[60, 0, 194]",194,a,0.5565617436077446,colour,0.14
151,19,1,1,7,2,302,430.8816942923004,431.6793864357751,"[90, 0, 164]",164,l,0.2744068094762042,colour,0.14
151,19,1,1,7,3,303,432.19409578165505,432.75142828107346,"[73, 0, 181]",181,l,0.03401999000925571,colour,0.14
151,19,1,1,7,4,304,433.27229304006323,433.88746885664295,"[67, 0, 187]",187,a,0.09210591611918062,colour,0.14
151,19,1,1,7,5,305,434.3973421722185,435.3673720966326,"[4, 0, 250]",250,a,0.44672686723060906,colour,0.14
151,19,1,1,7,6,306,435.881616704748,436.5514275721507,"[61, 0, 193]",193,a,0.14687369286548346,colour,0.14
151,19,1,1,7,7,307,437.0707291578874,437.83961543336045,"[87, 0, 167]",167,l,0.24585694109555334,colour,0.14
151,19,1,1,7,8,308,438.3518841180485,439.1193836630555,"[52, 0, 202]",202,a,0.24418112798593938,colour,0.14
151,19,1,1,7,9,309,439.6332040994894,441.42345413623843,"[75, 0, 179]",179,a,1.267387299099937,colour,0.14
151,19,1,1,7,10,310,441.9301530562807,442.57547420973424,"[89, 0, 165]",165,l,0.12204054556787014,colour,0.14
151,19,1,1,7,11,311,443.08637309935875,443.7994199441746,"[98, 0, 156]",156,l,0.18969692010432482,colour,0.14
151,19,1,1,7,12,312,444.3208045792999,445.4874292357126,"[76, 0, 178]",178,a,0.6433617715956643,colour,0.14
151,19,1,1,7,13,313,446.0082908439217,446.69536869064905,"[59, 0, 195]",195,a,0.16397092468105257,colour,0.14
151,19,1,1,7,14,314,447.21139072394,447.927379201632,"[62, 0, 192]",192,a,0.1934057641774416,colour,0.14
151,19,1,1,7,15,315,448.4457631270634,449.16738556616474,"[64, 0, 190]",190,a,0.19836585584562272,colour,0.14
151,19,1,1,7,16,316,449.6799921703059,450.3914537865203,"[71, 0, 183]",183,a,0.18809436226729304,colour,0.14
151,19,1,1,7,17,317,450.8988624162739,453.8154274051776,"[82, 0, 172]",172,a,2.393537229858339,colour,0.14
151,19,1,1,7,18,318,454.3363232779084,454.98345060739666,"[50, 0, 204]",204,a,0.12392470298800617,colour,0.14
151,19,1,1,7,19,319,455.49257443484385,456.15140094817616,"[84, 0, 170]",170,l,0.13604018173646182,colour,0.14
151,19,1,1,7,20,320,456.6523205776466,457.4073584538419,"[93, 0, 161]",161,l,0.2317812928231433,colour,0.14
151,19,1,1,7,21,321,457.91783277783543,458.56735035637394,"[42, 0, 212]",212,a,0.1261034569470212,colour,0.14
151,19,1,1,7,22,322,459.07423674687743,459.75137274886947,"[27, 0, 227]",227,a,0.1539227416506037,colour,0.14
151,19,1,1,7,23,323,460.26351303979754,460.8953729441855,"[29, 0, 225]",225,a,0.10848083510063589,colour,0.14
151,19,1,1,7,24,324,461.3928850215161,462.41538305813447,"[74, 0, 180]",180,a,0.4990988812642172,colour,0.14
151,19,1,1,7,25,325,462.9242193782702,463.7433717752574,"[63, 0, 191]",191,a,0.29615220718551427,colour,0.14
151,19,1,1,7,26,326,464.2523353075376,465.0154033018043,"[83, 0, 171]",171,l,0.239062316599302,colour,0.14
151,19,1,1,7,27,327,465.53350129537284,467.1353383488022,"[81, 0, 173]",173,a,1.07913185399957,colour,0.14
151,19,1,1,7,28,328,467.64333065773826,468.343411711161,"[15, 0, 239]",239,a,0.1765448396326974,colour,0.14
151,19,1,1,7,29,329,468.8627802506089,469.7273871572688,"[70, 0, 184]",184,a,0.34205373155418783,colour,0.14
151,19,1,1,7,30,330,470.2371442884905,470.85536335012875,"[35, 0, 219]",219,a,0.09501997975166887,colour,0.14
151,19,1,1,7,31,331,471.3496399857104,471.9913976241369,"[79, 0, 175]",175,l,0.11862944881431758,colour,0.14
151,19,1,1,7,32,332,472.5059092595475,473.1434476298746,"[94, 0, 160]",160,l,0.11444168828893453,colour,0.14
151,19,1,1,7,33,333,473.6622179178521,474.28752029291354,"[68, 0, 186]",186,a,0.10242939728777856,colour,0.14
151,19,1,1,7,34,334,474.80272076418623,475.91133393137716,"[57, 0, 197]",197,a,0.5852522146888077,colour,0.14
151,19,1,1,7,35,335,476.42779589025304,477.38339885603637,"[65, 0, 189]",189,a,0.42933661432471126,colour,0.14
151,19,1,1,7,36,336,477.89342498383485,478.687512258417,"[66, 0, 188]",188,a,0.27123162616044283,colour,0.14
151,19,1,1,7,37,337,479.2082230236847,479.96736516500823,"[53, 0, 201]",201,a,0.23615809914190322,colour,0.14
151,19,1,1,7,38,338,480.47378563613165,481.14336964848917,"[99, 0, 155]",155,l,0.1461206601234153,colour,0.14
151,19,1,1,7,39,339,481.66127032530494,482.22342625202145,"[72, 0, 182]",182,a,0.03841176244895905,colour,0.14
151,19,1,1,7,40,340,482.73934234085027,483.3993472402217,"[96, 0, 158]",158,l,0.13625285832677037,colour,0.14
151,19,1,1,7,41,341,483.91129375912715,484.575382443727,"[95, 0, 159]",159,l,0.14098727644886822,colour,0.14
151,19,1,1,7,42,342,485.083182162256,485.615356985596,"[25, 0, 229]",229,a,0.006754846079275012,colour,0.14
151,19,1,1,7,43,343,486.1341414520284,487.1834635254927,"[91, 0, 163]",163,l,0.5364764051046222,colour,0.14
151,19,1,1,7,44,344,487.70171748194844,488.90331247786526,"[88, 0, 166]",166,l,0.678535335464403,colour,0.14
151,19,1,1,7,45,345,489.4204215250211,490.023333383142,"[54, 0, 200]",200,a,0.07943157048430294,colour,0.14
151,19,1,1,7,46,346,490.52996653097216,491.06335912493523,"[92, 0, 162]",162,l,0.010542853153310716,colour,0.14
151,19,1,1,7,47,347,491.57663014670834,493.47132213180885,"[85, 0, 169]",169,l,1.3718591796932742,colour,0.14
151,19,1,1,7,48,348,493.9835943609942,494.7513341519516,"[97, 0, 157]",157,l,0.2576983032049611,colour,0.14
151,19,1,1,7,49,349,495.2672230654862,496.0392778288806,"[58, 0, 196]",196,a,0.2492908809799701,colour,0.14
151,19,1,1,7,50,350,496.54877108347137,497.3113471646793,"[55, 0, 199]",199,a,0.23817892093211412,colour,0.14
151,19,1,1,8,1,351,502.3305487135658,503.02330699551385,"[53, 0, 201]",201,a,0.16893928707577288,colour,0.06
151,19,1,1,8,2,352,503.534464641707,504.31130187236704,"[55, 0, 199]",199,a,0.25344398291781545,colour,0.06
151,19,1,1,8,3,353,504.83159713062923,505.56730033794884,"[87, 0, 167]",167,l,0.21271246985998005,colour,0.06
151,19,1,1,8,4,354,506.08133148169145,506.7592996794265,"[68, 0, 186]",186,a,0.15470649441704154,colour,0.06
151,19,1,1,8,5,355,507.2687468541553,507.9113232976524,"[72, 0, 182]",182,a,0.11911702970974147,colour,0.06
151,19,1,1,8,6,356,508.4250752048101,509.10330255294684,"[75, 0, 179]",179,a,0.15484906651545316,colour,0.06
151,19,1,1,8,7,357,509.61472328798845,510.3192906368058,"[67, 0, 187]",187,a,0.18138677766546607,colour,0.06
151,19,1,1,8,8,358,510.83341315272264,511.5593332351418,"[60, 0, 194]",194,a,0.20270721602719277,colour,0.06
151,19,1,1,8,9,359,512.0698934175307,512.7673463391839,"[66, 0, 188]",188,a,0.17400099092628807,colour,0.06
151,19,1,1,8,10,360,513.2886939528398,513.9833226075862,"[52, 0, 202]",202,a,0.17131614533718675,colour,0.06
151,19,1,1,8,11,361,514.4918556666235,515.2312704750802,"[85, 0, 169]",169,l,0.21610190521460027,colour,0.06
151,19,1,1,8,12,362,515.7437762547052,516.407568373601,"[92, 0, 162]",162,l,0.14062296925112605,colour,0.06
151,19,1,1,8,13,363,516.9155988855055,517.5273966883542,"[97, 0, 157]",157,l,0.08873499149922282,colour,0.06
151,19,1,1,8,14,364,518.0406137532555,518.775258697453,"[56, 0, 198]",198,a,0.21129068720620126,colour,0.06
151,19,1,1,8,15,365,519.2906202516751,520.3032485173317,"[99, 0, 155]",155,l,0.489348839269951,colour,0.06
151,19,1,1,8,16,366,520.8217962825438,521.7993108489318,"[77, 0, 177]",177,a,0.45408035872969776,colour,0.06
151,19,1,1,8,17,367,522.296406631358,522.8632607422769,"[58, 0, 196]",196,a,0.04345850006211549,colour,0.06
151,19,1,1,8,18,368,523.3745117299259,524.0152560035931,"[91, 0, 163]",163,l,0.117389622842893,colour,0.06
151,19,1,1,8,19,369,524.5308105421718,525.1432893039891,"[95, 0, 159]",159,l,0.08910638792440295,colour,0.06
151,19,1,1,8,20,370,525.6557009546086,526.2472767544677,"[96, 0, 158]",158,l,0.06820618291385472,colour,0.06
151,19,1,1,8,21,371,526.7651683728909,527.4634578226833,"[62, 0, 192]",192,a,0.1751336909364909,colour,0.06
151,19,1,1,8,22,372,527.9838503607316,529.1432861532085,"[69, 0, 185]",185,a,0.6360271847806871,colour,0.06
151,19,1,1,8,23,373,529.6558258036384,530.2632869724184,"[88, 0, 166]",166,l,0.08454486809205264,colour,0.06
151,19,1,1,8,24,374,530.7808107390301,531.4552835569484,"[73, 0, 181]",181,a,0.15148365579079837,colour,0.06
151,19,1,1,8,25,375,531.9683182713343,532.5272868054453,"[86, 0, 168]",168,l,0.04804483219049871,colour,0.06
151,19,1,1,8,26,376,533.0339510670165,533.6152608871926,"[64, 0, 190]",190,a,0.05772516340948641,colour,0.06
151,19,1,1,8,27,377,534.1276780517073,535.2632460125023,"[84, 0, 170]",170,l,0.6121944054029882,colour,0.06
151,19,1,1,8,28,378,535.7840249130968,536.5192677149316,"[51, 0, 203]",203,a,0.20923835772555321,colour,0.06
151,19,1,1,8,29,379,537.0366571801715,537.60727645515,"[70, 0, 184]",184,a,0.04717640264425427,colour,0.06
151,19,1,1,8,30,380,538.1148623154731,538.647282504593,"[76, 0, 178]",178,a,0.009887494030408561,colour,0.06
151,19,1,1,8,31,381,539.1616121833213,541.8392656984506,"[80, 0, 174]",174,l,2.1542004027869552,colour,0.06
151,19,1,1,8,32,382,542.3491693402175,543.3672606383916,"[90, 0, 164]",164,l,0.4951005605980754,colour,0.06
151,19,1,1,8,33,383,543.8804205955239,544.6233008515555,"[47, 0, 207]",207,a,0.21954884193837643,colour,0.06
151,19,1,1,8,34,384,545.1304456047947,545.7192475500051,"[59, 0, 195]",195,a,0.06567060481756926,colour,0.06
151,19,1,1,8,35,385,546.2397700571455,546.7672557546757,"[34, 0, 220]",220,a,0.004166492726653814,colour,0.06
151,19,1,1,8,36,386,547.2866349279648,548.1272751475917,"[94, 0, 160]",160,l,0.31787791254464537,colour,0.06
151,19,1,1,8,37,387,548.6460218048887,549.2473007790977,"[82, 0, 172]",172,l,0.07788375730160624,colour,0.06
151,19,1,1,8,38,388,549.7553809155943,550.7272973605432,"[32, 0, 222]",222,a,0.4494542481843382,colour,0.06
151,19,1,1,8,39,389,551.2397515464108,551.8072263579816,"[98, 0, 156]",156,l,0.04414891137275845,colour,0.06
151,19,1,1,8,40,390,552.3178968171123,553.0312425907468,"[81, 0, 173]",173,l,0.1907146171433851,colour,0.06
151,19,1,1,8,41,391,553.5522530726157,554.3593533999519,"[50, 0, 204]",204,a,0.283774821087718,colour,0.06
151,19,1,1,8,42,392,554.8802831434878,555.7992466520518,"[61, 0, 193]",193,a,0.3944269269704819,colour,0.06
151,19,1,1,8,43,393,556.3202409861842,556.8952532151015,"[71, 0, 183]",183,a,0.051570931915193796,colour,0.06
151,19,1,1,8,44,394,557.4139321309049,558.3595211781794,"[57, 0, 197]",197,a,0.42216507950797677,colour,0.06
151,19,1,1,8,45,395,558.8680246988079,559.4712484827032,"[54, 0, 200]",200,a,0.07990497292485088,colour,0.06
151,19,1,1,8,46,396,559.9773621481145,560.5912528465269,"[79, 0, 175]",175,l,0.09550559148192406,colour,0.06
151,19,1,1,8,47,397,561.097355878097,561.639244509628,"[78, 0, 176]",176,l,0.01865843590348959,colour,0.06
151,19,1,1,8,48,398,562.1598969857441,562.727246554452,"[63, 0, 191]",191,a,0.0422360033262521,colour,0.06
151,19,1,1,8,49,399,563.2397893555462,564.1992271961644,"[89, 0, 165]",165,l,0.43613911571446806,colour,0.06
151,19,1,1,8,50,400,564.7084459402831,565.375224984251,"[93, 0, 161]",161,l,0.14348858990706503,colour,0.06
151,19,1,1,9,1,401,569.5064405573066,570.1512217484415,"[50, 0, 204]",204,a,0.11865111032966524,colour,0.06
151,19,1,1,9,2,402,570.6679574300069,571.5671849412611,"[81, 0, 173]",173,l,0.37588546343613416,colour,0.06
151,19,1,1,9,3,403,572.074189091567,572.7192010763101,"[70, 0, 184]",184,a,0.12159668165259063,colour,0.06
151,19,1,1,9,4,404,573.2304067716468,574.1511614901247,"[62, 0, 192]",192,a,0.3974351199576631,colour,0.06
151,19,1,1,9,5,405,574.6678829931188,575.2712245368166,"[3, 0, 251]",251,a,0.09087711770553142,colour,0.06
151,19,1,1,9,6,406,575.781937925145,576.4391717269318,"[55, 0, 199]",199,a,0.13402723683975637,colour,0.06
151,19,1,1,9,7,407,576.955756959389,577.6312585021369,"[51, 0, 203]",203,a,0.15207442420069128,colour,0.06
151,19,1,1,9,8,408,578.1433156916173,578.8712113036308,"[65, 0, 189]",189,a,0.20449448726139963,colour,0.06
151,19,1,1,9,9,409,579.3776711593382,580.1272148892749,"[88, 0, 166]",166,l,0.2388106492580846,colour,0.06
151,19,1,1,9,10,410,580.6465200195089,581.4152129169088,"[95, 0, 159]",159,l,0.24545758171007037,colour,0.06
151,19,1,1,9,11,411,581.9278167641023,582.6951989432564,"[46, 0, 208]",208,a,0.24401413754094392,colour,0.06
151,19,1,1,9,12,412,583.2090993302409,583.9431928906124,"[64, 0, 190]",190,a,0.21080940787214786,colour,0.06
151,19,1,1,9,13,413,584.4590404502815,585.735198297305,"[75, 0, 179]",179,l,0.7527957130223513,colour,0.06
151,19,1,1,9,14,414,586.2558543180348,586.9991776503157,"[99, 0, 155]",155,l,0.21968590025790036,colour,0.06
151,19,1,1,9,15,415,587.5059309210628,588.2551812359598,"[87, 0, 167]",167,l,0.22594331938307732,colour,0.06
151,19,1,1,9,16,416,588.7714793549385,589.5351869545411,"[98, 0, 156]",156,l,0.24100791395176202,colour,0.06
151,19,1,1,9,17,417,590.0527532565175,590.8552290487569,"[93, 0, 161]",161,l,0.27901716611813754,colour,0.06
151,19,1,1,9,18,418,591.3652516318252,592.1112271205056,"[57, 0, 197]",197,a,0.22269330534618348,colour,0.06
151,19,1,1,9,19,419,592.630883954931,593.2711863338482,"[54, 0, 200]",200,a,0.11715961701702327,colour,0.06
151,19,1,1,9,20,420,593.7870701273205,594.3912781313993,"[96, 0, 158]",158,l,0.08058081206399947,colour,0.06
151,19,1,1,9,21,421,594.9121511611156,595.8553212085972,"[77, 0, 177]",177,a,0.4199095257790759,colour,0.06
151,19,1,1,9,22,422,596.3652776257368,597.0552561453078,"[83, 0, 171]",171,a,0.16687514225486666,colour,0.06
151,19,1,1,9,23,423,597.5683074011467,598.1831315136515,"[72, 0, 182]",182,a,0.09141589852515608,colour,0.06
151,19,1,1,9,24,424,598.69339867495,599.255224558874,"[90, 0, 164]",164,l,0.04881204338744283,colour,0.06
151,19,1,1,9,25,425,599.7611094000749,600.4632431768114,"[31, 0, 223]",223,a,0.17492770962417126,colour,0.06
151,19,1,1,9,26,426,600.9683206344489,601.5512015047716,"[59, 0, 195]",195,a,0.05947817035485059,colour,0.06
151,19,1,1,9,27,427,602.063939259504,603.1274464704329,"[97, 0, 157]",157,l,0.5388091526692733,colour,0.06
151,19,1,1,9,28,428,603.6436217096634,604.1912368563935,"[66, 0, 188]",188,a,0.024274674244225025,colour,0.06
151,19,1,1,9,29,429,604.6962816248415,607.2471511177719,"[52, 0, 202]",202,a,2.027707038796507,colour,0.06
151,19,1,1,9,30,430,607.7523364890367,608.7511624352774,"[67, 0, 187]",187,a,0.4753893754677847,colour,0.06
151,19,1,1,9,31,431,609.2670474103652,609.8711443499196,"[86, 0, 168]",168,l,0.08067848568316549,colour,0.06
151,19,1,1,9,32,432,610.392114265589,611.0071766546462,"[76, 0, 178]",178,a,0.0916116398293525,colour,0.06
151,19,1,1,9,33,433,611.5170361857163,612.4871925346088,"[92, 0, 162]",162,l,0.44692221470177174,colour,0.06
151,19,1,1,9,34,434,613.0014773148578,613.5511723601958,"[53, 0, 201]",201,a,0.027040651999413967,colour,0.06
151,19,1,1,9,35,435,614.0639412287856,614.6231381932739,"[68, 0, 186]",186,a,0.03534212976228446,colour,0.06
151,19,1,1,9,36,436,615.1429238152923,616.0631555067375,"[94, 0, 160]",160,l,0.3969794404692948,colour,0.06
151,19,1,1,9,37,437,616.5804311506217,617.2311420813203,"[74, 0, 180]",180,a,0.12739763362333179,colour,0.06
151,19,1,1,9,38,438,617.7523762674537,618.4311333380174,"[60, 0, 194]",194,a,0.15545125654898584,colour,0.06
151,19,1,1,9,39,439,618.9398507167352,619.6791367377155,"[91, 0, 163]",163,l,0.21597075462341309,colour,0.06
151,19,1,1,9,40,440,620.1898524890421,620.7991603999399,"[69, 0, 185]",185,a,0.08596231846604496,colour,0.06
151,19,1,1,9,41,441,621.3148681444582,621.8871986785671,"[63, 0, 191]",191,a,0.049227156792767346,colour,0.06
151,19,1,1,9,42,442,622.4085750429658,622.9992190041812,"[79, 0, 175]",175,l,0.06726922420784831,colour,0.06
151,19,1,1,9,43,443,623.51795187674,624.2551075867377,"[61, 0, 193]",193,a,0.21412046789191663,colour,0.06
151,19,1,1,9,44,444,624.7679351383122,625.4391221023398,"[84, 0, 170]",170,l,0.14793313760310411,colour,0.06
151,19,1,1,9,45,445,625.9553627199493,626.5111800953746,"[56, 0, 198]",198,a,0.03230558009818196,colour,0.06
151,19,1,1,9,46,446,627.0179447875125,628.0711470280075,"[89, 0, 165]",165,l,0.5298550726147369,colour,0.06
151,19,1,1,9,47,447,628.5803669538582,629.2232025476405,"[58, 0, 196]",196,a,0.11979011178482324,colour,0.06
151,19,1,1,9,48,448,629.7366251999047,630.671128674876,"[80, 0, 174]",174,l,0.4118640476372093,colour,0.06
151,19,1,1,9,49,449,631.18980286445,632.5431182174943,"[78, 0, 176]",176,l,0.8301139080431312,colour,0.06
151,19,1,1,9,50,450,633.0379895599326,633.847158364486,"[71, 0, 183]",183,a,0.2858870151685551,colour,0.06
151,19,1,1,10,1,451,639.4308588275453,642.031108683208,"[77, 0, 177]",177,a,2.0761811626143754,colour,0.06
151,19,1,1,10,2,452,642.5430311775999,643.1511855146382,"[84, 0, 170]",170,l,0.08478668925818056,colour,0.06
151,19,1,1,10,3,453,643.6691921360325,644.2551418513758,"[54, 0, 200]",200,a,0.06265532283578068,colour,0.06
151,19,1,1,10,4,454,644.7629628374707,645.5271068180446,"[95, 0, 159]",159,l,0.24134622735437006,colour,0.06
151,19,1,1,10,5,455,646.0441213422455,646.8870978540508,"[97, 0, 157]",157,l,0.31988731282763183,colour,0.06
151,19,1,1,10,6,456,647.4035865943879,648.1191060019191,"[65, 0, 189]",189,a,0.19226361182518303,colour,0.06
151,19,1,1,10,7,457,648.6377758593298,649.2631018649554,"[80, 0, 174]",174,l,0.10189888719469309,colour,0.06
151,19,1,1,10,8,458,649.7784716899041,650.415103821666,"[24, 0, 230]",230,a,0.11314987484365702,colour,0.06
151,19,1,1,10,9,459,650.93471418228,651.5510865019169,"[69, 0, 185]",185,a,0.09298419184051454,colour,0.06
151,19,1,1,10,10,460,652.0609109806828,652.7911511556013,"[59, 0, 195]",195,a,0.2068969456013292,colour,0.06
151,19,1,1,10,11,461,653.3108710052911,653.9510709843598,"[61, 0, 193]",193,a,0.11713834933470935,colour,0.06
151,19,1,1,10,12,462,654.4670768700307,655.2951085162349,"[92, 0, 162]",162,l,0.30525831144768745,colour,0.06
151,19,1,1,10,13,463,655.8108993622009,656.7750917068915,"[57, 0, 197]",197,a,0.4502332747215405,colour,0.06
151,19,1,1,10,14,464,657.2859141904628,657.9911187815014,"[51, 0, 203]",203,a,0.18276878190226853,colour,0.06
151,19,1,1,10,15,465,658.5046032675309,659.2790632460965,"[50, 0, 204]",204,a,0.2512640474596992,colour,0.06
151,19,1,1,10,16,466,659.7858598397579,660.7831013450632,"[87, 0, 167]",167,l,0.4738332914421335,colour,0.06
151,19,1,1,10,17,467,661.3014443105785,662.1590738483937,"[56, 0, 198]",198,a,0.3341366470558569,colour,0.06
151,19,1,1,10,18,468,662.6764030553168,663.7030762492213,"[52, 0, 202]",202,a,0.5031720325350761,colour,0.06
151,19,1,1,10,19,469,664.2245636781445,665.07913933706,"[85, 0, 169]",169,l,0.3312462142203003,colour,0.06
151,19,1,1,10,20,470,665.6023904065369,666.4710775536951,"[68, 0, 186]",186,a,0.3452746010152623,colour,0.06
151,19,1,1,10,21,471,666.977410591091,667.7430460649775,"[89, 0, 165]",165,l,0.24225797993130982,colour,0.06
151,19,1,1,10,22,472,668.2586072988342,669.1670972711872,"[79, 0, 175]",175,l,0.3849955062614754,colour,0.06
151,19,1,1,10,23,473,669.6806613140507,670.487099586986,"[70, 0, 184]",184,a,0.28315805888269097,colour,0.06
151,19,1,1,10,24,474,671.0086216742638,671.8790606466355,"[86, 0, 168]",168,l,0.34695041400846094,colour,0.06
151,19,1,1,10,25,475,672.3993464525556,673.3670306324493,"[63, 0, 191]",191,a,0.44445083348546177,colour,0.06
151,19,1,1,10,26,476,673.8866339039523,674.5751118718181,"[58, 0, 196]",196,a,0.16499295411631465,colour,0.06
151,19,1,1,10,27,477,675.0898153099697,676.7430492157582,"[66, 0, 188]",188,a,1.1299399071140215,colour,0.06
151,19,1,1,10,28,478,677.2617178915534,678.503082629526,"[76, 0, 178]",178,a,0.7180250532692298,colour,0.06
151,19,1,1,10,29,479,679.0117066669045,679.6150773551781,"[90, 0, 164]",164,l,0.08002745895646513,colour,0.06
151,19,1,1,10,30,480,680.136744377669,680.7351656081155,"[55, 0, 199]",199,a,0.07502916431985795,colour,0.06
151,19,1,1,10,31,481,681.2460467746714,682.0950865396298,"[96, 0, 158]",158,l,0.3261632426874712,colour,0.06
151,19,1,1,10,32,482,682.6053399163065,683.2550670206547,"[73, 0, 181]",181,a,0.12637875496875495,colour,0.06
151,19,1,1,10,33,483,683.7615765009541,684.3750225476688,"[64, 0, 190]",190,a,0.09003862051758915,colour,0.06
151,19,1,1,10,34,484,684.8866425685119,686.0070608641254,"[75, 0, 179]",179,a,0.5970537986140698,colour,0.06
151,19,1,1,10,35,485,686.5201444153208,687.0870835968526,"[60, 0, 194]",194,a,0.04337539861444384,colour,0.06
151,19,1,1,10,36,486,687.5982573906658,688.3030878283316,"[53, 0, 201]",201,a,0.18149193446151912,colour,0.06
151,19,1,1,10,37,487,688.81909292622,689.5030448203906,"[93, 0, 161]",161,l,0.16118486085906625,colour,0.06
151,19,1,1,10,38,488,690.0221865047934,690.6710877149599,"[5, 0, 249]",249,a,0.12555167928803712,colour,0.06
151,19,1,1,10,39,489,691.1784817724256,691.7510883923387,"[83, 0, 171]",171,l,0.0493342827539891,colour,0.06
151,19,1,1,10,40,490,692.2722209662898,692.97506524052,"[99, 0, 155]",155,l,0.1803115791408345,colour,0.06
151,19,1,1,10,41,491,693.4908994094003,694.1269986679545,"[67, 0, 187]",187,a,0.11266111233271658,colour,0.06
151,19,1,1,10,42,492,694.6471257540397,695.2630715388805,"[74, 0, 180]",180,a,0.10472551721613854,colour,0.06
151,19,1,1,10,43,493,695.775644666166,696.6790418208111,"[91, 0, 163]",163,l,0.380042897653766,colour,0.06
151,19,1,1,10,44,494,697.1975442938274,697.8392428554362,"[72, 0, 182]",182,a,0.11842740594875067,colour,0.06
151,19,1,1,10,45,495,698.3568457850488,698.8950913446024,"[88, 0, 166]",166,l,0.014937776373699307,colour,0.06
151,19,1,1,10,46,496,699.4037205019267,700.0150386007736,"[81, 0, 173]",173,l,0.08805521402973682,colour,0.06
151,19,1,1,10,47,497,700.5286526620621,701.1910186659079,"[78, 0, 176]",176,a,0.1398490626597777,colour,0.06
151,19,1,1,10,48,498,701.7005071943859,702.23100974923,"[11, 0, 243]",243,a,0.007165627088397741,colour,0.06
151,19,1,1,10,49,499,702.7473830927629,703.279031738406,"[62, 0, 192]",192,a,0.008703594096004963,colour,0.06
151,19,1,1,10,50,500,703.7942034590524,704.7190640179906,"[94, 0, 160]",160,l,0.40239836217369884,colour,0.06
151,19,1,1,11,1,501,709.1294156984659,709.927034980501,"[88, 0, 166]",166,l,0.27838543779216707,colour,0.06
151,19,1,1,11,2,502,710.4377700303448,711.1030150456354,"[57, 0, 197]",197,a,0.14281629538163543,colour,0.06
151,19,1,1,11,3,503,711.609454815276,712.2790179537842,"[56, 0, 198]",198,a,0.147098972578533,colour,0.06
151,19,1,1,11,4,504,712.7969245383283,713.4470821160357,"[90, 0, 164]",164,l,0.1267666929634288,colour,0.06
151,19,1,1,11,5,505,713.953140249243,714.7111248781439,"[54, 0, 200]",200,a,0.23534205090254545,colour,0.06
151,19,1,1,11,6,506,715.2187796614598,716.6709790135501,"[76, 0, 178]",178,a,0.9293295250972733,colour,0.06
151,19,1,1,11,7,507,717.1877296612365,717.911011765711,"[58, 0, 196]",196,a,0.20084747695364058,colour,0.06
151,19,1,1,11,8,508,718.421878753812,719.2150227682432,"[41, 0, 213]",213,a,0.2704994671512395,colour,0.06
151,19,1,1,11,9,509,719.7362900372827,720.5350554101169,"[95, 0, 159]",159,l,0.275367398862727,colour,0.06
151,19,1,1,11,10,510,721.0500128787244,721.8390002464876,"[53, 0, 201]",201,a,0.26638771896250546,colour,0.06
151,19,1,1,11,11,511,722.3468105988577,722.9830536110094,"[83, 0, 171]",171,l,0.11335664370562881,colour,0.06
151,19,1,1,11,12,512,723.5028144207317,724.2390067843953,"[94, 0, 160]",160,l,0.2136131947627291,colour,0.06
151,19,1,1,11,13,513,724.7527397869853,725.3750233353348,"[60, 0, 194]",194,a,0.09951100125908852,colour,0.06
151,19,1,1,11,14,514,725.8934190761065,726.4710389567772,"[91, 0, 163]",163,l,0.054615358472801745,colour,0.06
151,19,1,1,11,15,515,726.9893000024604,727.5590870815795,"[84, 0, 170]",170,l,0.059661702369339764,colour,0.06
151,19,1,1,11,16,516,728.0707523947349,729.2549961284967,"[81, 0, 173]",173,l,0.6582361388718709,colour,0.06
151,19,1,1,11,17,517,729.7634437229717,731.1269549510907,"[79, 0, 175]",175,a,0.8399478390347213,colour,0.06
151,19,1,1,11,18,518,731.6384394891793,732.2950069040526,"[99, 0, 155]",155,l,0.133808258571662,colour,0.06
151,19,1,1,11,19,519,732.802132752724,733.5831400207244,"[93, 0, 161]",161,l,0.25824771786574274,colour,0.06
151,19,1,1,11,20,520,734.0990127865225,734.9109802580206,"[75, 0, 179]",179,a,0.2893260749988258,colour,0.06
151,19,1,1,11,21,521,735.4271243835101,736.1509653549874,"[70, 0, 184]",184,a,0.2004296068334952,colour,0.06
151,19,1,1,11,22,522,736.6615424726624,737.3271072906209,"[52, 0, 202]",202,a,0.14312034426257014,colour,0.06
151,19,1,1,11,23,523,737.8335730540566,739.1109746654984,"[78, 0, 176]",176,a,0.7540847697528079,colour,0.06
151,19,1,1,11,24,524,739.6304404847324,740.1670661573298,"[61, 0, 193]",193,a,0.013318676967173815,colour,0.06
151,19,1,1,11,25,525,740.6772250110516,741.2550000669435,"[92, 0, 162]",162,l,0.05864361149724573,colour,0.06
151,19,1,1,11,26,526,741.7578231522348,742.4469801100204,"[63, 0, 191]",191,a,0.16590667597483844,colour,0.06
151,19,1,1,11,27,527,742.960996287642,743.9990303521045,"[77, 0, 177]",177,a,0.5148956348421052,colour,0.06
151,19,1,1,11,28,528,744.5077796323458,745.0469810551731,"[62, 0, 192]",192,a,0.015814870479516685,colour,0.06
151,19,1,1,11,29,529,745.5547205152689,746.1669755729381,"[68, 0, 186]",186,a,0.08937380916904658,colour,0.06
151,19,1,1,11,30,530,746.6674828460673,747.3190180956153,"[18, 0, 236]",236,a,0.12846849986817688,colour,0.06
151,19,1,1,11,31,531,747.839377156808,748.4709590061102,"[80, 0, 174]",174,l,0.10826106916647404,colour,0.06
151,19,1,1,11,32,532,748.979915842996,749.7430106188403,"[69, 0, 185]",185,a,0.24019619810860604,colour,0.06
151,19,1,1,11,33,533,750.2519855726277,750.7912082631374,"[65, 0, 189]",189,a,0.015063019236549735,colour,0.06
151,19,1,1,11,34,534,751.3002647430403,752.1349933400052,"[98, 0, 156]",156,l,0.31144168751779944,colour,0.06
151,19,1,1,11,35,535,752.6347432481125,753.4709499477176,"[97, 0, 157]",157,l,0.31293987634126097,colour,0.06
151,19,1,1,11,36,536,753.9785299003124,755.1190036020707,"[82, 0, 172]",172,a,0.6171537092886865,colour,0.06
151,19,1,1,11,37,537,755.6346948050195,756.4389488103334,"[73, 0, 181]",181,a,0.2809757604263723,colour,0.06
151,19,1,1,11,38,538,756.9472412295872,757.7189482273534,"[74, 0, 180]",180,a,0.24879739235620946,colour,0.06
151,19,1,1,11,39,539,758.2284544789,758.9669673808385,"[66, 0, 188]",188,a,0.21511610958259553,colour,0.06
151,19,1,1,11,40,540,759.4784936665092,760.3109292944428,"[55, 0, 199]",199,a,0.30935194285120815,colour,0.06
151,19,1,1,11,41,541,760.822151925182,761.5189522446599,"[96, 0, 158]",158,l,0.17359493614640087,colour,0.06
151,19,1,1,11,42,542,762.0252384144114,762.7429432712961,"[72, 0, 182]",182,a,0.19425568310543895,colour,0.06
151,19,1,1,11,43,543,763.2599160477985,764.0149696777808,"[14, 0, 240]",240,a,0.2322066460037604,colour,0.06
151,19,1,1,11,44,544,764.5259587580804,765.2629655944183,"[85, 0, 169]",169,l,0.21384201908949763,colour,0.06
151,19,1,1,11,45,545,765.775939656538,766.3509278608253,"[87, 0, 167]",167,l,0.052470475318841636,colour,0.06
151,19,1,1,11,46,546,766.8605853490299,767.5429528022651,"[59, 0, 195]",195,a,0.15908645140007138,colour,0.06
151,19,1,1,11,47,547,768.0637966874056,768.7029754248215,"[51, 0, 203]",203,a,0.11431802087463439,colour,0.06
151,19,1,1,11,48,548,769.2216992389876,769.8230238993419,"[64, 0, 190]",190,a,0.0781948952935636,colour,0.06
151,19,1,1,11,49,549,770.3310788297094,770.9110054641496,"[71, 0, 183]",183,a,0.056578678893856704,colour,0.06
151,19,1,1,11,50,550,771.424879857339,771.9589341119863,"[89, 0, 165]",165,l,0.02021727676037699,colour,0.06
151,19,1,1,12,1,551,777.9170805327594,779.6789232733427,"[69, 0, 185]",185,a,1.238187585491687,colour,0.06
151,19,1,1,12,2,552,780.1991051039658,780.742964145029,"[94, 0, 160]",160,l,0.01756708964239806,colour,0.06
151,19,1,1,12,3,553,781.2489793490386,783.0389257309726,"[87, 0, 167]",167,l,1.2670470165321603,colour,0.06
151,19,1,1,12,4,554,783.5457995183533,784.3349550582934,"[64, 0, 190]",190,a,0.2657756828702986,colour,0.06
151,19,1,1,12,5,555,784.8426137800561,785.694927977398,"[60, 0, 194]",194,a,0.3289177988190204,colour,0.06
151,19,1,1,12,6,556,786.202197579667,786.9189485424431,"[76, 0, 178]",178,a,0.19333250890485942,colour,0.06
151,19,1,1,12,7,557,787.4365518658888,788.1189587037079,"[75, 0, 179]",179,a,0.1590470669325441,colour,0.06
151,19,1,1,12,8,558,788.6398435487645,789.3509058054769,"[89, 0, 165]",165,l,0.18789547018241137,colour,0.06
151,19,1,1,12,9,559,789.8519026287831,790.7109779737657,"[56, 0, 198]",198,a,0.3355182574596256,colour,0.06
151,19,1,1,12,10,560,791.2273012989899,791.9109794703545,"[65, 0, 189]",189,a,0.16029752674512565,colour,0.06
151,19,1,1,12,11,561,792.4304338681977,793.0949175799033,"[78, 0, 176]",176,a,0.1412094053812325,colour,0.06
151,19,1,1,12,12,562,793.602560941712,794.3428898657439,"[55, 0, 199]",199,a,0.21791713952552527,colour,0.06
151,19,1,1,12,13,563,794.8523705173284,795.4628961988492,"[71, 0, 183]",183,a,0.08756487630307674,colour,0.06
151,19,1,1,12,14,564,795.9772758958861,796.6309249148471,"[54, 0, 200]",200,a,0.13029161107260734,colour,0.06
151,19,1,1,12,15,565,797.1490800160682,797.7749396825675,"[98, 0, 156]",156,l,0.1019126718165353,colour,0.06
151,19,1,1,12,16,566,798.2906060732203,798.8949176586466,"[79, 0, 175]",175,a,0.08147365995682776,colour,0.06
151,19,1,1,12,17,567,799.4156327563105,800.0869079417316,"[86, 0, 168]",168,l,0.14820331567898393,colour,0.06
151,19,1,1,12,18,568,800.6031347747194,801.1749111680547,"[96, 0, 158]",158,l,0.04817755811382085,colour,0.06
151,19,1,1,12,19,569,801.6813280946808,802.2948828426888,"[92, 0, 162]",162,l,0.09039820148609579,colour,0.06
151,19,1,1,12,20,570,802.8062397747999,803.4308718245011,"[73, 0, 181]",181,a,0.1012486481340602,colour,0.06
151,19,1,1,12,21,571,803.9469048854662,804.6388935931027,"[44, 0, 210]",210,a,0.16911415453068912,colour,0.06
151,19,1,1,12,22,572,805.1500764454249,805.7111579611665,"[83, 0, 171]",171,l,0.03815379354637116,colour,0.06
151,19,1,1,12,23,573,806.2280822948087,807.1588954363251,"[74, 0, 180]",180,a,0.4073174939258024,colour,0.06
151,19,1,1,12,24,574,807.6655675747897,808.1909095706651,"[57, 0, 197]",197,a,0.002086987951770425,colour,0.06
151,19,1,1,12,25,575,808.7125068823807,809.3108832144644,"[33, 0, 221]",221,a,0.07502010581083596,colour,0.06
151,19,1,1,12,26,576,809.8223921708995,810.3909563595662,"[82, 0, 172]",172,l,0.046533252811059356,colour,0.06
151,19,1,1,12,27,577,810.899984482443,811.6068589788629,"[50, 0, 204]",204,a,0.1836584791308269,colour,0.06
151,19,1,1,12,28,578,812.1187023101375,813.1188618176384,"[59, 0, 195]",195,a,0.4771345052868128,colour,0.06
151,19,1,1,12,29,579,813.634391150088,814.1829554646974,"[85, 0, 169]",169,l,0.025189183768816292,colour,0.06
151,19,1,1,12,30,580,814.6968042579247,815.3748803694034,"[68, 0, 186]",186,a,0.15471988520585,colour,0.06
151,19,1,1,12,31,581,815.8843759871088,816.5508616160369,"[91, 0, 163]",163,l,0.14369023882318288,colour,0.06
151,19,1,1,12,32,582,817.0718114456395,817.6468776313122,"[66, 0, 188]",188,a,0.05160007649101317,colour,0.06
151,19,1,1,12,33,583,818.1656427993439,818.7590590397594,"[67, 0, 187]",187,a,0.07040384132415056,colour,0.06
151,19,1,1,12,34,584,819.2749928516569,819.8469228448812,"[93, 0, 161]",161,l,0.04893846798222512,colour,0.06
151,19,1,1,12,35,585,820.353125125519,821.0388887095032,"[41, 0, 213]",213,a,0.16246485919691622,colour,0.06
151,19,1,1,12,36,586,821.5562238240382,822.1908768814756,"[84, 0, 170]",170,l,0.11168713215738535,colour,0.06
151,19,1,1,12,37,587,822.7124442609493,823.2548421348911,"[81, 0, 173]",173,l,0.01959815144073218,colour,0.06
151,19,1,1,12,38,588,823.774923140998,824.3908445073757,"[63, 0, 191]",191,a,0.09252260474022478,colour,0.06
151,19,1,1,12,39,589,824.8998576641316,825.4308804890607,"[90, 0, 164]",164,l,0.008537785150110722,colour,0.06
151,19,1,1,12,40,590,825.9467926394427,827.4148864188464,"[80, 0, 174]",174,a,0.9456347334198654,colour,0.06
151,19,1,1,12,41,591,827.931191627169,828.8788956253557,"[51, 0, 203]",203,a,0.42532450903672725,colour,0.06
151,19,1,1,12,42,592,829.3999238301767,830.078873885097,"[97, 0, 157]",157,l,0.15563085011672229,colour,0.06
151,19,1,1,12,43,593,830.5874762609601,831.1508928873809,"[88, 0, 166]",166,l,0.0399524865206331,colour,0.06
151,19,1,1,12,44,594,831.6656227131607,832.2308707217453,"[70, 0, 184]",184,a,0.042263966402970254,colour,0.06
151,19,1,1,12,45,595,832.7436423471663,833.2948926888639,"[95, 0, 159]",159,l,0.027883481583558023,colour,0.06
151,19,1,1,12,46,596,833.7961439363426,834.3588567606639,"[77, 0, 177]",177,a,0.03801555372774601,colour,0.06
151,19,1,1,12,47,597,834.86342182511,835.4169489883352,"[53, 0, 201]",201,a,0.03079557605087757,colour,0.06
151,19,1,1,12,48,598,835.925865652971,836.9028390754247,"[61, 0, 193]",193,a,0.4536361008649692,colour,0.06
151,19,1,1,12,49,599,837.4101370346034,838.3268375063781,"[72, 0, 182]",182,a,0.39325641794130206,colour,0.06
151,19,1,1,12,50,600,838.8477522836765,839.4708534554811,"[99, 0, 155]",155,l,0.099918631487526,colour,0.06
151,19,1,1,13,1,601,844.0877791282255,844.9348488774849,"[81, 0, 173]",173,l,0.3322292527882382,colour,0.06
151,19,1,1,13,2,602,845.4544883826748,846.1348405278986,"[43, 0, 211]",211,a,0.15712864487431943,colour,0.06
151,19,1,1,13,3,603,846.6427328001009,847.1908292261651,"[66, 0, 188]",188,a,0.02554010017774999,colour,0.06
151,19,1,1,13,4,604,847.704401539755,848.342834727373,"[93, 0, 161]",161,l,0.11502221680711955,colour,0.06
151,19,1,1,13,5,605,848.8607550965389,849.5750232565915,"[63, 0, 191]",191,a,0.19026208855211735,colour,0.06
151,19,1,1,13,6,606,850.0949975305703,850.6469343451317,"[72, 0, 182]",182,a,0.028502606903202832,colour,0.06
151,19,1,1,13,7,607,851.1575740843546,851.7508359373314,"[82, 0, 172]",172,l,0.06991429137997329,colour,0.06
151,19,1,1,13,8,608,852.2669631274184,852.846832260373,"[56, 0, 198]",198,a,0.0567200694931671,colour,0.06
151,19,1,1,13,9,609,853.360660179751,854.2948670889018,"[35, 0, 219]",219,a,0.4071575925918296,colour,0.06
151,19,1,1,13,10,610,854.8030224499526,855.5188218817348,"[53, 0, 201]",201,a,0.19111673347651958,colour,0.06
151,19,1,1,13,11,611,856.0388587771449,856.5668521416374,"[99, 0, 155]",155,l,0.004532769089564681,colour,0.06
151,19,1,1,13,12,612,857.0857165587367,857.7028147358214,"[90, 0, 164]",164,l,0.10517450119368732,colour,0.06
151,19,1,1,13,13,613,858.2150373405311,858.8227781396126,"[65, 0, 189]",189,a,0.08453068963717669,colour,0.06
151,19,1,1,13,14,614,859.3424022849649,859.9668114180677,"[84, 0, 170]",170,l,0.10174922598525882,colour,0.06
151,19,1,1,13,15,615,860.4831138694426,861.0708126531681,"[79, 0, 175]",175,a,0.06451230496168137,colour,0.06
151,19,1,1,13,16,616,861.5767876849277,862.3107855408452,"[60, 0, 194]",194,a,0.21060933428816497,colour,0.06
151,19,1,1,13,17,617,862.8267362880288,863.5668537170859,"[87, 0, 167]",167,l,0.21667652600444853,colour,0.06
151,19,1,1,13,18,618,864.0767522387905,864.9828094267286,"[57, 0, 197]",197,a,0.3826938724378124,colour,0.06
151,19,1,1,13,19,619,865.4986211465439,866.0228103562258,"[83, 0, 171]",171,l,0.01253098575398326,colour,0.06
151,19,1,1,13,20,620,866.5336836458882,867.1268171051051,"[77, 0, 177]",177,a,0.07002890028525144,colour,0.06
151,19,1,1,13,21,621,867.6430037659593,868.1748170390492,"[89, 0, 165]",165,l,0.008453502203337848,colour,0.06
151,19,1,1,13,22,622,868.6898142860737,869.3187991174636,"[70, 0, 184]",184,a,0.10551084531471133,colour,0.06
151,19,1,1,13,23,623,869.8304423752706,870.4627886789385,"[55, 0, 199]",199,a,0.10891603445634246,colour,0.06
151,19,1,1,13,24,624,870.971108667436,871.574805459939,"[80, 0, 174]",174,l,0.08034647384192795,colour,0.06
151,19,1,1,13,25,625,872.0960648522014,872.6788074827055,"[76, 0, 178]",178,a,0.05970384378451854,colour,0.06
151,19,1,1,13,26,626,873.1897985321702,874.5348131951177,"[78, 0, 176]",176,a,0.8217293288325891,colour,0.06
151,19,1,1,13,27,627,875.0484138655011,875.7508083680877,"[59, 0, 195]",195,a,0.17929821438156068,colour,0.06
151,19,1,1,13,28,628,876.2670856133336,876.8707922518952,"[52, 0, 202]",202,a,0.0803011815296486,colour,0.06
151,19,1,1,13,29,629,877.3921052071964,878.0068434613058,"[69, 0, 185]",185,a,0.09139699395745993,colour,0.06
151,19,1,1,13,30,630,878.5170980194816,879.1107946779812,"[58, 0, 196]",196,a,0.0703581552952528,colour,0.06
151,19,1,1,13,31,631,879.6265221148496,880.5827430243371,"[85, 0, 169]",169,l,0.43290761241223663,colour,0.06
151,19,1,1,13,32,632,881.0848883014405,881.6387675625738,"[75, 0, 179]",179,a,0.030409607337787747,colour,0.06
151,19,1,1,13,33,633,882.1474152306328,883.1427863631397,"[74, 0, 180]",180,a,0.47213463531807065,colour,0.06
151,19,1,1,13,34,634,883.6537782002706,884.5268051322782,"[73, 0, 181]",181,a,0.35980120254680514,colour,0.06
151,19,1,1,13,35,635,885.0343575157458,885.6867592255585,"[96, 0, 158]",158,l,0.1416457862360403,colour,0.06
151,19,1,1,13,36,636,886.193669640692,886.7907691253349,"[61, 0, 193]",193,a,0.07244238629937172,colour,0.06
151,19,1,1,13,37,637,887.3044288726524,887.8467968142359,"[97, 0, 157]",157,l,0.026497145066969097,colour,0.06
151,19,1,1,13,38,638,888.3594199599465,888.9268085192889,"[54, 0, 200]",200,a,0.044278092798776925,colour,0.06
151,19,1,1,13,39,639,889.4282905603759,889.9827830391005,"[68, 0, 186]",186,a,0.044245009776204824,colour,0.06
151,19,1,1,13,40,640,890.4939773129299,891.5668182709487,"[51, 0, 203]",203,a,0.5495587748009712,colour,0.06
151,19,1,1,13,41,641,892.087722020573,892.6308351181215,"[94, 0, 160]",160,l,0.019754508160986006,colour,0.06
151,19,1,1,13,42,642,893.1502485559322,893.9507657539798,"[86, 0, 168]",168,l,0.27714246104005724,colour,0.06
151,19,1,1,13,43,643,894.4627351160161,895.4067558700917,"[71, 0, 183]",183,a,0.4207259677350521,colour,0.06
151,19,1,1,13,44,644,895.9158548852429,896.8628129397985,"[50, 0, 204]",204,a,0.42402757541276515,colour,0.06
151,19,1,1,13,45,645,897.369147552643,898.0708244685084,"[6, 0, 248]",248,a,0.17862631380558014,colour,0.06
151,19,1,1,13,46,646,898.580362621462,899.2467879920732,"[62, 0, 192]",192,a,0.1506849369034171,colour,0.06
151,19,1,1,13,47,647,899.7607372159837,900.3267618879909,"[98, 0, 156]",156,l,0.04177874850574881,colour,0.06
151,19,1,1,13,48,648,900.8397627315717,901.422775146435,"[88, 0, 166]",166,l,0.05994920968078077,colour,0.06
151,19,1,1,13,49,649,901.9335428854683,902.5349128380185,"[95, 0, 159]",159,l,0.07891130051575601,colour,0.06
151,19,1,1,13,50,650,903.0427814794239,903.5989273220766,"[91, 0, 163]",163,l,0.032844360917806625,colour,0.06
151,19,1,1,14,1,651,908.4014680988621,909.1907855093013,"[52, 0, 202]",202,a,0.27597864728886634,colour,0.06
151,19,1,1,14,2,652,909.7040100572631,910.6467468746705,"[79, 0, 175]",175,l,0.42860996921081096,colour,0.06
151,19,1,1,14,3,653,911.1523556299508,911.934769714484,"[87, 0, 167]",167,l,0.25905431364662945,colour,0.06
151,19,1,1,14,4,654,912.4492073069559,913.0627600857988,"[83, 0, 171]",171,l,0.09033282322343439,colour,0.06
151,19,1,1,14,5,655,913.5760945166694,914.4627256636741,"[89, 0, 165]",165,l,0.36369121563620865,colour,0.06
151,19,1,1,14,6,656,914.9823797411518,915.870781618054,"[76, 0, 178]",178,a,0.36530795181170106,colour,0.06
151,19,1,1,14,7,657,916.3886417289032,916.9587490045233,"[1, 0, 253]",253,a,0.04683572624344379,colour,0.06
151,19,1,1,14,8,658,917.4666751474142,918.0708035946591,"[78, 0, 176]",176,l,0.08135393087286502,colour,0.06
151,19,1,1,14,9,659,918.5918168333592,919.238720458583,"[91, 0, 163]",163,l,0.12356984813231975,colour,0.06
151,19,1,1,14,10,660,919.7480801995844,920.8067301125266,"[95, 0, 159]",159,l,0.5354697357397527,colour,0.06
151,19,1,1,14,11,661,921.326171119581,922.0067623291397,"[66, 0, 188]",188,a,0.15694708214141428,colour,0.06
151,19,1,1,14,12,662,922.5138743931893,924.8147271476919,"[75, 0, 179]",179,a,1.7899967940757051,colour,0.06
151,19,1,1,14,13,663,925.329599151737,926.0546929461416,"[61, 0, 193]",193,a,0.20177970954682678,colour,0.06
151,19,1,1,14,14,664,926.5639558010735,927.2227153606946,"[62, 0, 192]",192,a,0.13549116090871394,colour,0.06
151,19,1,1,14,15,665,927.7358284502989,928.4947268010583,"[92, 0, 162]",162,l,0.2355500013800338,colour,0.06
151,19,1,1,14,16,666,929.0035654843086,929.7107140972512,"[65, 0, 189]",189,a,0.18375812214799225,colour,0.06
151,19,1,1,14,17,667,930.2222336875275,930.942730515846,"[63, 0, 191]",191,a,0.19704647304024547,colour,0.06
151,19,1,1,14,18,668,931.4566324781626,932.2227070898516,"[93, 0, 161]",161,l,0.24275264993775636,colour,0.06
151,19,1,1,14,19,669,932.7379756965674,933.3507132149534,"[71, 0, 183]",183,a,0.08957270113751292,colour,0.06
151,19,1,1,14,20,670,933.8629145519808,934.5747613492422,"[56, 0, 198]",198,a,0.18852089706342667,colour,0.06
151,19,1,1,14,21,671,935.0816115059424,935.6787105967524,"[51, 0, 203]",203,a,0.08615766593720764,colour,0.06
151,19,1,1,14,22,672,936.1940599416848,936.7827102564042,"[86, 0, 168]",168,l,0.06523934390861541,colour,0.06
151,19,1,1,14,23,673,937.291155094048,938.1747481160564,"[84, 0, 170]",170,l,0.36023758351802826,colour,0.06
151,19,1,1,14,24,674,938.6817739278777,939.222667311551,"[64, 0, 190]",190,a,0.017712024855427444,colour,0.06
151,19,1,1,14,25,675,939.7318848741706,940.3427721059415,"[55, 0, 199]",199,a,0.0877243836876005,colour,0.06
151,19,1,1,14,26,676,940.8475860808976,941.4947086841566,"[74, 0, 180]",180,a,0.12336307915393263,colour,0.06
151,19,1,1,14,27,677,942.0044331261888,942.5827316028299,"[27, 0, 227]",227,a,0.054916650406084955,colour,0.06
151,19,1,1,14,28,678,943.0982317907037,944.0867149573751,"[68, 0, 186]",186,a,0.4653738816268742,colour,0.06
151,19,1,1,14,29,679,944.5982152492506,945.1586721258936,"[54, 0, 200]",200,a,0.037332625477574766,colour,0.06
151,19,1,1,14,30,680,945.676606673398,946.2946670153178,"[50, 0, 204]",204,a,0.09463913110084832,colour,0.06
151,19,1,1,14,31,681,946.8016660456778,947.4307335846825,"[82, 0, 172]",172,l,0.10466683423146605,colour,0.06
151,19,1,1,14,32,682,947.9435079670511,948.5426853811368,"[67, 0, 187]",187,a,0.07423083926551044,colour,0.06
151,19,1,1,14,33,683,949.0421962249093,949.926683276426,"[99, 0, 155]",155,l,0.3593372523318976,colour,0.06
151,19,1,1,14,34,684,950.4367657240946,951.2066889950074,"[98, 0, 156]",156,l,0.2465390816796571,colour,0.06
151,19,1,1,14,35,685,951.7199738014024,952.3666844421532,"[88, 0, 166]",166,l,0.1233362975763157,colour,0.06
151,19,1,1,14,36,686,952.8782564139692,953.5666820004117,"[94, 0, 160]",160,l,0.16515206778421998,colour,0.06
151,19,1,1,14,37,687,954.0814055246301,954.6386927318526,"[80, 0, 174]",174,a,0.034106242237612605,colour,0.06
151,19,1,1,14,38,688,955.1594806909561,955.8707221474033,"[53, 0, 201]",201,a,0.18791004247032106,colour,0.06
151,19,1,1,14,39,689,956.378350149258,956.9587564875837,"[59, 0, 195]",195,a,0.057467982289381325,colour,0.06
151,19,1,1,14,40,690,957.4719463770743,958.4546770347515,"[85, 0, 169]",169,l,0.4592803022824228,colour,0.06
151,19,1,1,14,41,691,958.9719558294164,960.2787016958464,"[69, 0, 185]",185,a,0.7830521145369858,colour,0.06
151,19,1,1,14,42,692,960.7848393857712,961.3190129756695,"[73, 0, 181]",181,a,0.010712600662373006,colour,0.06
151,19,1,1,14,43,693,961.82035835227,962.3746751757571,"[90, 0, 164]",164,l,0.03095547726843506,colour,0.06
151,19,1,1,14,44,694,962.8828179338016,963.9026744479779,"[77, 0, 177]",177,a,0.4966979983728379,colour,0.06
151,19,1,1,14,45,695,964.4140057800105,965.7746017629979,"[57, 0, 197]",197,a,0.8371653198264539,colour,0.06
151,19,1,1,14,46,696,966.2891078845132,967.3266839066055,"[58, 0, 196]",196,a,0.5266590155661106,colour,0.06
151,19,1,1,14,47,697,967.830263963202,968.4866324861068,"[70, 0, 184]",184,a,0.1329851213376969,colour,0.06
151,19,1,1,14,48,698,969.0021165262442,969.7507142389659,"[6, 0, 248]",248,a,0.22414462640881538,colour,0.06
151,19,1,1,14,49,699,970.2688421647763,970.9106332800584,"[97, 0, 157]",157,l,0.11844749213196337,colour,0.06
151,19,1,1,14,50,700,971.4251161647262,972.2146360117476,"[96, 0, 158]",158,l,0.2692419179948047,colour,0.06
151,19,1,1,15,1,701,976.8296338102082,977.6467047331389,"[85, 0, 169]",169,l,0.2930376760195941,colour,0.06
151,19,1,1,15,2,702,978.1586437689839,978.7666626231512,"[73, 0, 181]",181,l,0.08477723703254014,colour,0.06
151,19,1,1,15,3,703,979.2835814428981,979.8626337400638,"[69, 0, 185]",185,a,0.055860304506495595,colour,0.06
151,19,1,1,15,4,704,980.3773576582316,981.4066511071287,"[75, 0, 179]",179,a,0.5060553762596101,colour,0.06
151,19,1,1,15,5,705,981.9139207093976,982.6466239948059,"[64, 0, 190]",190,a,0.2093943206127733,colour,0.06
151,19,1,1,15,6,706,983.1643994287588,983.8466506975237,"[51, 0, 203]",203,a,0.1589375778567046,colour,0.06
151,19,1,1,15,7,707,984.3674595303601,985.0306431577774,"[62, 0, 192]",192,a,0.13984748721122742,colour,0.06
151,19,1,1,15,8,708,985.5394574225647,986.2466785029974,"[98, 0, 156]",156,l,0.18399324791971594,colour,0.06
151,19,1,1,15,9,709,986.7458852980053,987.3506691042567,"[67, 0, 187]",187,a,0.09150018158834428,colour,0.06
151,19,1,1,15,10,710,987.8615640554344,988.4866104307584,"[95, 0, 159]",159,l,0.1016885737190023,colour,0.06
151,19,1,1,15,11,711,989.0022138061468,989.5589275740786,"[71, 0, 183]",183,a,0.03332091402262449,colour,0.06
151,19,1,1,15,12,712,990.0803271754412,990.9505920681404,"[90, 0, 164]",164,l,0.3469039403134957,colour,0.06
151,19,1,1,15,13,713,991.4710141445976,992.0466620402876,"[59, 0, 195]",195,a,0.052382647758349776,colour,0.06
151,19,1,1,15,14,714,992.5646749631269,993.1185880949488,"[83, 0, 171]",171,l,0.03066324384417385,colour,0.06
151,19,1,1,15,15,715,993.627456710441,994.6466432932066,"[61, 0, 193]",193,a,0.4959871070459485,colour,0.06
151,19,1,1,15,16,716,995.1588064272655,996.3106465132441,"[91, 0, 163]",163,l,0.6285724750487134,colour,0.06
151,19,1,1,15,17,717,996.8305947935442,997.7106621095445,"[72, 0, 182]",182,a,0.35668785287998617,colour,0.06
151,19,1,1,15,18,718,998.2092895576498,998.7426238624612,"[68, 0, 186]",186,a,0.010126164532266557,colour,0.06
151,19,1,1,15,19,719,999.2561378868995,999.8066186542856,"[40, 0, 214]",214,a,0.027243482531048357,colour,0.06
151,19,1,1,15,20,720,1000.3185915608192,1000.9106297354447,"[52, 0, 202]",202,a,0.06872566521633416,colour,0.06
151,19,1,1,15,21,721,1001.4279983269516,1002.0226264303783,"[55, 0, 199]",199,a,0.07129393250215799,colour,0.06
151,19,1,1,15,22,722,1002.5373385330895,1003.3346982708899,"[74, 0, 180]",180,l,0.2865238634403795,colour,0.06
151,19,1,1,15,23,723,1003.8530384794576,1004.4306481202366,"[58, 0, 196]",196,a,0.0541959130205214,colour,0.06
151,19,1,1,15,24,724,1004.9468036671169,1005.5346296629868,"[63, 0, 191]",191,a,0.06452648330014199,colour,0.06
151,19,1,1,15,25,725,1006.0561801071744,1007.1426036187913,"[56, 0, 198]",198,a,0.5631468421779573,colour,0.06
151,19,1,1,15,26,726,1007.6498846425675,1008.1746654084418,"[54, 0, 200]",200,a,0.0014016965869814157,colour,0.06
151,19,1,1,15,27,727,1008.6843232904794,1009.6866119273473,"[70, 0, 184]",184,a,0.4788910567294806,colour,0.06
151,19,1,1,15,28,728,1010.199861287605,1010.7266786290566,"[99, 0, 155]",155,l,0.0009641341166570783,colour,0.06
151,19,1,1,15,29,729,1011.2390119043412,1012.254616067512,"[88, 0, 166]",166,l,0.4922841707011685,colour,0.06
151,19,1,1,15,30,730,1012.7702513444237,1013.3745798651362,"[57, 0, 197]",197,a,0.08090140228159726,colour,0.06
151,19,1,1,15,31,731,1013.8951523907017,1014.4466197412694,"[89, 0, 165]",165,l,0.028110336628742516,colour,0.06
151,19,1,1,15,32,732,1014.9577923535835,1015.5105912961299,"[6, 0, 248]",248,a,0.029496279312297702,colour,0.06
151,19,1,1,15,33,733,1016.020241695107,1016.7107385155978,"[78, 0, 176]",176,l,0.16680897620972246,colour,0.06
151,19,1,1,15,34,734,1017.2234136488987,1018.1105886967853,"[92, 0, 162]",162,l,0.36442613147664815,colour,0.06
151,19,1,1,15,35,735,1018.6295251875417,1019.6625708035426,"[60, 0, 194]",194,a,0.5096019560005516,colour,0.06
151,19,1,1,15,36,736,1020.1765452335821,1020.7106022450607,"[80, 0, 174]",174,l,0.010714569827541709,colour,0.06
151,19,1,1,15,37,737,1021.223274227581,1021.8626345278462,"[82, 0, 172]",172,l,0.11602691700682044,colour,0.06
151,19,1,1,15,38,738,1022.3796486582141,1023.0306352807675,"[87, 0, 167]",167,l,0.12771783000789583,colour,0.06
151,19,1,1,15,39,739,1023.5343626356917,1024.1506018354557,"[38, 0, 216]",216,a,0.09798169881105423,colour,0.06
151,19,1,1,15,40,740,1024.669888061122,1025.4706187235424,"[65, 0, 189]",189,a,0.2773476545698941,colour,0.06
151,19,1,1,15,41,741,1025.9824116426753,1026.5425884950673,"[66, 0, 188]",188,a,0.03374902415089309,colour,0.06
151,19,1,1,15,42,742,1027.0634516786085,1027.598573254887,"[94, 0, 160]",160,l,0.01266883173957467,colour,0.06
151,19,1,1,15,43,743,1028.1103693248006,1028.7426010194467,"[84, 0, 170]",170,l,0.10923426179215312,colour,0.06
151,19,1,1,15,44,744,1029.2534672197653,1029.8306416610721,"[86, 0, 168]",168,l,0.05361735378392041,colour,0.06
151,19,1,1,15,45,745,1030.3379719156073,1031.3346072925488,"[53, 0, 201]",201,a,0.4732622152660042,colour,0.06
151,19,1,1,15,46,746,1031.8535595372086,1032.846556962235,"[81, 0, 173]",173,l,0.46955612814053893,colour,0.06
151,19,1,1,15,47,747,1033.3536241279216,1033.942586368299,"[93, 0, 161]",161,l,0.06627870246302336,colour,0.06
151,19,1,1,15,48,748,1034.4630167155992,1035.0945918696234,"[96, 0, 158]",158,l,0.10826618922874331,colour,0.06
151,19,1,1,15,49,749,1035.6036266878946,1036.206545635243,"[77, 0, 177]",177,a,0.07828351052012295,colour,0.06
151,19,1,1,15,50,750,1036.7142594953766,1037.3666068546008,"[97, 0, 157]",157,l,0.1295748121337965,colour,0.06
151,19,1,1,16,1,751,1041.9947665794753,1042.582580760005,"[74, 0, 180]",180,l,0.06376281671691686,colour,0.06
151,19,1,1,16,2,752,1043.0892721968703,1043.6389463684754,"[64, 0, 190]",190,a,0.02731083007529378,colour,0.06
151,19,1,1,16,3,753,1044.1517278400715,1044.8385784379207,"[56, 0, 198]",198,a,0.16347664850763977,colour,0.06
151,19,1,1,16,4,754,1045.3547536771512,1045.9105726279086,"[88, 0, 166]",166,l,0.03196923597715795,colour,0.06
151,19,1,1,16,5,755,1046.4187910042237,1047.222547188634,"[73, 0, 181]",181,a,0.2806063332827762,colour,0.06
151,19,1,1,16,6,756,1047.7311731951777,1048.6785475446377,"[53, 0, 201]",201,a,0.42415872612036765,colour,0.06
151,19,1,1,16,7,757,1049.1998577429913,1049.9186181060504,"[66, 0, 188]",188,a,0.19606894825119525,colour,0.06
151,19,1,1,16,8,758,1050.4343073397176,1051.1665569150355,"[87, 0, 167]",167,l,0.20922733005136251,colour,0.06
151,19,1,1,16,9,759,1051.6842417644802,1052.3185281517217,"[63, 0, 191]",191,a,0.11094788403715938,colour,0.06
151,19,1,1,16,10,760,1052.8247800569516,1053.4786315124948,"[96, 0, 158]",158,l,0.130494047771208,colour,0.06
151,19,1,1,16,11,761,1054.0000445045298,1054.6546076391824,"[77, 0, 177]",177,a,0.13121124065946788,colour,0.06
151,19,1,1,16,12,762,1055.1717328340746,1056.2546499382006,"[75, 0, 179]",179,a,0.5594856534153223,colour,0.06
151,19,1,1,16,13,763,1056.7684869160876,1057.3745589914033,"[71, 0, 183]",183,a,0.08284936274867505,colour,0.06
151,19,1,1,16,14,764,1057.8954717994202,1058.662512120558,"[82, 0, 172]",172,l,0.24367936875205487,colour,0.06
151,19,1,1,16,15,765,1059.1766094303457,1059.7425194933312,"[14, 0, 240]",240,a,0.04332616797182709,colour,0.06
151,19,1,1,16,16,766,1060.254712953465,1061.0385858421214,"[68, 0, 186]",186,a,0.2610912831733003,colour,0.06
151,19,1,1,16,17,767,1061.551784396288,1062.2947067937348,"[27, 0, 227]",227,a,0.22002381982747465,colour,0.06
151,19,1,1,16,18,768,1062.8017613562988,1063.366652146913,"[84, 0, 170]",170,l,0.04160230571869761,colour,0.06
151,19,1,1,16,19,769,1063.879709704197,1064.8465325438883,"[61, 0, 193]",193,a,0.44372143142390996,colour,0.06
151,19,1,1,16,20,770,1065.364102390362,1066.4705946990289,"[99, 0, 155]",155,l,0.5832747160457075,colour,0.06
151,19,1,1,16,21,771,1066.9893389930949,1067.726510063163,"[50, 0, 204]",204,a,0.21399089274927974,colour,0.06
151,19,1,1,16,22,772,1068.2392466362799,1068.8785348627716,"[65, 0, 189]",189,l,0.11636050418019295,colour,0.06
151,19,1,1,16,23,773,1069.3954741625348,1071.198513941723,"[58, 0, 196]",196,a,1.2808962035924196,colour,0.06
151,19,1,1,16,24,774,1071.7078394180862,1072.9585056079086,"[83, 0, 171]",171,l,0.7271855083527043,colour,0.06
151,19,1,1,16,25,775,1073.4735335749574,1074.278605991276,"[95, 0, 159]",159,l,0.28161182103212923,colour,0.06
151,19,1,1,16,26,776,1074.7860169841442,1075.4945054599084,"[80, 0, 174]",174,l,0.1850822310661897,colour,0.06
151,19,1,1,16,27,777,1075.9993210101966,1076.662831923226,"[72, 0, 182]",182,a,0.14041108032688498,colour,0.06
151,19,1,1,16,28,778,1077.1719171537552,1077.7665637679165,"[92, 0, 162]",162,l,0.07204932835884392,colour,0.06
151,19,1,1,16,29,779,1078.2806307516294,1078.806937669171,"[6, 0, 248]",248,a,0.0015785332070663571,colour,0.06
151,19,1,1,16,30,780,1079.3296495639952,1080.1265469270293,"[78, 0, 176]",176,l,0.27174086845479906,colour,0.06
151,19,1,1,16,31,781,1080.6333009854425,1081.2305209868355,"[52, 0, 202]",202,a,0.07412450085394084,colour,0.06
151,19,1,1,16,32,782,1081.733274361468,1082.3185053085908,"[79, 0, 175]",175,l,0.06903168326243758,colour,0.06
151,19,1,1,16,33,783,1082.8354323991807,1083.5824901754968,"[97, 0, 157]",157,l,0.22365822712890804,colour,0.06
151,19,1,1,16,34,784,1084.1011962665943,1085.0944882881595,"[69, 0, 185]",185,a,0.470686465036124,colour,0.06
151,19,1,1,16,35,785,1085.6011100144824,1086.5585349100875,"[57, 0, 197]",197,a,0.43403834325727075,colour,0.06
151,19,1,1,16,36,786,1087.0698323714314,1087.734558298136,"[60, 0, 194]",194,a,0.14161624782718718,colour,0.06
151,19,1,1,16,37,787,1088.241715260665,1089.022469679825,"[54, 0, 200]",200,a,0.25735053757671267,colour,0.06
151,19,1,1,16,38,788,1089.5313067876268,1090.1345089098904,"[89, 0, 165]",165,l,0.08084429462905973,colour,0.06
151,19,1,1,16,39,789,1090.6407123721438,1091.3105263904436,"[81, 0, 173]",173,l,0.14667046861723065,colour,0.06
151,19,1,1,16,40,790,1091.8282108460553,1093.3104783411836,"[76, 0, 178]",178,l,0.9589337181532755,colour,0.06
151,19,1,1,16,41,791,1093.8282403844642,1094.3985319798812,"[90, 0, 164]",164,l,0.05828166741412133,colour,0.06
151,19,1,1,16,42,792,1094.9105608124519,1095.6305121646728,"[93, 0, 161]",161,l,0.19466843316331506,colour,0.06
151,19,1,1,16,43,793,1096.1472053108737,1096.8866110609379,"[70, 0, 184]",184,a,0.2160830006469041,colour,0.06
151,19,1,1,16,44,794,1097.3889595622895,1098.134486066876,"[55, 0, 199]",199,a,0.22232663503382355,colour,0.06
151,19,1,1,16,45,795,1098.6400322008412,1099.350465092226,"[94, 0, 160]",160,l,0.18751343991607428,colour,0.06
151,19,1,1,16,46,796,1099.8589603421278,1100.574550247984,"[86, 0, 168]",168,l,0.19194696005433798,colour,0.06
151,19,1,1,16,47,797,1101.0933091144543,1101.8144857203588,"[91, 0, 163]",163,l,0.19776327209547162,colour,0.06
151,19,1,1,16,48,798,1102.327805578825,1103.294767446001,"[85, 0, 169]",169,l,0.4436930746305734,colour,0.06
151,19,1,1,16,49,799,1103.8120056744665,1104.5024800457759,"[67, 0, 187]",187,a,0.1800587303005159,colour,0.06
151,19,1,1,16,50,800,1105.018248048611,1105.5984487996902,"[98, 0, 156]",156,l,0.057224979624152184,colour,0.06
