id,age,condition,counterbalance,block,trialinblock,trial,tstart,tend,trialstim,trialintensity,response,RT,trialtype,colourfreq
055,81,1,2,Practice,1,NA,5.513840733328834e-06,4.198334504366358,"[60, 0, 194]",194,a,3.6740251525734493,colour,0.5
055,81,1,2,Practice,2,NA,4.719530898000812,7.5743376299287775,"[40, 0, 214]",214,a,2.331500505697477,colour,0.5
055,81,1,2,Practice,3,NA,8.094516719545936,9.582377600563632,"[23, 0, 231]",231,a,0.9645440209460503,colour,0.5
055,81,1,2,Practice,4,NA,10.094411168840452,11.238328376126447,"[68, 0, 186]",186,a,0.6205574180094118,colour,0.5
055,81,1,2,Practice,5,NA,11.750669144217682,12.750416295137256,"[28, 0, 226]",226,a,0.47639248163977754,colour,0.5
055,81,1,2,Practice,6,NA,13.266429676445114,16.734322569260257,"[62, 0, 192]",192,a,2.9573535759627703,colour,0.5
055,81,1,2,Practice,7,NA,17.25408654527564,50.47833256664671,"[94, 0, 160]",160,l,32.701079216592916,colour,0.5
055,81,1,2,Practice,8,NA,50.988342554577684,53.21434000875888,"[25, 0, 229]",229,a,1.7027152525515703,colour,0.5
055,81,1,2,Practice,9,NA,53.72268914844244,55.97430627979338,"[34, 0, 220]",220,l,1.7283290220329945,colour,0.5
055,81,1,2,Practice,10,NA,56.48833034535346,58.35834425599387,"[88, 0, 166]",166,l,1.3469711673278653,colour,0.5
055,81,1,2,1,1,1,4.677826553404884,5.936028000869555,"[81, 0, 173]",173,a,0.7340248217478802,colour,0.5
055,81,1,2,1,2,2,6.44428931290895,7.047985793189582,"[74, 0, 180]",180,a,0.08047414322936675,colour,0.5
055,81,1,2,1,3,3,7.5692637129250215,9.223988446134172,"[90, 0, 164]",164,l,1.129940797080053,colour,0.5
055,81,1,2,1,4,4,9.742540164406819,10.727967865321261,"[38, 0, 216]",216,a,0.462266409984295,colour,0.5
055,81,1,2,1,5,5,11.242538195176166,12.295989782058314,"[72, 0, 182]",182,a,0.5302942344096664,colour,0.5
055,81,1,2,1,6,6,12.805046269015293,13.591950813370204,"[24, 0, 230]",230,a,0.2635916227409325,colour,0.5
055,81,1,2,1,7,7,14.101887152115523,16.7119434563283,"[1, 0, 253]",253,l,2.08669100109546,colour,0.5
055,81,1,2,1,8,8,17.226908025946614,18.615944694578502,"[82, 0, 172]",172,a,0.8656693962802819,colour,0.5
055,81,1,2,1,9,9,19.13318687516221,19.783977087616222,"[83, 0, 171]",171,a,0.1275395184966328,colour,0.5
055,81,1,2,1,10,10,20.305028545950336,20.839972919151478,"[13, 0, 241]",241,a,0.011617273135925643,colour,0.5
055,81,1,2,1,11,11,21.35191511517405,21.95992105752157,"[52, 0, 202]",202,a,0.08469105150652467,colour,0.5
055,81,1,2,1,12,12,22.476945835154766,23.016013775151805,"[44, 0, 210]",210,a,0.016230390410783002,colour,0.5
055,81,1,2,1,13,13,23.523760724423482,24.111936130793765,"[36, 0, 218]",218,a,0.0648644539869565,colour,0.5
055,81,1,2,1,14,14,24.633160093639162,26.663939940070122,"[40, 0, 214]",214,l,1.507522457093728,colour,0.5
055,81,1,2,1,15,15,27.180741800912074,27.89601876911911,"[11, 0, 243]",243,a,0.1918943358650722,colour,0.5
055,81,1,2,1,16,16,28.415118720913597,31.063964122211473,"[60, 0, 194]",194,l,2.1255761965840065,colour,0.5
055,81,1,2,1,17,17,31.571388117823517,32.183950463633664,"[27, 0, 227]",227,a,0.08928683956037275,colour,0.5
055,81,1,2,1,18,18,32.69633101016734,33.6559988247609,"[95, 0, 159]",159,l,0.43629896686252323,colour,0.5
055,81,1,2,1,19,19,34.165158105504815,34.879961277067196,"[39, 0, 215]",215,a,0.1915831975893525,colour,0.5
055,81,1,2,1,20,20,35.39945349939808,36.0639538822179,"[34, 0, 220]",220,a,0.14109963356895605,colour,0.5
055,81,1,2,1,21,21,36.571334160933475,38.544034730908606,"[80, 0, 174]",174,l,1.4494396360241808,colour,0.5
055,81,1,2,1,22,22,39.05560119792062,39.84795538828257,"[65, 0, 189]",189,a,0.269025121066079,colour,0.5
055,81,1,2,1,23,23,40.36816204711431,41.65594723094546,"[69, 0, 185]",185,a,0.764392705343198,colour,0.5
055,81,1,2,1,24,24,42.165053342490864,45.383969447007985,"[0, 0, 254]",254,l,2.6959411027055467,colour,0.5
055,81,1,2,1,25,25,45.90072956018412,47.72795723148374,"[54, 0, 200]",200,l,1.3038694574097462,colour,0.5
055,81,1,2,1,26,26,48.244544840144954,50.255930925726716,"[6, 0, 248]",248,l,1.4884134468447883,colour,0.5
055,81,1,2,1,27,27,50.775716169420775,51.69594070885796,"[97, 0, 157]",157,l,0.3970510392791766,colour,0.5
055,81,1,2,1,28,28,52.21325181247812,52.79199736595547,"[4, 0, 250]",250,a,0.055417271876649465,colour,0.5
055,81,1,2,1,29,29,53.30698123402908,53.863962074210576,"[76, 0, 178]",178,l,0.03368682317523053,colour,0.5
055,81,1,2,1,30,30,54.38506276328553,55.06447612190823,"[89, 0, 165]",165,l,0.15604372320012772,colour,0.5
055,81,1,2,1,31,31,55.57261100941105,57.647957672590564,"[59, 0, 195]",195,l,1.5520892738422845,colour,0.5
055,81,1,2,1,32,32,58.16821868215993,60.5119016298886,"[64, 0, 190]",190,l,1.8203688445792068,colour,0.5
055,81,1,2,1,33,33,61.02754125142019,62.61595414688054,"[25, 0, 229]",229,l,1.0650763430930965,colour,0.5
055,81,1,2,1,34,34,63.1369390452528,64.98395432332472,"[37, 0, 217]",217,l,1.3239315747850924,colour,0.5
055,81,1,2,1,35,35,65.49633486985476,67.56793842140178,"[49, 0, 205]",205,l,1.5482547899555357,colour,0.5
055,81,1,2,1,36,36,68.07444081755966,70.007928906085,"[51, 0, 203]",203,l,1.4101688653790916,colour,0.5
055,81,1,2,1,37,37,70.52753337450122,71.38391430857882,"[86, 0, 168]",168,l,0.33072620461825863,colour,0.5
055,81,1,2,1,38,38,71.90470149629618,72.56795259985302,"[16, 0, 238]",238,a,0.1399196711863624,colour,0.5
055,81,1,2,1,39,39,73.07655301323393,75.31190903419338,"[20, 0, 234]",234,l,1.712075788556831,colour,0.5
055,81,1,2,1,40,40,75.81954925121681,77.08792373882534,"[75, 0, 179]",179,l,0.7450954367450322,colour,0.5
055,81,1,2,1,41,41,77.60070876511963,78.25597109800947,"[93, 0, 161]",161,a,0.13198131279932568,colour,0.5
055,81,1,2,1,42,42,78.77250120516692,80.11189359543278,"[91, 0, 163]",163,l,0.8252580478474556,colour,0.5
055,81,1,2,1,43,43,80.6246037910023,81.16788194389665,"[42, 0, 212]",212,a,0.020248800345143536,colour,0.5
055,81,1,2,1,44,44,81.68708744639662,82.37594404867195,"[18, 0, 236]",236,a,0.16553659143755795,colour,0.5
055,81,1,2,1,45,45,82.8902233263907,85.0879678495694,"[26, 0, 228]",228,l,1.6750499396657688,colour,0.5
055,81,1,2,1,46,46,85.60941197228385,86.48794595173604,"[88, 0, 166]",166,l,0.35541246695720474,colour,0.5
055,81,1,2,1,47,47,87.0000358399775,87.63192341744798,"[79, 0, 175]",175,l,0.10858450200612424,colour,0.5
055,81,1,2,1,48,48,88.13549599379621,90.2399293597955,"[3, 0, 251]",251,l,1.5868229394800437,colour,0.5
055,81,1,2,1,49,49,90.75481004023459,92.47996072568276,"[21, 0, 233]",233,l,1.2018365822987107,colour,0.5
055,81,1,2,1,50,50,92.98908022798787,94.57597248434831,"[9, 0, 245]",245,l,1.063533648622979,colour,0.5
055,81,1,2,2,1,51,100.77992717000961,109.70396059334962,"[94, 0, 160]",160,l,8.397672921990306,colour,0.5
055,81,1,2,2,2,52,110.22045840514329,111.2959054990315,"[21, 0, 233]",233,a,0.552255870665249,colour,0.5
055,81,1,2,2,3,53,111.81409172828717,113.16790242388379,"[13, 0, 241]",241,l,0.830703361552878,colour,0.5
055,81,1,2,2,4,54,113.68916892209018,115.07990936817441,"[25, 0, 229]",229,l,0.8673723860447353,colour,0.5
055,81,1,2,2,5,55,115.59533040522001,116.83992605148887,"[28, 0, 226]",226,l,0.7215631429535279,colour,0.5
055,81,1,2,2,6,56,117.36100586672546,118.04792632245517,"[43, 0, 211]",211,a,0.16362446948915021,colour,0.5
055,81,1,2,2,7,57,118.56410236212832,119.31989859255191,"[69, 0, 185]",185,l,0.23234546274034074,colour,0.5
055,81,1,2,2,8,58,119.8297892451701,121.40789834364114,"[50, 0, 204]",204,l,1.05469613999594,colour,0.5
055,81,1,2,2,9,59,121.92429375549182,122.55991538614035,"[91, 0, 163]",163,l,0.1130459886007884,colour,0.5
055,81,1,2,2,10,60,123.08051392166453,124.35989482738296,"[53, 0, 201]",201,l,0.7560861010206281,colour,0.5
055,81,1,2,2,11,61,124.8791999729001,126.20791204947818,"[11, 0, 243]",243,l,0.8054282995617541,colour,0.5
055,81,1,2,2,12,62,126.72354261255168,127.33593796769128,"[85, 0, 169]",169,l,0.08941287025663769,colour,0.5
055,81,1,2,2,13,63,127.84856978791868,128.4959146362562,"[74, 0, 180]",180,l,0.12403744056791766,colour,0.5
055,81,1,2,2,14,64,129.00477341256192,130.64797854642165,"[87, 0, 167]",167,l,1.1202116212880355,colour,0.5
055,81,1,2,2,15,65,131.16109519098245,131.70391963337534,"[84, 0, 170]",170,l,0.019593046887166565,colour,0.5
055,81,1,2,2,16,66,132.22356978791868,133.69589856734456,"[97, 0, 157]",157,l,0.9489733224545489,colour,0.5
055,81,1,2,2,17,67,134.21007426358483,135.47990125494835,"[68, 0, 186]",186,a,0.746684998881392,colour,0.5
055,81,1,2,2,18,68,135.99127079900063,137.047940894754,"[82, 0, 172]",172,l,0.5333851372015488,colour,0.5
055,81,1,2,2,19,69,137.56942125129353,138.66395530006048,"[66, 0, 188]",188,l,0.5712420009876951,colour,0.5
055,81,1,2,2,20,70,139.18060316715128,140.80787408272954,"[60, 0, 194]",194,l,1.1038189663559024,colour,0.5
055,81,1,2,2,21,71,141.32195486210549,142.56001660454058,"[56, 0, 198]",198,l,0.7171847578465531,colour,0.5
055,81,1,2,2,22,72,143.06945984819322,144.487919170213,"[46, 0, 208]",208,l,0.8955875078390818,colour,0.5
055,81,1,2,2,23,73,145.00696319588315,146.46390559670544,"[10, 0, 244]",244,l,0.9344313495057577,colour,0.5
055,81,1,2,2,24,74,146.97571624819102,148.31988953409382,"[20, 0, 234]",234,l,0.8210214472746884,colour,0.5
055,81,1,2,2,25,75,148.83506953743563,150.08790207729908,"[51, 0, 203]",203,l,0.7294975628828979,colour,0.5
055,81,1,2,2,26,76,150.6006729251385,151.57595673051037,"[36, 0, 218]",218,l,0.4518070438571158,colour,0.5
055,81,1,2,2,27,77,152.0818628439447,153.04791529477006,"[18, 0, 236]",236,l,0.44274622459488455,colour,0.5
055,81,1,2,2,28,78,153.56618423166947,154.77592766467933,"[44, 0, 210]",210,l,0.686698326626356,colour,0.5
055,81,1,2,2,29,79,155.2849372839737,156.2798767577333,"[26, 0, 228]",228,a,0.471618281382689,colour,0.5
055,81,1,2,2,30,80,156.80053397629672,157.98387555413865,"[86, 0, 168]",168,l,0.6600203854650317,colour,0.5
055,81,1,2,2,31,81,158.5036824593626,159.2558627903818,"[42, 0, 212]",212,a,0.2288811940161395,colour,0.5
055,81,1,2,2,32,82,159.76622093810875,160.39188378079416,"[67, 0, 187]",187,l,0.10227430265877047,colour,0.5
055,81,1,2,2,33,83,160.90686095348428,161.56790139988516,"[45, 0, 209]",209,a,0.1377050755727396,colour,0.5
055,81,1,2,2,34,84,162.07867820582396,163.3758306210475,"[32, 0, 222]",222,l,0.7737772659529583,colour,0.5
055,81,1,2,2,35,85,163.89122566425795,164.95992854059295,"[16, 0, 238]",238,l,0.5444155799123109,colour,0.5
055,81,1,2,2,36,86,165.47050448511436,166.83188174854877,"[73, 0, 181]",181,l,0.8380623725897749,colour,0.5
055,81,1,2,2,37,87,167.34753712391466,168.52787680814436,"[72, 0, 182]",182,l,0.6569602026575012,colour,0.5
055,81,1,2,2,38,88,169.03505898236472,170.4398624847563,"[30, 0, 224]",224,l,0.8816603283739823,colour,0.5
055,81,1,2,2,39,89,170.95689041315927,172.10385362479792,"[14, 0, 240]",240,l,0.6236857361618604,colour,0.5
055,81,1,2,2,40,90,172.61311333625054,173.91994018268088,"[40, 0, 214]",214,l,0.7833784418216965,colour,0.5
055,81,1,2,2,41,91,174.44127599776766,175.68802204276653,"[57, 0, 197]",197,l,0.7233456895919517,colour,0.5
055,81,1,2,2,42,92,176.19762164324857,177.12788807213656,"[3, 0, 251]",251,l,0.4068963996178354,colour,0.5
055,81,1,2,2,43,93,177.63508127404202,178.63194744204884,"[70, 0, 184]",184,l,0.4735158310322731,colour,0.5
055,81,1,2,2,44,94,179.1507531909374,180.3198635402623,"[59, 0, 195]",195,l,0.6458206646202598,colour,0.5
055,81,1,2,2,45,95,180.82577359215793,181.76792038325584,"[62, 0, 192]",192,l,0.4190146447654115,colour,0.5
055,81,1,2,2,46,96,182.27893113367463,183.16786422082805,"[48, 0, 206]",206,l,0.3656087440067495,colour,0.5
055,81,1,2,2,47,97,183.6851245183243,184.37589087947345,"[88, 0, 166]",166,l,0.16734395037201466,colour,0.5
055,81,1,2,2,48,98,184.88822573987636,186.31185232038115,"[33, 0, 221]",221,a,0.9003463481021754,colour,0.5
055,81,1,2,2,49,99,186.8257889521483,189.36787887189712,"[24, 0, 230]",230,l,2.019197231737053,colour,0.5
055,81,1,2,2,50,100,189.88940570225532,190.52784096816686,"[15, 0, 239]",239,a,0.11513337198266527,colour,0.5
055,81,1,2,3,1,101,195.46670426582205,218.87192642642913,"[49, 0, 205]",205,l,22.881125879459432,colour,0.5
055,81,1,2,3,2,102,219.39265335572418,220.93584761943566,"[90, 0, 164]",164,l,1.020194055763568,colour,0.5
055,81,1,2,3,3,103,221.45502555272105,222.07187491138393,"[63, 0, 191]",191,a,0.09348484323345474,colour,0.5
055,81,1,2,3,4,104,222.58006808808204,223.22383839083705,"[22, 0, 232]",232,a,0.12049046419997467,colour,0.5
055,81,1,2,3,5,105,223.73626738042003,224.55982283235062,"[94, 0, 160]",160,l,0.30024056108959485,colour,0.5
055,81,1,2,3,6,106,225.07997317121408,225.77584101857792,"[97, 0, 157]",157,l,0.17313545463912305,colour,0.5
055,81,1,2,3,7,107,226.27985312697638,228.14387664115566,"[55, 0, 199]",199,l,1.3406649064381781,colour,0.5
055,81,1,2,3,8,108,228.65492283770436,229.3278550678515,"[44, 0, 210]",210,a,0.14960276700367103,colour,0.5
055,81,1,2,3,9,109,229.831955791582,231.55994295535493,"[0, 0, 254]",254,l,1.2032686060701963,colour,0.5
055,81,1,2,3,10,110,232.06778915379618,232.71985936549754,"[68, 0, 186]",186,a,0.12871593626550748,colour,0.5
055,81,1,2,3,11,111,233.24030587649395,233.79985853054313,"[26, 0, 228]",228,a,0.03630274778333842,colour,0.5
055,81,1,2,3,12,112,234.31838346729273,235.81585418878603,"[6, 0, 248]",248,l,0.9835573266354913,colour,0.5
055,81,1,2,3,13,113,236.3245483374958,237.8798482432867,"[54, 0, 200]",200,l,1.0318455934939266,colour,0.5
055,81,1,2,3,14,114,238.38725766660355,240.14388254884398,"[82, 0, 172]",172,l,1.2333474067636416,colour,0.5
055,81,1,2,3,15,115,240.65279528203973,241.98385428645997,"[2, 0, 252]",252,l,0.8076377751785913,colour,0.5
055,81,1,2,3,16,116,242.4966452204426,243.8718547464705,"[13, 0, 241]",241,l,0.8519155090216373,colour,0.5
055,81,1,2,3,17,117,244.37986399712463,245.0398320010827,"[57, 0, 197]",197,a,0.13474296039930778,colour,0.5
055,81,1,2,3,18,118,245.55366741444595,246.19183644051373,"[53, 0, 201]",201,a,0.11490139673696831,colour,0.5
055,81,1,2,3,19,119,246.70074247832963,247.30385961125648,"[58, 0, 196]",196,a,0.07980066670279484,colour,0.5
055,81,1,2,3,20,120,247.8101197921751,250.407852657514,"[23, 0, 231]",231,l,2.074419156037038,colour,0.5
055,81,1,2,3,21,121,250.91949198602015,252.23982617216097,"[65, 0, 189]",189,l,0.80214638149846,colour,0.5
055,81,1,2,3,22,122,252.7579895583549,254.16792172233545,"[74, 0, 180]",180,l,0.8866586269614345,colour,0.5
055,81,1,2,3,23,123,254.6809119423524,256.06379516231027,"[12, 0, 242]",242,l,0.8585900158468576,colour,0.5
055,81,1,2,3,24,124,256.5725385417609,257.88783110626537,"[62, 0, 192]",192,l,0.7919922459623194,colour,0.5
055,81,1,2,3,25,125,258.400675997138,259.8078150058427,"[40, 0, 214]",214,l,0.8838847701372288,colour,0.5
055,81,1,2,3,26,126,260.32252633253665,261.6558448310061,"[5, 0, 249]",249,l,0.8097472139343154,colour,0.5
055,81,1,2,3,27,127,262.16720886121766,262.9438379654857,"[91, 0, 163]",163,l,0.2541649206177681,colour,0.5
055,81,1,2,3,28,128,263.46401508587223,265.2158161432708,"[85, 0, 169]",169,l,1.2283475327931228,colour,0.5
055,81,1,2,3,29,129,265.7299603318388,266.3358399000572,"[98, 0, 156]",156,l,0.08255876968905795,colour,0.5
055,81,1,2,3,30,130,266.85482681807116,267.4797886150154,"[75, 0, 179]",179,a,0.10147834004965262,colour,0.5
055,81,1,2,3,31,131,267.9955731718437,268.71978729169496,"[59, 0, 195]",195,a,0.20092601053329417,colour,0.5
055,81,1,2,3,32,132,269.2299910518195,270.0798262666867,"[79, 0, 175]",175,a,0.3265199301786197,colour,0.5
055,81,1,2,3,33,133,270.58935024875245,272.2717840117439,"[38, 0, 216]",216,l,1.159271290522156,colour,0.5
055,81,1,2,3,34,134,272.7924105103266,273.3277924463473,"[18, 0, 236]",236,a,0.012196620486065513,colour,0.5
055,81,1,2,3,35,135,273.83924706112157,274.9038381860373,"[17, 0, 237]",237,a,0.5412124310350919,colour,0.5
055,81,1,2,3,36,136,275.41746683029487,276.0718154406495,"[14, 0, 240]",240,a,0.13104553489029058,colour,0.5
055,81,1,2,3,37,137,276.58928841494344,277.27982004392106,"[70, 0, 184]",184,a,0.16716632586030755,colour,0.5
055,81,1,2,3,38,138,277.7924337472359,279.08778431736937,"[47, 0, 207]",207,l,0.7722247253332171,colour,0.5
055,81,1,2,3,39,139,279.6055451930297,281.15186738104967,"[42, 0, 212]",212,l,1.0229655495095358,colour,0.5
055,81,1,2,3,40,140,281.6680737468596,282.7918433722007,"[1, 0, 253]",253,l,0.6005047529324656,colour,0.5
055,81,1,2,3,41,141,283.31058453036167,284.5197801236973,"[37, 0, 217]",217,l,0.6859082717091951,colour,0.5
055,81,1,2,3,42,142,285.02926629655485,285.7677904141019,"[69, 0, 185]",185,a,0.2152167097774509,colour,0.5
055,81,1,2,3,43,143,286.2792903211557,287.0321917840556,"[35, 0, 219]",219,a,0.22965155663405312,colour,0.5
055,81,1,2,3,44,144,287.5448791365634,289.935818474838,"[73, 0, 181]",181,l,1.8675866382254753,colour,0.5
055,81,1,2,3,45,145,290.4512269088118,291.2157992078937,"[43, 0, 211]",211,a,0.24138383278113906,colour,0.5
055,81,1,2,3,46,146,291.7323761827174,292.9517971977075,"[19, 0, 235]",235,a,0.6960438964924833,colour,0.5
055,81,1,2,3,47,147,293.4668117857582,294.68788183361903,"[20, 0, 234]",234,l,0.6977992677602742,colour,0.5
055,81,1,2,3,48,148,295.20115286577857,295.9358247763739,"[99, 0, 155]",155,l,0.2112774628767511,colour,0.5
055,81,1,2,3,49,149,296.45122612112027,297.79185755065555,"[64, 0, 190]",190,a,0.8173803417339514,colour,0.5
055,81,1,2,3,50,150,298.3107204072039,299.04786803325624,"[30, 0, 224]",224,a,0.21400957203150028,colour,0.5
055,81,1,2,4,1,151,304.62220448164953,309.6798028722369,"[25, 0, 229]",229,l,4.533415857182263,colour,0.5
055,81,1,2,4,2,152,310.2011115119567,311.44784889234506,"[20, 0, 234]",234,a,0.7234386372292647,colour,0.5
055,81,1,2,4,3,153,311.96672632119225,312.5758220352036,"[18, 0, 236]",236,a,0.08585565389148542,colour,0.5
055,81,1,2,4,4,154,313.09169678275066,313.74377880982865,"[68, 0, 186]",186,a,0.12898965918429894,colour,0.5
055,81,1,2,4,5,155,314.26353254585047,315.2798866038793,"[64, 0, 190]",190,a,0.4938260713388445,colour,0.5
055,81,1,2,4,6,156,315.79486062580327,317.1837775652748,"[28, 0, 226]",226,a,0.8656185901563731,colour,0.5
055,81,1,2,4,7,157,317.70107094582636,318.5358387972883,"[89, 0, 165]",165,l,0.31139112680830294,colour,0.5
055,81,1,2,4,8,158,319.0447783120071,320.2317728107664,"[86, 0, 168]",168,l,0.6639643585185695,colour,0.5
055,81,1,2,4,9,159,320.74803273962243,321.31179284964674,"[61, 0, 193]",193,a,0.04054446835652925,colour,0.5
055,81,1,2,4,10,160,321.82604298276783,322.5517714401831,"[92, 0, 162]",162,l,0.20258095109238639,colour,0.5
055,81,1,2,4,11,161,323.06043447506454,323.6557904802685,"[11, 0, 243]",243,a,0.0719379267320619,colour,0.5
055,81,1,2,4,12,162,324.17046675467645,325.8158112595811,"[32, 0, 222]",222,l,1.1219504510336265,colour,0.5
055,81,1,2,4,13,163,326.32680743770106,326.8798246125334,"[42, 0, 212]",212,a,0.029949225383461453,colour,0.5
055,81,1,2,4,14,164,327.37996206475873,329.0717922037402,"[57, 0, 197]",197,l,1.1666692923063238,colour,0.5
055,81,1,2,4,15,165,329.5869233701851,330.34374793230745,"[77, 0, 177]",177,a,0.233549449720158,colour,0.5
055,81,1,2,4,16,166,330.8524613794689,331.3997662130605,"[55, 0, 199]",199,a,0.023986398136912612,colour,0.5
055,81,1,2,4,17,167,331.915021834815,333.3198056449146,"[26, 0, 228]",228,l,0.8814756146384752,colour,0.5
055,81,1,2,4,18,168,333.83690525327256,335.2637743672458,"[13, 0, 241]",241,l,0.9036475646134932,colour,0.5
055,81,1,2,4,19,169,335.77434834253654,336.9278438826259,"[48, 0, 206]",206,a,0.6301901015503972,colour,0.5
055,81,1,2,4,20,170,337.4462467271369,338.25579859349455,"[10, 0, 244]",244,a,0.2862405201267393,colour,0.5
055,81,1,2,4,21,171,338.7743566133031,339.51177441765685,"[88, 0, 166]",166,l,0.21412536273055593,colour,0.5
055,81,1,2,4,22,172,340.02438536405316,341.74377841598107,"[30, 0, 224]",224,a,1.1960848564667685,colour,0.5
055,81,1,2,4,23,173,342.25871265946625,343.0878347296457,"[65, 0, 189]",189,a,0.30590761004714295,colour,0.5
055,81,1,2,4,24,174,343.60250745943995,344.3517938106306,"[83, 0, 171]",171,a,0.22607110336684855,colour,0.5
055,81,1,2,4,25,175,344.86809706253916,346.44775594470775,"[73, 0, 181]",181,l,1.0563376897916896,colour,0.5
055,81,1,2,4,26,176,346.96249641599934,347.6557692125898,"[12, 0, 242]",242,a,0.1699665703563369,colour,0.5
055,81,1,2,4,27,177,348.1655870037139,349.7197565717106,"[41, 0, 213]",213,l,1.0315474521303258,colour,0.5
055,81,1,2,4,28,178,350.22810807446876,351.59975723337266,"[2, 0, 252]",252,l,0.8484673879829643,colour,0.5
055,81,1,2,4,29,179,352.1059733035472,352.8637423081891,"[75, 0, 179]",179,a,0.23447892609328846,colour,0.5
055,81,1,2,4,30,180,353.36327953922955,354.07181110834426,"[23, 0, 231]",231,a,0.1852391274915135,colour,0.5
055,81,1,2,4,31,181,354.5820735515117,356.2397923014141,"[36, 0, 218]",218,l,1.1344515144155594,colour,0.5
055,81,1,2,4,32,182,356.7538533884908,358.04775775640155,"[34, 0, 220]",220,l,0.7704823509775451,colour,0.5
055,81,1,2,4,33,183,358.56640754230466,359.64784700188466,"[72, 0, 182]",182,l,0.558137171807175,colour,0.5
055,81,1,2,4,34,184,360.1601338130895,360.7597528065453,"[31, 0, 223]",223,a,0.07646794251922984,colour,0.5
055,81,1,2,4,35,185,361.26950482539905,363.367746145821,"[85, 0, 169]",169,l,1.574915008048265,colour,0.5
055,81,1,2,4,36,186,363.88096125185984,365.31174676967566,"[95, 0, 159]",159,l,0.9060685354925226,colour,0.5
055,81,1,2,4,37,187,365.8205157491102,366.3838012747983,"[40, 0, 214]",214,a,0.05241971056966577,colour,0.5
055,81,1,2,4,38,188,366.9017807349446,367.52776377436385,"[56, 0, 198]",198,l,0.1026413670515467,colour,0.5
055,81,1,2,4,39,189,368.03003744686794,368.7677600879688,"[39, 0, 215]",215,a,0.21434079645041493,colour,0.5
055,81,1,2,4,40,190,369.2799720684452,369.85574959906444,"[71, 0, 183]",183,a,0.05240631980996113,colour,0.5
055,81,1,2,4,41,191,370.3737479638148,371.8397346423699,"[54, 0, 200]",200,l,0.9427611907376559,colour,0.5
055,81,1,2,4,42,192,372.3581414253422,373.6477835926926,"[27, 0, 227]",227,l,0.7663745380195905,colour,0.5
055,81,1,2,4,43,193,374.1550142099586,375.7037364950229,"[87, 0, 167]",167,l,1.025355012716318,colour,0.5
055,81,1,2,4,44,194,376.217437606927,377.9997723570559,"[5, 0, 249]",249,l,1.2589450285631756,colour,0.5
055,81,1,2,4,45,195,378.5143352038358,380.64777177731594,"[53, 0, 201]",201,l,1.6094891660868598,colour,0.5
055,81,1,2,4,46,196,381.1558897294417,382.5598228323506,"[14, 0, 240]",240,l,0.8806233320647152,colour,0.5
055,81,1,2,4,47,197,383.0777699971295,384.43174413878296,"[51, 0, 203]",203,l,0.830711632319435,colour,0.5
055,81,1,2,4,48,198,384.95329105528435,386.3597813997585,"[52, 0, 202]",202,l,0.8831908136235143,colour,0.5
055,81,1,2,4,49,199,386.8751764429726,387.7678195587032,"[78, 0, 176]",176,a,0.36943810790398857,colour,0.5
055,81,1,2,4,50,200,388.2720443438993,389.9757201866487,"[16, 0, 238]",238,l,1.180443659552111,colour,0.5
055,81,1,2,5,1,201,394.03870245098005,397.38382057325,"[22, 0, 232]",232,l,2.8210694964764116,colour,0.4
055,81,1,2,5,2,202,397.90082329551296,398.6557518833688,"[35, 0, 219]",219,a,0.2317468169349013,colour,0.4
055,81,1,2,5,3,203,399.16641014169,400.45572462923155,"[38, 0, 216]",216,l,0.7660917566463468,colour,0.4
055,81,1,2,5,4,204,400.9635570430655,402.23170034311624,"[61, 0, 193]",193,l,0.7447555477119749,colour,0.4
055,81,1,2,5,5,205,402.74486976302796,403.39176799009147,"[94, 0, 160]",160,l,0.12363296080729924,colour,0.4
055,81,1,2,5,6,206,403.9010485753788,405.91972789972715,"[5, 0, 249]",249,a,1.4953207166108768,colour,0.4
055,81,1,2,5,7,207,406.41993073037884,408.2317834446076,"[77, 0, 177]",177,l,1.2885724818297604,colour,0.4
055,81,1,2,5,8,208,408.7498901169856,409.42379554040235,"[4, 0, 250]",250,a,0.15065551715088077,colour,0.4
055,81,1,2,5,9,209,409.93733241855807,411.1357244244318,"[67, 0, 187]",187,a,0.6751145303933299,colour,0.4
055,81,1,2,5,10,210,411.64731058373945,412.99971091709085,"[81, 0, 173]",173,a,0.8271020344509452,colour,0.4
055,81,1,2,5,11,211,413.5086216810596,416.15174056266187,"[40, 0, 214]",214,l,2.119901664551435,colour,0.4
055,81,1,2,5,12,212,416.66495173024305,418.32773218792136,"[21, 0, 233]",233,l,1.1395809636924241,colour,0.4
055,81,1,2,5,13,213,418.8300101927307,419.4637512091067,"[74, 0, 180]",180,a,0.11040525170028559,colour,0.4
055,81,1,2,5,14,214,419.97064154349573,420.5277444759158,"[70, 0, 184]",184,a,0.033799856955738505,colour,0.4
055,81,1,2,5,15,215,421.04875615581113,422.4717533705334,"[64, 0, 190]",190,l,0.8997729084439925,colour,0.4
055,81,1,2,5,16,216,422.97388722773394,424.68773847370176,"[92, 0, 162]",162,l,1.1906363919915748,colour,0.4
055,81,1,2,5,17,217,425.2081901046986,425.9517294562065,"[51, 0, 203]",203,a,0.22023351912139333,colour,0.4
055,81,1,2,5,18,218,426.4582468185108,427.67172312316325,"[16, 0, 238]",238,l,0.6910270871449029,colour,0.4
055,81,1,2,5,19,219,428.1926040462131,429.4237242542913,"[43, 0, 211]",211,l,0.7082684800407151,colour,0.4
055,81,1,2,5,20,220,429.94259104929733,430.7037077442692,"[89, 0, 165]",165,l,0.24066939628028194,colour,0.4
055,81,1,2,5,21,221,431.22104602325635,431.83974212544126,"[9, 0, 245]",245,a,0.09545407283803797,colour,0.4
055,81,1,2,5,22,222,432.34602396788614,434.375744762634,"[8, 0, 246]",246,l,1.5064259900500474,colour,0.4
055,81,1,2,5,23,223,434.8928357063851,435.58373912591196,"[83, 0, 171]",171,a,0.16779647933071828,colour,0.4
055,81,1,2,5,24,224,436.09596410330414,437.62372393921396,"[33, 0, 221]",221,l,1.004383898947708,colour,0.4
055,81,1,2,5,25,225,438.1428896632751,438.791769723015,"[91, 0, 163]",163,l,0.12579044876474654,colour,0.4
055,81,1,2,5,26,226,439.29901648796294,439.9277434519172,"[75, 0, 179]",179,l,0.10535023930060561,colour,0.4
055,81,1,2,5,27,227,440.4396813156309,442.05574770860403,"[50, 0, 204]",204,l,1.0927526836676407,colour,0.4
055,81,1,2,5,28,228,442.5647758386549,443.3197796510831,"[58, 0, 196]",196,a,0.2317716292309342,colour,0.4
055,81,1,2,5,29,229,443.83030636486365,445.63973456359963,"[14, 0, 240]",240,l,1.2864484707752126,colour,0.4
055,81,1,2,5,30,230,446.1584800540659,447.3357402570364,"[95, 0, 159]",159,l,0.6540311705393833,colour,0.4
055,81,1,2,5,31,231,447.8459353525541,449.28769775003457,"[52, 0, 202]",202,a,0.9184061528176244,colour,0.4
055,81,1,2,5,32,232,449.7990728079312,451.3196874911373,"[44, 0, 210]",210,l,0.9972348077862989,colour,0.4
055,81,1,2,5,33,233,451.83048005091405,452.8797265448993,"[10, 0, 244]",244,l,0.5259863477258477,colour,0.4
055,81,1,2,5,34,234,453.383315662777,454.01571523994426,"[93, 0, 161]",161,l,0.10921111086645396,colour,0.4
055,81,1,2,5,35,235,454.5238784843532,456.06374199311176,"[60, 0, 194]",194,a,1.0165344394627027,colour,0.4
055,81,1,2,5,36,236,456.570748905895,457.1677397655185,"[11, 0, 243]",243,l,0.07358774729436846,colour,0.4
055,81,1,2,5,37,237,457.6810163115224,459.0717390345417,"[17, 0, 237]",237,l,0.8673058260865218,colour,0.4
055,81,1,2,5,38,238,459.58722702538944,461.4397222756088,"[97, 0, 157]",157,l,1.3291015901922947,colour,0.4
055,81,1,2,5,39,239,461.9466118223063,462.67970047229755,"[82, 0, 172]",172,l,0.20973555609452887,colour,0.4
055,81,1,2,5,40,240,463.1966492376705,465.15169527038233,"[86, 0, 168]",168,l,1.4319969878670236,colour,0.4
055,81,1,2,5,41,241,465.6654298591893,466.25573754737707,"[80, 0, 174]",174,l,0.06699791734354221,colour,0.4
055,81,1,2,5,42,242,466.77473194846607,467.4477216801133,"[78, 0, 176]",176,l,0.14966499466027017,colour,0.4
055,81,1,2,5,43,243,467.96236605300146,469.09569865115554,"[55, 0, 199]",199,l,0.6100862365019566,colour,0.4
055,81,1,2,5,44,244,469.60292966226916,470.583721402847,"[76, 0, 178]",178,l,0.4574819697336352,colour,0.4
055,81,1,2,5,45,245,471.10298046839307,472.223714723219,"[29, 0, 225]",225,l,0.5974839547161537,colour,0.4
055,81,1,2,5,46,246,472.7446263662496,473.503715148574,"[99, 0, 155]",155,l,0.23570024229411501,colour,0.4
055,81,1,2,5,47,247,474.01023093549156,475.24770230289505,"[63, 0, 191]",191,a,0.7141938919230597,colour,0.4
055,81,1,2,5,48,248,475.7602581108622,477.5517072432958,"[15, 0, 239]",239,l,1.268284690733708,colour,0.4
055,81,1,2,5,49,249,478.07272483087945,479.23966863379246,"[59, 0, 195]",195,l,0.6436375766788842,colour,0.4
055,81,1,2,5,50,250,479.7602687446997,480.92774108883896,"[6, 0, 248]",248,l,0.644255914776295,colour,0.4
055,81,1,2,6,1,251,485.7765700273776,488.03172192587226,"[81, 0, 173]",173,l,1.7309681835504307,colour,0.28
055,81,1,2,6,2,252,488.54576607757554,489.3356634570846,"[85, 0, 169]",169,a,0.26657185482690693,colour,0.28
055,81,1,2,6,3,253,489.84259317606484,490.3837205363852,"[10, 0, 244]",244,a,0.017933774019184057,colour,0.28
055,81,1,2,6,4,254,490.9051693852525,492.51169761770143,"[76, 0, 178]",178,l,1.092549853015953,colour,0.28
055,81,1,2,6,5,255,493.02140198120105,493.6796654200116,"[90, 0, 164]",164,l,0.13555507068667794,colour,0.28
055,81,1,2,6,6,256,494.1939289438924,495.65569792647875,"[84, 0, 170]",170,l,0.9382232980351546,colour,0.28
055,81,1,2,6,7,257,496.1628103899675,497.36769967200235,"[65, 0, 189]",189,l,0.6816626126783376,colour,0.28
055,81,1,2,6,8,258,497.8821798111421,499.35167959531464,"[97, 0, 157]",157,l,0.9462790225079516,colour,0.28
055,81,1,2,6,9,259,499.88560627065453,500.50364110554074,"[80, 0, 174]",174,l,0.09824998503609095,colour,0.28
055,81,1,2,6,10,260,501.0227729588514,501.62373772382125,"[91, 0, 163]",163,l,0.07766877873291378,colour,0.28
055,81,1,2,6,11,261,502.1196956831336,503.35167801993157,"[1, 0, 253]",253,l,0.7086446028952196,colour,0.28
055,81,1,2,6,12,262,503.8696622062271,504.54369641726225,"[96, 0, 158]",158,l,0.15071144327521324,colour,0.28
055,81,1,2,6,13,263,505.0571494062351,506.73573923303775,"[61, 0, 193]",193,l,1.155315895935928,colour,0.28
055,81,1,2,6,14,264,507.2457433132804,508.71965811023256,"[11, 0, 243]",243,l,0.9509275859163608,colour,0.28
055,81,1,2,6,15,265,509.2301986086204,510.39166913476583,"[23, 0, 231]",231,l,0.6381355491612339,colour,0.28
055,81,1,2,6,16,266,510.90198041482654,511.81565765967025,"[46, 0, 208]",208,l,0.39030327711225254,colour,0.28
055,81,1,2,6,17,267,512.3239059747975,513.3996504223578,"[79, 0, 175]",175,l,0.5532810515978781,colour,0.28
055,81,1,2,6,18,268,513.9175983748319,514.6076770809996,"[25, 0, 229]",229,a,0.16671025228060898,colour,0.28
055,81,1,2,6,19,269,515.1225569737508,516.2796818040006,"[95, 0, 159]",159,l,0.6420929129781143,colour,0.28
055,81,1,2,6,20,270,516.7767011780707,517.4876552934438,"[88, 0, 166]",166,l,0.1881799749826314,colour,0.28
055,81,1,2,6,21,271,517.9959871039064,518.7196805594467,"[99, 0, 155]",155,l,0.2003368170298927,colour,0.28
055,81,1,2,6,22,272,519.230340393151,521.9516869208492,"[87, 0, 167]",167,l,2.1979835876554716,colour,0.28
055,81,1,2,6,23,273,522.4647582731268,523.991661494154,"[62, 0, 192]",192,l,1.0035938440305472,colour,0.28
055,81,1,2,6,24,274,524.5115617408592,525.8077232397445,"[77, 0, 177]",177,a,0.7728674818754371,colour,0.28
055,81,1,2,6,25,275,526.320478333746,527.9836786311789,"[39, 0, 215]",215,l,1.1398865881274105,colour,0.28
055,81,1,2,6,26,276,528.4923219737648,529.7436307237622,"[35, 0, 219]",219,l,0.7278835822980909,colour,0.28
055,81,1,2,6,27,277,530.2579434783838,531.43968249717,"[71, 0, 183]",183,l,0.6583752910519252,colour,0.28
055,81,1,2,6,28,278,531.9610281584064,533.7116976964717,"[89, 0, 165]",165,l,1.227233736524795,colour,0.28
055,81,1,2,6,29,279,534.2267867214032,535.2476211706344,"[18, 0, 236]",236,l,0.49822021028376184,colour,0.28
055,81,1,2,6,30,280,535.7579505676076,536.8716574296668,"[75, 0, 179]",179,l,0.5904443527251715,colour,0.28
055,81,1,2,6,31,281,537.3798915663392,538.4876749857394,"[16, 0, 238]",238,l,0.5847465837796335,colour,0.28
055,81,1,2,6,32,282,539.0065851038016,539.6076581763955,"[86, 0, 168]",168,a,0.07769674179144204,colour,0.28
055,81,1,2,6,33,283,540.1159316976627,540.6716494739776,"[64, 0, 190]",190,a,0.03228355015744455,colour,0.28
055,81,1,2,6,34,284,541.1784697037947,542.3756392119285,"[67, 0, 187]",187,l,0.6738258665391186,colour,0.28
055,81,1,2,6,35,285,542.897292072983,543.9116792644818,"[32, 0, 222]",222,l,0.4892783324867196,colour,0.28
055,81,1,2,6,36,286,544.4302156227641,545.3836941487098,"[17, 0, 237]",237,l,0.4304511426271347,colour,0.28
055,81,1,2,6,37,287,545.8989592227663,546.4237817557951,"[74, 0, 180]",180,a,0.0014824360478087328,colour,0.28
055,81,1,2,6,38,288,546.9457752935705,547.4797319012032,"[59, 0, 195]",195,a,0.010616116804158082,colour,0.28
055,81,1,2,6,39,289,547.9926878566257,549.5676938430843,"[93, 0, 161]",161,l,1.051895501648687,colour,0.28
055,81,1,2,6,40,290,550.0865590627072,550.6956803767025,"[82, 0, 172]",172,a,0.08589228156415629,colour,0.28
055,81,1,2,6,41,291,551.2137275783498,552.303684743667,"[66, 0, 188]",188,a,0.5665607483679196,colour,0.28
055,81,1,2,6,42,292,552.8231218275687,553.575618810708,"[50, 0, 204]",204,a,0.22919075690879254,colour,0.28
055,81,1,2,6,43,293,554.0887378183434,554.8637171020491,"[63, 0, 191]",191,a,0.25168250977731077,colour,0.28
055,81,1,2,6,44,294,555.3698807907131,556.839666507025,"[31, 0, 223]",223,l,0.9469611636413902,colour,0.28
055,81,1,2,6,45,295,557.3543404183583,558.2316719862101,"[69, 0, 185]",185,l,0.35435262758255703,colour,0.28
055,81,1,2,6,46,296,558.7449339599152,559.6636445556287,"[55, 0, 199]",199,l,0.395311815693276,colour,0.28
055,81,1,2,6,47,297,560.1824164337704,560.8956473724174,"[94, 0, 160]",160,l,0.18989202320517506,colour,0.28
055,81,1,2,6,48,298,561.4168630644963,562.1516476150246,"[51, 0, 203]",203,a,0.2115133765837527,colour,0.28
055,81,1,2,6,49,299,562.6668075322232,564.4476397601611,"[33, 0, 221]",221,l,1.2578918845683802,colour,0.28
055,81,1,2,6,50,300,564.9637015845183,565.9116383045075,"[56, 0, 198]",198,l,0.42536501639915514,colour,0.28
055,81,1,2,7,1,301,570.541709858433,573.9516534439463,"[58, 0, 196]",196,l,2.8858736920410593,colour,0.14
055,81,1,2,7,2,302,574.4643766364279,575.0316262213128,"[73, 0, 181]",181,a,0.043868921773537295,colour,0.14
055,81,1,2,7,3,303,575.5299838838218,576.1436824751145,"[77, 0, 177]",177,a,0.0902210420827032,colour,0.14
055,81,1,2,7,4,304,576.6550413853292,578.1516574611742,"[69, 0, 185]",185,l,0.9736300463482621,colour,0.14
055,81,1,2,7,5,305,578.6706026315187,580.255674138185,"[99, 0, 155]",155,l,1.0616561851129518,colour,0.14
055,81,1,2,7,6,306,580.7644131853303,582.3756270027043,"[41, 0, 213]",213,l,1.0878863234647724,colour,0.14
055,81,1,2,7,7,307,582.8801853753976,584.375621095016,"[80, 0, 174]",174,l,0.9721153149366728,colour,0.14
055,81,1,2,7,8,308,584.8965973287777,586.1036177110909,"[92, 0, 162]",162,l,0.6836598053450871,colour,0.14
055,81,1,2,7,9,309,586.6153740118389,587.1436584505136,"[94, 0, 160]",160,l,0.0049600955317146145,colour,0.14
055,81,1,2,7,10,310,587.6621825995717,588.8876637217472,"[50, 0, 204]",204,l,0.7021544159579207,colour,0.14
055,81,1,2,7,11,311,589.4016354058003,590.5596790785894,"[61, 0, 193]",193,l,0.6346212620082952,colour,0.14
055,81,1,2,7,12,312,591.0632457472493,592.1436962597218,"[56, 0, 198]",198,l,0.5571785508363973,colour,0.14
055,81,1,2,7,13,313,592.6570031318624,593.679647303099,"[86, 0, 168]",168,l,0.49937929882798926,colour,0.14
055,81,1,2,7,14,314,594.1882481103239,595.071607490001,"[55, 0, 199]",199,l,0.36008781188502326,colour,0.14
055,81,1,2,7,15,315,595.5789625625803,596.287617799313,"[44, 0, 210]",210,a,0.18540099816164002,colour,0.14
055,81,1,2,7,16,316,596.7851621699956,597.3836012010725,"[96, 0, 158]",158,l,0.07512532177497633,colour,0.14
055,81,1,2,7,17,317,597.8947206529629,599.2636440042443,"[93, 0, 161]",161,l,0.845864854134561,colour,0.14
055,81,1,2,7,18,318,599.7851369638556,600.3356417955583,"[35, 0, 219]",219,a,0.02723995929409284,colour,0.14
055,81,1,2,7,19,319,600.8476253454028,602.1756474039248,"[83, 0, 171]",171,l,0.8046134323521983,colour,0.14
055,81,1,2,7,20,320,602.6937548639944,603.8956572185634,"[46, 0, 208]",208,l,0.6788135312854138,colour,0.14
055,81,1,2,7,21,321,604.4124027594407,605.127641918436,"[84, 0, 170]",170,a,0.19243666169859353,colour,0.14
055,81,1,2,7,22,322,605.6467450209966,606.2556607474216,"[89, 0, 165]",165,a,0.08560319865864585,colour,0.14
055,81,1,2,7,23,323,606.7718084301923,607.6156252855362,"[76, 0, 178]",178,l,0.32042949685273925,colour,0.14
055,81,1,2,7,24,324,608.1311514794397,608.8796556526322,"[71, 0, 183]",183,a,0.2251435962243704,colour,0.14
055,81,1,2,7,25,325,609.3967450209966,610.8876074017826,"[82, 0, 172]",172,a,0.9674608438399446,colour,0.14
055,81,1,2,7,26,326,611.3968163071113,613.8476430684677,"[66, 0, 188]",188,l,1.9274961166811408,colour,0.14
055,81,1,2,7,27,327,614.3655189471392,615.9996187571451,"[75, 0, 179]",179,l,1.1107904330092424,colour,0.14
055,81,1,2,7,28,328,616.5061250917643,617.8556448360468,"[16, 0, 238]",238,l,0.8261839796068671,colour,0.14
055,81,1,2,7,29,329,618.365531944055,619.0796521867887,"[72, 0, 182]",182,a,0.19085458263361943,colour,0.14
055,81,1,2,7,30,330,619.5998875963742,621.0716366346023,"[63, 0, 191]",191,l,0.9483695566559618,colour,0.14
055,81,1,2,7,31,331,621.5842357656184,622.5596007032509,"[91, 0, 163]",163,l,0.4520118437358178,colour,0.14
055,81,1,2,7,32,332,623.0686272579187,624.1195850124277,"[57, 0, 197]",197,l,0.5276133252264117,colour,0.14
055,81,1,2,7,33,333,624.6311396640631,625.4796129597344,"[62, 0, 192]",192,l,0.32519739557392313,colour,0.14
055,81,1,2,7,34,334,625.9801903378539,626.9516179978127,"[87, 0, 167]",167,l,0.44801903378538555,colour,0.14
055,81,1,2,7,35,335,627.4645660763163,628.6076211548789,"[97, 0, 157]",157,l,0.6199327783760964,colour,0.14
055,81,1,2,7,36,336,629.1207870301805,630.1115993925305,"[60, 0, 194]",194,l,0.46779285595039255,colour,0.14
055,81,1,2,7,37,337,630.6237302407499,631.263610921189,"[88, 0, 166]",166,l,0.11652994962059893,colour,0.14
055,81,1,2,7,38,338,631.780099280677,633.5596077924747,"[26, 0, 228]",228,l,1.2562188270931074,colour,0.14
055,81,1,2,7,39,339,634.0768751791984,635.391583276356,"[6, 0, 248]",248,l,0.7917393968818942,colour,0.14
055,81,1,2,7,40,340,635.9050622591603,636.4317319295587,"[68, 0, 186]",186,a,0.0037009701190982014,colour,0.14
055,81,1,2,7,41,341,636.9519437083873,637.9676069606721,"[53, 0, 201]",201,a,0.4923263060700265,colour,0.14
055,81,1,2,7,42,342,638.483128822274,639.9035853369569,"[70, 0, 184]",184,a,0.8973176729705301,colour,0.14
055,81,1,2,7,43,343,640.413492137257,641.1516224088846,"[85, 0, 169]",169,a,0.21473346083439537,colour,0.14
055,81,1,2,7,44,344,641.6634740203444,643.5196147084098,"[52, 0, 202]",202,l,1.3327088249825465,colour,0.14
055,81,1,2,7,45,345,644.0385157680139,645.4876009427062,"[65, 0, 189]",189,l,0.9257474407859263,colour,0.14
055,81,1,2,7,46,346,646.0072944203057,646.5758314875056,"[78, 0, 176]",176,a,0.057575153678044444,colour,0.14
055,81,1,2,7,47,347,647.0794812576569,648.5436341896057,"[81, 0, 173]",173,l,0.9408018072790583,colour,0.14
055,81,1,2,7,48,348,649.0638243069079,650.2876170116215,"[54, 0, 200]",200,l,0.7004211000603391,colour,0.14
055,81,1,2,7,49,349,650.798203589984,651.3436368677576,"[79, 0, 175]",175,a,0.02201795622386271,colour,0.14
055,81,1,2,7,50,350,651.8606695223098,653.1916194314108,"[90, 0, 164]",164,l,0.8075680644506065,colour,0.14
055,81,1,2,8,1,351,659.6278183614086,662.207574917371,"[77, 0, 177]",177,l,2.053980521955964,colour,0.06
055,81,1,2,8,2,352,662.7239904153648,663.3196091157988,"[11, 0, 243]",243,a,0.07227112038162886,colour,0.06
055,81,1,2,8,3,353,663.832464246665,664.5756420476173,"[21, 0, 233]",233,a,0.21975657171060448,colour,0.06
055,81,1,2,8,4,354,665.0825934281274,666.5516332002626,"[65, 0, 189]",189,l,0.9456539890270506,colour,0.06
055,81,1,2,8,5,355,667.0670778680615,668.3836008072249,"[84, 0, 170]",170,l,0.7932722452060261,colour,0.06
055,81,1,2,8,6,356,668.8970770331107,669.9755417744491,"[29, 0, 225]",225,l,0.5551892350886192,colour,0.06
055,81,1,2,8,7,357,670.4907091747191,671.7036301566222,"[86, 0, 168]",168,a,0.6895253526490706,colour,0.06
055,81,1,2,8,8,358,672.2252089746435,672.7595767574167,"[52, 0, 202]",202,a,0.01126990103512071,colour,0.06
055,81,1,2,8,9,359,673.2720148054541,674.8476119546394,"[87, 0, 167]",167,l,1.052341729078762,colour,0.06
055,81,1,2,8,10,360,675.3656422209096,676.8155702258773,"[62, 0, 192]",192,l,0.9264406096117455,colour,0.06
055,81,1,2,8,11,361,677.3302374418272,678.2875370608999,"[88, 0, 166]",166,l,0.4322384154147585,colour,0.06
055,81,1,2,8,12,362,678.8006288931647,679.8396605993366,"[54, 0, 200]",200,l,0.5156715230477857,colour,0.06
055,81,1,2,8,13,363,680.3528575884629,680.9115709568541,"[55, 0, 199]",199,a,0.03536815141342231,colour,0.06
055,81,1,2,8,14,364,681.4309328161871,682.1115639463969,"[98, 0, 156]",156,l,0.1573182085994631,colour,0.06
055,81,1,2,8,15,365,682.6184448284876,683.1675940425266,"[94, 0, 160]",160,l,0.029597520973766223,colour,0.06
055,81,1,2,8,16,366,683.6770845476894,684.3195551589088,"[79, 0, 175]",175,a,0.11785484729989548,colour,0.06
055,81,1,2,8,17,367,684.8221525727567,685.5596077924747,"[71, 0, 183]",183,a,0.21415332579272217,colour,0.06
055,81,1,2,8,18,368,686.0721309112305,687.4075887807448,"[68, 0, 186]",186,a,0.8121189540688647,colour,0.06
055,81,1,2,8,19,369,687.9158560004762,688.7275358163461,"[89, 0, 165]",165,a,0.28825701124515035,colour,0.06
055,81,1,2,8,20,370,689.2440005450808,690.0075653862987,"[63, 0, 191]",191,a,0.24028775958504411,colour,0.06
055,81,1,2,8,21,371,690.5251927481913,691.1755627270504,"[99, 0, 155]",155,l,0.1270799003104912,colour,0.06
055,81,1,2,8,22,372,691.6834349193232,692.9835616589407,"[93, 0, 161]",161,l,0.7769544209986634,colour,0.06
055,81,1,2,8,23,373,693.4959166054869,694.2076280865695,"[96, 0, 158]",158,l,0.18841707022875198,colour,0.06
055,81,1,2,8,24,374,694.7146818670153,696.1356058768106,"[74, 0, 180]",180,l,0.8975374389956414,colour,0.06
055,81,1,2,8,25,375,696.6528354543225,697.7356065069616,"[73, 0, 181]",181,l,0.5596089740138268,colour,0.06
055,81,1,2,8,26,376,698.2466306481438,699.4555513370251,"[64, 0, 190]",190,l,0.6856085549625277,colour,0.06
055,81,1,2,8,27,377,699.9654112696626,700.7835871801544,"[51, 0, 203]",203,l,0.29489843501141877,colour,0.06
055,81,1,2,8,28,378,701.2934364789544,702.1195491724502,"[90, 0, 164]",164,l,0.3029801533157297,colour,0.06
055,81,1,2,8,29,379,702.6371899251062,704.5835843444656,"[61, 0, 193]",193,l,1.4230350239304244,colour,0.06
055,81,1,2,8,30,380,705.0904305681142,706.4316074742492,"[78, 0, 176]",176,l,0.8182968211913249,colour,0.06
055,81,1,2,8,31,381,706.9496621589678,707.7836163247557,"[91, 0, 163]",163,l,0.310512850406667,colour,0.06
055,81,1,2,8,32,382,708.2934545958633,709.2715437657316,"[57, 0, 197]",197,l,0.4548778605021653,colour,0.06
055,81,1,2,8,33,383,709.7778220635628,711.0316423689983,"[66, 0, 188]",188,l,0.7305924545435118,colour,0.06
055,81,1,2,8,34,384,711.5459437020872,712.3195929681169,"[85, 0, 169]",169,l,0.2503855751565425,colour,0.06
055,81,1,2,8,35,385,712.8270764344634,713.8075208029404,"[70, 0, 184]",184,l,0.4571180561033543,colour,0.06
055,81,1,2,8,36,386,714.3271642621039,715.375595888876,"[97, 0, 157]",157,l,0.525243160471291,colour,0.06
055,81,1,2,8,37,387,715.8919739715093,716.5355883112825,"[56, 0, 198]",198,a,0.1203577381274954,colour,0.06
055,81,1,2,8,38,388,717.0482575468741,717.6155744794123,"[50, 0, 204]",204,a,0.044000466314173536,colour,0.06
055,81,1,2,8,39,389,718.1291724036855,719.0635939070453,"[60, 0, 194]",194,l,0.4109096895554103,colour,0.06
055,81,1,2,8,40,390,719.5826139081146,720.4075667253746,"[69, 0, 185]",185,a,0.3006836377498985,colour,0.06
055,81,1,2,8,41,391,720.9274291628717,723.1195696524373,"[83, 0, 171]",171,l,1.6687795187535812,colour,0.06
055,81,1,2,8,42,392,723.6313235901071,724.5116830454026,"[72, 0, 182]",182,l,0.35703117369121173,colour,0.06
055,81,1,2,8,43,393,725.0218789286118,725.9195274321537,"[82, 0, 172]",172,l,0.37432731116496143,colour,0.06
055,81,1,2,8,44,394,726.4258281792027,727.2235567910029,"[75, 0, 179]",179,l,0.27437473021200276,colour,0.06
055,81,1,2,8,45,395,727.7383244376651,728.4955625380062,"[58, 0, 196]",196,l,0.23389800336008193,colour,0.06
055,81,1,2,8,46,396,729.0043606620384,729.7595180743738,"[81, 0, 173]",173,l,0.23174406001271564,colour,0.06
055,81,1,2,8,47,397,730.2700688127588,731.0316738766705,"[92, 0, 162]",162,l,0.2382318838754145,colour,0.06
055,81,1,2,8,48,398,731.5512618035609,732.1035736003469,"[59, 0, 195]",195,a,0.02899414902276476,colour,0.06
055,81,1,2,8,49,399,732.6137289174258,733.927549285876,"[53, 0, 201]",201,l,0.7903684192278888,colour,0.06
055,81,1,2,8,50,400,734.4418687358775,735.2875622670399,"[80, 0, 174]",174,l,0.32234673879793263,colour,0.06
055,81,1,2,9,1,401,740.3005068009297,743.3675630074686,"[94, 0, 160]",160,l,2.542905180805974,colour,0.06
055,81,1,2,9,2,402,743.879415012776,744.535571769753,"[68, 0, 186]",186,a,0.1302338184468681,colour,0.06
055,81,1,2,9,3,403,745.0538347989641,746.3995728347109,"[69, 0, 185]",185,l,0.8272769020368287,colour,0.06
055,81,1,2,9,4,404,746.9083382695353,748.4075466392314,"[65, 0, 189]",189,l,0.9761719279231329,colour,0.06
055,81,1,2,9,5,405,748.9239920695181,750.1035153111516,"[18, 0, 236]",236,l,0.6565840798029967,colour,0.06
055,81,1,2,9,6,406,750.6131294839324,751.7835347986475,"[75, 0, 179]",179,l,0.6471018454030855,colour,0.06
055,81,1,2,9,7,407,752.3005788747323,753.2956061761324,"[74, 0, 180]",180,l,0.47174470592290163,colour,0.06
055,81,1,2,9,8,408,753.8162094378058,754.8155202074449,"[81, 0, 173]",173,l,0.4759052942354174,colour,0.06
055,81,1,2,9,9,409,755.3337686643572,756.0235913706783,"[95, 0, 159]",159,l,0.16647827703491203,colour,0.06
055,81,1,2,9,10,410,756.5372467964553,757.1516421011838,"[63, 0, 191]",191,a,0.09131987220825977,colour,0.06
055,81,1,2,9,11,411,757.6619510181699,759.5195509053701,"[64, 0, 190]",190,l,1.3343208363403392,colour,0.06
055,81,1,2,9,12,412,760.0368234120906,761.1435406905839,"[62, 0, 192]",192,l,0.5832669046540104,colour,0.06
055,81,1,2,9,13,413,761.6618761874452,762.4475172740786,"[53, 0, 201]",201,l,0.2623384050166351,colour,0.06
055,81,1,2,9,14,414,762.9587848120391,763.6875447015118,"[99, 0, 155]",155,l,0.20549344167739036,colour,0.06
055,81,1,2,9,15,415,764.2087883566528,765.615543365584,"[72, 0, 182]",182,l,0.8835468503348238,colour,0.06
055,81,1,2,9,16,416,766.1306642920354,766.703530907449,"[39, 0, 215]",215,a,0.0494867399938812,colour,0.06
055,81,1,2,9,17,417,767.2251026362464,767.7835131371212,"[96, 0, 158]",158,l,0.03515980692100129,colour,0.06
055,81,1,2,9,18,418,768.3032188239413,769.0394992012771,"[73, 0, 181]",181,a,0.212920981903153,colour,0.06
055,81,1,2,9,19,419,769.5531810147331,770.143534389048,"[59, 0, 195]",195,a,0.06701839733068482,colour,0.06
055,81,1,2,9,20,420,770.6624929501559,771.9436560086688,"[57, 0, 197]",197,l,0.7577276508200157,colour,0.06
055,81,1,2,9,21,421,772.4594397778055,773.7995182476661,"[61, 0, 193]",193,l,0.8169321450732241,colour,0.06
055,81,1,2,9,22,422,774.3188037008913,774.9515301701722,"[98, 0, 156]",156,l,0.10774324711746885,colour,0.06
055,81,1,2,9,23,423,775.4632707170822,776.1915087607085,"[97, 0, 157]",157,l,0.20488691896025557,colour,0.06
055,81,1,2,9,24,424,776.6976106155635,777.8555195930458,"[66, 0, 188]",188,l,0.6345168928382918,colour,0.06
055,81,1,2,9,25,425,778.3694652832673,779.2315502878191,"[55, 0, 199]",199,l,0.338787442931789,colour,0.06
055,81,1,2,9,26,426,779.7331075545917,780.687497046154,"[56, 0, 198]",198,l,0.4318173941283021,colour,0.06
055,81,1,2,9,27,427,781.2010993027325,782.0955151189555,"[84, 0, 170]",170,l,0.3710552392549289,colour,0.06
055,81,1,2,9,28,428,782.6073131673693,783.3275344772701,"[82, 0, 172]",172,l,0.2092385225405451,colour,0.06
055,81,1,2,9,29,429,783.8448739377964,784.6314795530925,"[80, 0, 174]",174,l,0.2631713891423715,colour,0.06
055,81,1,2,9,30,430,785.141757356254,786.6155118579118,"[91, 0, 163]",163,l,0.9504140108329011,colour,0.06
055,81,1,2,9,31,431,787.1136666897692,787.783525740193,"[54, 0, 200]",200,a,0.14651619652067893,colour,0.06
055,81,1,2,9,32,432,788.30161508335,789.559540444825,"[51, 0, 203]",203,a,0.7345986552536488,colour,0.06
055,81,1,2,9,33,433,790.0672157141344,790.6155658148018,"[58, 0, 196]",196,l,0.02509192363868351,colour,0.06
055,81,1,2,9,34,434,791.1296678618564,791.7915310523858,"[86, 0, 168]",168,l,0.13853412123353337,colour,0.06
055,81,1,2,9,35,435,792.301524498791,793.1675239379547,"[85, 0, 169]",169,l,0.34260696067576646,colour,0.06
055,81,1,2,9,36,436,793.6765367080152,794.5755014446258,"[78, 0, 176]",176,l,0.3758818210189929,colour,0.06
055,81,1,2,9,37,437,795.0828033480029,795.8395133009617,"[50, 0, 204]",204,l,0.23338482212420786,colour,0.06
055,81,1,2,9,38,438,796.3536488249192,797.0314694706394,"[76, 0, 178]",178,l,0.15455222869786667,colour,0.06
055,81,1,2,9,39,439,797.541288443299,798.7675627711615,"[88, 0, 166]",166,l,0.7031248523089744,colour,0.06
055,81,1,2,9,40,440,799.2755239726102,799.8395152701924,"[83, 0, 171]",171,l,0.040770535913907224,colour,0.06
055,81,1,2,9,41,441,800.3536161357079,800.9915248296202,"[79, 0, 175]",175,a,0.11452566772641148,colour,0.06
055,81,1,2,9,42,442,801.509843784952,802.0395204689594,"[67, 0, 187]",187,a,0.006507910002255812,colour,0.06
055,81,1,2,9,43,443,802.5567244464874,803.8395290547996,"[21, 0, 233]",233,l,0.759778012685274,colour,0.06
055,81,1,2,9,44,444,804.3536665479878,805.079491891498,"[92, 0, 162]",162,l,0.20256007725765812,colour,0.06
055,81,1,2,9,45,445,805.5879253142084,806.743496422303,"[52, 0, 202]",202,l,0.6322471587955079,colour,0.06
055,81,1,2,9,46,446,807.2598796249295,807.9114973076685,"[89, 0, 165]",165,l,0.12847135795163922,colour,0.06
055,81,1,2,9,47,447,808.431743744939,809.7275243948134,"[90, 0, 164]",164,l,0.7724145590655098,colour,0.06
055,81,1,2,9,48,448,810.2441817142062,811.2395103077324,"[87, 0, 167]",167,l,0.4721940841191099,colour,0.06
055,81,1,2,9,49,449,811.7598851387738,812.8555105345877,"[71, 0, 183]",183,a,0.5725936801900389,colour,0.06
055,81,1,2,9,50,450,813.3691825018977,814.8635091514006,"[70, 0, 184]",184,a,0.9709589833073551,colour,0.06
055,81,1,2,10,1,451,823.1184735792376,825.9595244546799,"[94, 0, 160]",160,l,2.3168636158843583,colour,0.06
055,81,1,2,10,2,452,826.479309698374,827.6634551157404,"[76, 0, 178]",178,l,0.6596966441175027,colour,0.06
055,81,1,2,10,3,453,828.183807497564,829.2315660416571,"[78, 0, 176]",176,l,0.5244657086223015,colour,0.06
055,81,1,2,10,4,454,829.7356628269299,830.615454356408,"[60, 0, 194]",194,l,0.3564833340169571,colour,0.06
055,81,1,2,10,5,455,831.1293208835996,832.0394818720597,"[87, 0, 167]",167,l,0.38687484836918884,colour,0.06
055,81,1,2,10,6,456,832.5512314774242,833.1594741211702,"[50, 0, 204]",204,a,0.09741818244947353,colour,0.06
055,81,1,2,10,7,457,833.6793204109854,834.9994773664621,"[81, 0, 173]",173,l,0.795554976164567,colour,0.06
055,81,1,2,10,8,458,835.5087705548176,836.6395057391201,"[89, 0, 165]",165,a,0.6045196182531072,colour,0.06
055,81,1,2,10,9,459,837.1538629983297,837.7354836270351,"[88, 0, 166]",166,a,0.07061381674429867,colour,0.06
055,81,1,2,10,10,460,838.2546324157229,838.9434791718522,"[68, 0, 186]",186,a,0.16559488063649042,colour,0.06
055,81,1,2,10,11,461,839.4575434096951,840.4474948248644,"[64, 0, 190]",190,l,0.466460869047296,colour,0.06
055,81,1,2,10,12,462,840.9577655387948,841.535476852885,"[98, 0, 156]",156,l,0.05449291550030466,colour,0.06
055,81,1,2,10,13,463,842.0513846834874,842.6394915606688,"[59, 0, 195]",195,a,0.064701401777711,colour,0.06
055,81,1,2,10,14,464,843.1607935050051,844.5674587170688,"[84, 0, 170]",170,l,0.8832873058745463,colour,0.06
055,81,1,2,10,15,465,845.08263675118,845.9594886146988,"[96, 0, 158]",158,l,0.35341763736505527,colour,0.06
055,81,1,2,10,16,466,846.4733181203774,847.0394905366702,"[92, 0, 162]",162,l,0.04320489755627932,colour,0.06
055,81,1,2,10,17,467,847.5514106773189,848.8955142524937,"[83, 0, 171]",171,l,0.8211171518305491,colour,0.06
055,81,1,2,10,18,468,849.4108636095807,849.9754496145033,"[36, 0, 218]",218,a,0.04129907714013825,colour,0.06
055,81,1,2,10,19,469,850.4889289911553,851.0555177025853,"[85, 0, 169]",169,l,0.043224589848250616,colour,0.06
055,81,1,2,10,20,470,851.567032181938,852.1754607209587,"[56, 0, 198]",198,a,0.08503606053272961,colour,0.06
055,81,1,2,10,21,471,852.6920172157916,853.247476235334,"[91, 0, 163]",163,l,0.03216263945796527,colour,0.06
055,81,1,2,10,22,472,853.7545087481049,855.143480432158,"[86, 0, 168]",168,l,0.8654976794605318,colour,0.06
055,81,1,2,10,23,473,855.6607513634917,856.9994836679944,"[58, 0, 196]",196,l,0.8153591244627023,colour,0.06
055,81,1,2,10,24,474,857.5201424619445,858.2234524218366,"[10, 0, 244]",244,a,0.17996474291430786,colour,0.06
055,81,1,2,10,25,475,858.7409478453446,859.4634723661948,"[25, 0, 229]",229,a,0.19784298466038308,colour,0.06
055,81,1,2,10,26,476,859.9768005060105,860.839466827143,"[65, 0, 189]",189,l,0.3395865563034022,colour,0.06
055,81,1,2,10,27,477,861.3517607275717,861.9834620159236,"[51, 0, 203]",203,a,0.10823909913233365,colour,0.06
055,81,1,2,10,28,478,862.4924074383307,863.4315665142713,"[77, 0, 177]",177,l,0.41587766200245824,colour,0.06
055,81,1,2,10,29,479,863.9412921454496,865.5994642120058,"[93, 0, 161]",161,l,1.1347185419508605,colour,0.06
055,81,1,2,10,30,480,866.1132507884795,867.9754657621852,"[53, 0, 201]",201,a,1.3388189506076742,colour,0.06
055,81,1,2,10,31,481,868.4882216438782,869.9034486724231,"[54, 0, 200]",200,l,0.8920822791405953,colour,0.06
055,81,1,2,10,32,482,870.4100707977414,871.7594400928829,"[74, 0, 180]",180,l,0.826313554916851,colour,0.06
055,81,1,2,10,33,483,872.2694733177232,873.5754494569628,"[79, 0, 175]",175,l,0.7826978760676866,colour,0.06
055,81,1,2,10,34,484,874.0819739084945,874.7034458367307,"[55, 0, 199]",199,a,0.09815309893747326,colour,0.06
055,81,1,2,10,35,485,875.2225654808208,876.207526080474,"[61, 0, 193]",193,l,0.4616047488343611,colour,0.06
055,81,1,2,10,36,486,876.7225788715841,877.4234733744379,"[66, 0, 188]",188,l,0.1775469228014117,colour,0.06
055,81,1,2,10,37,487,877.9412748162285,878.6474299190559,"[97, 0, 157]",157,l,0.18277798432973213,colour,0.06
055,81,1,2,10,38,488,879.1600960038813,879.7194572488115,"[73, 0, 181]",181,a,0.03631220008537639,colour,0.06
055,81,1,2,10,39,489,880.2385965851972,880.847463868573,"[72, 0, 182]",182,a,0.08556893406421295,colour,0.06
055,81,1,2,10,40,490,881.3635406590765,882.3674669090651,"[82, 0, 172]",172,l,0.48063223298231605,colour,0.06
055,81,1,2,10,41,491,882.8792255728877,884.0554570503118,"[71, 0, 183]",183,l,0.6529768450091069,colour,0.06
055,81,1,2,10,42,492,884.5666536960052,885.9114315353982,"[80, 0, 174]",174,a,0.8214188378078688,colour,0.06
055,81,1,2,10,43,493,886.4260325852338,887.3034736422524,"[90, 0, 164]",164,l,0.35431048606915283,colour,0.06
055,81,1,2,10,44,494,887.816614705258,889.4634743354218,"[63, 0, 191]",191,l,1.1206535164128582,colour,0.06
055,81,1,2,10,45,495,889.976407053935,890.9914566942753,"[69, 0, 185]",185,l,0.49158548189370777,colour,0.06
055,81,1,2,10,46,496,891.5079757737476,892.3194373989754,"[52, 0, 202]",202,l,0.28815776207193267,colour,0.06
055,81,1,2,10,47,497,892.8362026321483,893.423493854425,"[75, 0, 179]",179,a,0.06403225755639141,colour,0.06
055,81,1,2,10,48,498,893.9299438690759,894.6234143763213,"[57, 0, 197]",197,a,0.17054001002179575,colour,0.06
055,81,1,2,10,49,499,895.132938752231,896.1274599616227,"[67, 0, 187]",187,l,0.47115314934853814,colour,0.06
055,81,1,2,10,50,500,896.6485519860835,897.3674621829123,"[95, 0, 159]",159,l,0.1954858168210194,colour,0.06
055,81,1,2,11,1,501,910.5074452632907,914.6474464605853,"[59, 0, 195]",195,l,3.6158698638573696,colour,0.06
055,81,1,2,11,2,502,915.1651431393584,915.9595283931376,"[94, 0, 160]",160,l,0.27104436910667573,colour,0.06
055,81,1,2,11,3,503,916.477710290088,917.8474485085826,"[69, 0, 185]",185,l,0.8468427735570003,colour,0.06
055,81,1,2,11,4,504,918.3681943424817,919.6234135886261,"[53, 0, 201]",201,l,0.7321572043838387,colour,0.06
055,81,1,2,11,5,505,920.1338954039747,921.0954784912865,"[51, 0, 203]",203,l,0.4383418456563959,colour,0.06
055,81,1,2,11,6,506,921.6026181301422,922.399461376317,"[80, 0, 174]",174,l,0.27353662609675666,colour,0.06
055,81,1,2,11,7,507,922.9151553485826,924.1833919901183,"[58, 0, 196]",196,a,0.7448937876324635,colour,0.06
055,81,1,2,11,8,508,924.6962920194201,925.3354625956636,"[66, 0, 188]",188,a,0.11572492855702876,colour,0.06
055,81,1,2,11,9,509,925.8545440366979,926.9275016305219,"[86, 0, 168]",168,l,0.5496761798858643,colour,0.06
055,81,1,2,11,10,510,927.4220803414137,928.0635167132423,"[89, 0, 165]",165,l,0.11801474873936968,colour,0.06
055,81,1,2,11,11,511,928.5783883352269,929.9993903265131,"[70, 0, 184]",184,l,0.8977505096372624,colour,0.06
055,81,1,2,11,12,512,930.5159531228819,931.1274493277815,"[77, 0, 177]",177,a,0.088242360176082,colour,0.06
055,81,1,2,11,13,513,931.63036851375,932.3194503958912,"[25, 0, 229]",229,a,0.16428179833019385,colour,0.06
055,81,1,2,11,14,514,932.834963199035,934.0874156775863,"[56, 0, 198]",198,l,0.7294172183137562,colour,0.06
055,81,1,2,11,15,515,934.6005988821053,935.7834501217767,"[67, 0, 187]",187,l,0.659590305720485,colour,0.06
055,81,1,2,11,16,516,936.3037875374539,937.2874228455839,"[68, 0, 186]",186,l,0.46033420189633034,colour,0.06
055,81,1,2,11,17,517,937.8037965959084,938.5994232520316,"[54, 0, 200]",200,l,0.27239722984450054,colour,0.06
055,81,1,2,11,18,518,939.1161959682759,939.9514238317715,"[61, 0, 193]",193,l,0.31187752652112977,colour,0.06
055,81,1,2,11,19,519,940.4599505959668,941.4314759297122,"[82, 0, 172]",172,l,0.4483545905131905,colour,0.06
055,81,1,2,11,20,520,941.9443578421015,942.8073801999453,"[60, 0, 194]",194,l,0.3396440578108013,colour,0.06
055,81,1,2,11,21,521,943.3193318482699,944.2634092720764,"[71, 0, 183]",183,l,0.4207290560625552,colour,0.06
055,81,1,2,11,22,522,944.7742766625779,945.6554013604982,"[91, 0, 163]",163,a,0.3577609701824258,colour,0.06
055,81,1,2,11,23,523,946.1648705979824,946.9514348594566,"[79, 0, 175]",175,l,0.26312609685919597,colour,0.06
055,81,1,2,11,24,524,947.4617548041315,948.4873886597561,"[83, 0, 171]",171,a,0.502254374052427,colour,0.06
055,81,1,2,11,25,525,949.0086004133773,949.5753891985369,"[93, 0, 161]",161,l,0.043411666661995696,colour,0.06
055,81,1,2,11,26,526,950.0867008472378,951.0714633423959,"[88, 0, 166]",166,l,0.4612959736332414,colour,0.06
055,81,1,2,11,27,527,951.5867977333364,953.303404325372,"[81, 0, 173]",173,l,1.1933129688732151,colour,0.06
055,81,1,2,11,28,528,953.8118637419138,955.2474722968764,"[78, 0, 176]",176,l,0.9121770857309457,colour,0.06
055,81,1,2,11,29,529,955.7650000157519,956.6874151262018,"[74, 0, 180]",180,l,0.39902814580273116,colour,0.06
055,81,1,2,11,30,530,957.2024143542658,958.1034089727546,"[73, 0, 181]",181,l,0.37758205386126065,colour,0.06
055,81,1,2,11,31,531,958.6242832004209,959.3114120006394,"[99, 0, 155]",155,l,0.16374459249345819,colour,0.06
055,81,1,2,11,32,532,959.8274446803989,960.4394304357811,"[52, 0, 202]",202,a,0.08875790448655607,colour,0.06
055,81,1,2,11,33,533,960.9524391665582,961.5913655583317,"[9, 0, 245]",245,a,0.11562922399753006,colour,0.06
055,81,1,2,11,34,534,962.1105245870131,962.7193934457719,"[11, 0, 243]",243,a,0.08569260168223991,colour,0.06
055,81,1,2,11,35,535,963.2355612146821,963.7753884896156,"[87, 0, 167]",167,l,0.016520261011464754,colour,0.06
055,81,1,2,11,36,536,964.2825679069138,965.5674291786236,"[65, 0, 189]",189,a,0.7616739869481535,colour,0.06
055,81,1,2,11,37,537,966.0793185992916,967.0634056486924,"[50, 0, 204]",204,a,0.460770189329196,colour,0.06
055,81,1,2,11,38,538,967.5792662177846,968.1354251015327,"[63, 0, 191]",191,l,0.032726232973800506,colour,0.06
055,81,1,2,11,39,539,968.6304256214098,969.3594545076448,"[55, 0, 199]",199,a,0.2046254052693257,colour,0.06
055,81,1,2,11,40,540,969.866382651242,971.0874869636973,"[92, 0, 162]",162,l,0.6977098647366802,colour,0.06
055,81,1,2,11,41,541,971.6008761496341,973.519389428544,"[84, 0, 170]",170,l,1.3952629788000195,colour,0.06
055,81,1,2,11,42,542,974.0383271158171,974.5673771909642,"[72, 0, 182]",182,l,0.0056709874188527465,colour,0.06
055,81,1,2,11,43,543,975.0851439743128,975.6474551251922,"[64, 0, 190]",190,a,0.038899767787370365,colour,0.06
055,81,1,2,11,44,544,976.1633204204372,977.7034450490391,"[76, 0, 178]",178,l,1.0168105254524562,colour,0.06
055,81,1,2,11,45,545,978.2107197770492,979.0153899232137,"[90, 0, 164]",164,l,0.2814576552627841,colour,0.06
055,81,1,2,11,46,546,979.5232215493561,980.0554814687603,"[97, 0, 157]",157,l,0.008914308578823693,colour,0.06
055,81,1,2,11,47,547,980.5701447462525,982.1513770428755,"[85, 0, 169]",169,l,1.0579055904054258,colour,0.06
055,81,1,2,11,48,548,982.663867078576,983.1914028161555,"[75, 0, 179]",179,a,0.004203517517453292,colour,0.06
055,81,1,2,11,49,549,983.7107694016377,984.3674015306424,"[62, 0, 192]",192,a,0.1334456319345918,colour,0.06
055,81,1,2,11,50,550,984.8825929555132,986.0074555032843,"[98, 0, 156]",156,a,0.6014889738871716,colour,0.06
055,81,1,2,12,1,551,991.330652555429,995.6873985846723,"[89, 0, 165]",165,l,3.832600123507291,colour,0.06
055,81,1,2,12,2,552,996.2065044441551,996.8154036290507,"[88, 0, 166]",166,a,0.08557444790494628,colour,0.06
055,81,1,2,12,3,553,997.3314099211348,997.8954181540903,"[87, 0, 167]",167,a,0.04057755141184316,colour,0.06
055,81,1,2,12,4,554,998.4096111795516,999.0794158792341,"[65, 0, 189]",189,l,0.14671705793807632,colour,0.06
055,81,1,2,12,5,555,999.5970834134132,1000.327409234269,"[85, 0, 169]",169,l,0.2069790284949704,colour,0.06
055,81,1,2,12,6,556,1000.846983770396,1001.4474251141364,"[60, 0, 194]",194,a,0.07698269913817057,colour,0.06
055,81,1,2,12,7,557,1001.9563823519202,1002.5594463156485,"[92, 0, 162]",162,a,0.07970181137716281,colour,0.06
055,81,1,2,12,8,558,1003.065862459549,1004.9994450710947,"[55, 0, 199]",199,l,1.4103646067997033,colour,0.06
055,81,1,2,12,9,559,1005.5188856996101,1006.2074047759306,"[72, 0, 182]",182,a,0.16592177274651476,colour,0.06
055,81,1,2,12,10,560,1006.722053481124,1007.9913519312613,"[52, 0, 202]",202,l,0.7459823777571728,colour,0.06
055,81,1,2,12,11,561,1008.503349265713,1009.6874013415945,"[73, 0, 181]",181,l,0.6608675480420061,colour,0.06
055,81,1,2,12,12,562,1010.2064437918852,1010.7753656465502,"[57, 0, 197]",197,a,0.04560184382717125,colour,0.06
055,81,1,2,12,13,563,1011.2845710072688,1012.4713768538313,"[98, 0, 156]",156,l,0.6637831893967814,colour,0.06
055,81,1,2,12,14,564,1012.9876277242292,1014.0393747459675,"[95, 0, 159]",159,l,0.5284006232213869,colour,0.06
055,81,1,2,12,15,565,1014.5500613611912,1015.4394261034759,"[58, 0, 196]",196,a,0.3659572976503114,colour,0.06
055,81,1,2,12,16,566,1015.9563866842254,1017.3434108002002,"[67, 0, 187]",187,l,0.8636773236139561,colour,0.06
055,81,1,2,12,17,567,1017.8626797118923,1019.391391473393,"[81, 0, 173]",173,l,1.0054843044526933,colour,0.06
055,81,1,2,12,18,568,1019.909496570388,1020.4954384765406,"[77, 0, 177]",177,a,0.06307166735496139,colour,0.06
055,81,1,2,12,19,569,1021.0031996042635,1021.6153877964462,"[76, 0, 178]",178,a,0.08890165824777796,colour,0.06
055,81,1,2,12,20,570,1022.1282523796144,1023.4553410233057,"[68, 0, 186]",186,l,0.803729642106191,colour,0.06
055,81,1,2,12,21,571,1023.9726304653996,1025.327360397372,"[82, 0, 172]",172,l,0.8314670287945773,colour,0.06
055,81,1,2,12,22,572,1025.8477356222575,1026.439376872735,"[93, 0, 161]",161,l,0.06841812573475181,colour,0.06
055,81,1,2,12,23,573,1026.958417747639,1027.9513332472088,"[83, 0, 171]",171,a,0.4695564979847404,colour,0.06
055,81,1,2,12,24,574,1028.4584480737758,1029.9353687027942,"[78, 0, 176]",176,a,0.953660876606591,colour,0.06
055,81,1,2,12,25,575,1030.4428553199104,1031.2313742386941,"[97, 0, 157]",157,l,0.2653119417227572,colour,0.06
055,81,1,2,12,26,576,1031.7396792676336,1032.3675173213414,"[50, 0, 204]",204,a,0.10443336599564645,colour,0.06
055,81,1,2,12,27,577,1032.880280292262,1034.071368425528,"[63, 0, 191]",191,l,0.6677078639986576,colour,0.06
055,81,1,2,12,28,578,1034.5833535507554,1035.1753791948504,"[86, 0, 168]",168,l,0.06857093795042601,colour,0.06
055,81,1,2,12,29,579,1035.6850977368013,1036.2553838737404,"[75, 0, 179]",179,a,0.04687514769102563,colour,0.06
055,81,1,2,12,30,580,1036.7632131368082,1038.0473808458519,"[69, 0, 185]",185,l,0.7611470211049891,colour,0.06
055,81,1,2,12,31,581,1038.560104432181,1039.2234177633945,"[91, 0, 163]",163,l,0.14007681570728892,colour,0.06
055,81,1,2,12,32,582,1039.7320295983081,1041.0393322106065,"[99, 0, 155]",155,l,0.783958183012146,colour,0.06
055,81,1,2,12,33,583,1041.560093010652,1043.1513876767167,"[80, 0, 174]",174,l,1.0680983228448895,colour,0.06
055,81,1,2,12,34,584,1043.669574693664,1045.0234322569231,"[94, 0, 160]",160,l,0.8305875708501844,colour,0.06
055,81,1,2,12,35,585,1045.5445439736832,1046.9753424884111,"[84, 0, 170]",170,l,0.9075533346149314,colour,0.06
055,81,1,2,12,36,586,1047.4820985213446,1048.5513732619547,"[71, 0, 183]",183,l,0.5462942249578191,colour,0.06
055,81,1,2,12,37,587,1049.0600177860797,1049.6793692478786,"[66, 0, 188]",188,a,0.09615905703685712,colour,0.06
055,81,1,2,12,38,588,1050.2006684352964,1051.0553463796095,"[90, 0, 164]",164,l,0.33134021041041706,colour,0.06
055,81,1,2,12,39,589,1051.5756877337444,1052.5993826859012,"[62, 0, 192]",192,l,0.5004300797445467,colour,0.06
055,81,1,2,12,40,590,1053.1069114445309,1053.7273388933863,"[79, 0, 175]",175,l,0.09700621961383149,colour,0.06
055,81,1,2,12,41,591,1054.2475372814515,1054.9593484055513,"[54, 0, 200]",200,l,0.1884249471440853,colour,0.06
055,81,1,2,12,42,592,1055.466221410723,1056.5033236657255,"[74, 0, 180]",180,l,0.5136550319330127,colour,0.06
055,81,1,2,12,43,593,1057.0131686322202,1057.6553470097642,"[61, 0, 193]",193,l,0.11883119133926812,colour,0.06
055,81,1,2,12,44,594,1058.1694128229901,1058.7514221776182,"[59, 0, 195]",195,a,0.05863066074743983,colour,0.06
055,81,1,2,12,45,595,1059.2631816291323,1060.7433215547135,"[53, 0, 201]",201,l,0.9568155824345013,colour,0.06
055,81,1,2,12,46,596,1061.2631654814504,1061.8473728901663,"[33, 0, 221]",221,l,0.060887004030519165,colour,0.06
055,81,1,2,12,47,597,1062.3568626076376,1063.183376630128,"[8, 0, 246]",246,l,0.3031042147813423,colour,0.06
055,81,1,2,12,48,598,1063.7006227491693,1064.3673905029536,"[96, 0, 158]",158,l,0.14342726295944885,colour,0.06
055,81,1,2,12,49,599,1064.8881859614376,1066.5273443284605,"[36, 0, 218]",218,a,1.1159116115231882,colour,0.06
055,81,1,2,12,50,600,1067.0443679245545,1067.7113782874294,"[56, 0, 198]",198,a,0.14365451205594582,colour,0.06
055,81,1,2,13,1,601,1088.6374679803266,1090.6073679119545,"[93, 0, 161]",161,l,1.4457260628332733,colour,0.06
055,81,1,2,13,2,602,1091.1226979705898,1091.719344215031,"[79, 0, 175]",175,a,0.07341524278308498,colour,0.06
055,81,1,2,13,3,603,1092.2320118752396,1093.9273310952376,"[45, 0, 209]",209,l,1.171955886107753,colour,0.06
055,81,1,2,13,4,604,1094.4306787855676,1095.6153625903062,"[59, 0, 195]",195,l,0.6615280276491831,colour,0.06
055,81,1,2,13,5,605,1096.13379536711,1096.7193579996383,"[94, 0, 160]",160,l,0.062263495525257895,colour,0.06
055,81,1,2,13,6,606,1097.2294530582913,1097.7913506709556,"[58, 0, 196]",196,a,0.03542801599542145,colour,0.06
055,81,1,2,13,7,607,1098.3106908687587,1099.7833465402982,"[65, 0, 189]",189,l,0.9498949219087081,colour,0.06
055,81,1,2,13,8,608,1100.2826131991933,1101.3753686397795,"[32, 0, 222]",222,l,0.569539798918413,colour,0.06
055,81,1,2,13,9,609,1101.8919007161676,1102.7993429862327,"[72, 0, 182]",182,l,0.3840679084896692,colour,0.06
055,81,1,2,13,10,610,1103.3137900423135,1104.3513042601517,"[60, 0, 194]",194,l,0.514084323989664,colour,0.06
055,81,1,2,13,11,611,1104.8606592823162,1105.7993867031291,"[67, 0, 187]",187,l,0.41597533579260926,colour,0.06
055,81,1,2,13,12,612,1106.3137805900114,1107.3033322515694,"[62, 0, 192]",192,l,0.4661725738333189,colour,0.06
055,81,1,2,13,13,613,1107.8137912238526,1108.7434070192794,"[73, 0, 181]",181,l,0.4063402891806618,colour,0.06
055,81,1,2,13,14,614,1109.251285906932,1110.2553492152983,"[71, 0, 183]",183,l,0.4806739806481346,colour,0.06
055,81,1,2,13,15,615,1110.7668148577577,1112.335329081896,"[64, 0, 190]",190,l,1.044998078032222,colour,0.06
055,81,1,2,13,16,616,1112.8462307369955,1113.3753008982821,"[46, 0, 208]",208,a,0.005726519695599563,colour,0.06
055,81,1,2,13,17,617,1113.8931716569568,1114.5913155398994,"[66, 0, 188]",188,a,0.1750337919802405,colour,0.06
055,81,1,2,13,18,618,1115.1126367826873,1116.4313372959477,"[55, 0, 199]",199,l,0.796553375574149,colour,0.06
055,81,1,2,13,19,619,1116.9275603135611,1117.8633126222885,"[86, 0, 168]",168,l,0.412621737774316,colour,0.06
055,81,1,2,13,20,620,1118.3806721689543,1120.1433256507116,"[76, 0, 178]",178,l,1.2392771509512386,colour,0.06
055,81,1,2,13,21,621,1120.6626382793002,1121.9433519596168,"[70, 0, 184]",184,l,0.7574842540379905,colour,0.06
055,81,1,2,13,22,622,1122.4594984608484,1123.5193126285885,"[77, 0, 177]",177,l,0.5365260584221687,colour,0.06
055,81,1,2,13,23,623,1124.0376185870045,1124.8072750430838,"[89, 0, 165]",165,l,0.2466901188781776,colour,0.06
055,81,1,2,13,24,624,1125.3187942485893,1125.943329510399,"[80, 0, 174]",174,a,0.10114514640008565,colour,0.06
055,81,1,2,13,25,625,1126.4595311500598,1127.863297656142,"[88, 0, 166]",166,l,0.880479972147441,colour,0.06
055,81,1,2,13,26,626,1128.381323590107,1129.6793196232938,"[87, 0, 167]",167,l,0.7745996162375377,colour,0.06
055,81,1,2,13,27,627,1130.1938860146875,1131.6472987683628,"[97, 0, 157]",157,l,0.930356619603117,colour,0.06
055,81,1,2,13,28,628,1132.1625890485593,1132.7593042160406,"[51, 0, 203]",203,a,0.0733900366431044,colour,0.06
055,81,1,2,13,29,629,1133.2718879870663,1135.0153237570994,"[54, 0, 200]",200,l,1.2199613715929445,colour,0.06
055,81,1,2,13,30,630,1135.5139322994582,1136.711290065945,"[90, 0, 164]",164,l,0.6740105802782637,colour,0.06
055,81,1,2,13,31,631,1137.2315321709102,1137.831316185806,"[61, 0, 193]",193,a,0.07635805950485519,colour,0.06
055,81,1,2,13,32,632,1138.3408724632354,1138.983304477555,"[91, 0, 163]",163,l,0.13138621161488118,colour,0.06
055,81,1,2,13,33,633,1139.5004052674522,1140.079474168433,"[81, 0, 173]",173,a,0.0557599178282544,colour,0.06
055,81,1,2,13,34,634,1140.5971936902715,1141.1193136525872,"[96, 0, 158]",158,a,0.0019014881072507706,colour,0.06
055,81,1,2,13,35,635,1141.630622150522,1142.375324529039,"[50, 0, 204]",204,a,0.21935524271975737,colour,0.06
055,81,1,2,13,36,636,1142.8826669985465,1144.2872940579655,"[75, 0, 179]",179,l,0.8815283899893984,colour,0.06
055,81,1,2,13,37,637,1144.804568140069,1146.071290837881,"[84, 0, 170]",170,l,0.7426815550934407,colour,0.06
055,81,1,2,13,38,638,1146.5744419990988,1147.7193123135112,"[68, 0, 186]",186,l,0.6215573928020603,colour,0.06
055,81,1,2,13,39,639,1148.2317428784772,1149.5352799299253,"[99, 0, 155]",155,l,0.779132782790839,colour,0.06
055,81,1,2,13,40,640,1150.0462654742041,1150.8793193082165,"[52, 0, 202]",202,a,0.30971688779754913,colour,0.06
055,81,1,2,13,41,641,1151.3776238015234,1153.3352885157656,"[53, 0, 201]",201,l,1.4344478910315956,colour,0.06
055,81,1,2,13,42,642,1153.84625830621,1155.375279236756,"[78, 0, 176]",176,l,1.0056449935873388,colour,0.06
055,81,1,2,13,43,643,1155.8931736261839,1156.6632865496867,"[98, 0, 156]",156,l,0.24698510947200703,colour,0.06
055,81,1,2,13,44,644,1157.1744099400385,1158.6473074329733,"[83, 0, 171]",171,l,0.9496188359189546,colour,0.06
055,81,1,2,13,45,645,1159.1587297523802,1159.7752703358383,"[63, 0, 191]",191,a,0.09309336038859328,colour,0.06
055,81,1,2,13,46,646,1160.2838439676962,1160.9592853902068,"[56, 0, 198]",198,a,0.15223523314125487,colour,0.06
055,81,1,2,13,47,647,1161.4712500354435,1162.0152705879009,"[74, 0, 180]",180,a,0.02064697857349529,colour,0.06
055,81,1,2,13,48,648,1162.5337994631082,1163.7273195949347,"[57, 0, 197]",197,l,0.6702446255767427,colour,0.06
055,81,1,2,13,49,649,1164.2382740253888,1164.9192993953657,"[95, 0, 159]",159,l,0.15830715570700704,colour,0.06
055,81,1,2,13,50,650,1165.4257293238734,1165.9992820188854,"[69, 0, 185]",185,a,0.05037958870161674,colour,0.06
055,81,1,2,14,1,651,1174.987423712042,1175.5433399867034,"[51, 0, 203]",203,a,0.03186489194558817,colour,0.06
055,81,1,2,14,2,652,1176.0507052992725,1177.4952777874023,"[96, 0, 158]",158,l,0.9212855603473145,colour,0.06
055,81,1,2,14,3,653,1178.0038447238803,1178.7433262808627,"[99, 0, 155]",155,l,0.2162001430442615,colour,0.06
055,81,1,2,14,4,654,1179.2538128223605,1179.8313224873418,"[70, 0, 184]",184,a,0.054185321838303935,colour,0.06
055,81,1,2,14,5,655,1180.3476344038572,1180.9032946786683,"[78, 0, 176]",176,a,0.032373347028624266,colour,0.06
055,81,1,2,14,6,656,1181.4100507115982,1182.583310227703,"[66, 0, 188]",188,l,0.6501143728528405,colour,0.06
055,81,1,2,14,7,657,1183.0975119177747,1183.6392875484817,"[95, 0, 159]",159,l,0.01838709067669697,colour,0.06
055,81,1,2,14,8,658,1184.1600487423711,1185.1272622509678,"[22, 0, 232]",232,l,0.4439643900259398,colour,0.06
055,81,1,2,14,9,659,1185.6443886408524,1186.5592773557473,"[74, 0, 180]",180,l,0.3915801255898259,colour,0.06
055,81,1,2,14,10,660,1187.0666280960213,1187.6072938689213,"[68, 0, 186]",186,a,0.017255571347050136,colour,0.06
055,81,1,2,14,11,661,1188.1136489667042,1189.8072742553923,"[9, 0, 245]",245,l,1.1703426932108414,colour,0.06
055,81,1,2,14,12,662,1190.3166269144822,1191.4952801504805,"[65, 0, 189]",189,l,0.6552264929123339,colour,0.06
055,81,1,2,14,13,663,1192.0041534990814,1192.7192792304559,"[89, 0, 165]",165,l,0.1921554557120544,colour,0.06
055,81,1,2,14,14,664,1193.238556019067,1194.319289312909,"[79, 0, 175]",175,l,0.5557421947596595,colour,0.06
055,81,1,2,14,15,665,1194.8339360488717,1195.4073012732224,"[67, 0, 187]",187,a,0.049975108937360346,colour,0.06
055,81,1,2,14,16,666,1195.927637901208,1196.9512682626337,"[85, 0, 169]",169,l,0.5003914828448615,colour,0.06
055,81,1,2,14,17,667,1197.4588773658324,1198.0392727398757,"[88, 0, 166]",166,l,0.0571013570370269,colour,0.06
055,81,1,2,14,18,668,1198.552645778127,1199.0792670054761,"[69, 0, 185]",185,a,0.003244502699089935,colour,0.06
055,81,1,2,14,19,669,1199.5993807166706,1200.5752946755165,"[61, 0, 193]",193,a,0.45242735118154087,colour,0.06
055,81,1,2,14,20,670,1201.0838403443158,1202.5112903810223,"[84, 0, 170]",170,l,0.9041595643138862,colour,0.06
055,81,1,2,14,21,671,1203.0213440858497,1203.5512803143174,"[93, 0, 161]",161,a,0.006604008405702189,colour,0.06
055,81,1,2,14,22,672,1204.0838462520042,1204.631323590107,"[86, 0, 168]",168,l,0.02422073645720957,colour,0.06
055,81,1,2,14,23,673,1205.147616995866,1206.3592284400838,"[92, 0, 162]",162,l,0.6882607133957208,colour,0.06
055,81,1,2,14,24,674,1206.8662743436144,1208.407268584011,"[54, 0, 200]",200,a,1.0175615896259842,colour,0.06
055,81,1,2,14,25,675,1208.928835192808,1210.3832609181954,"[63, 0, 191]",191,l,0.9288749712504796,colour,0.06
055,81,1,2,14,26,676,1210.8997362807677,1212.0153119417228,"[57, 0, 197]",197,l,0.5925573360909766,colour,0.06
055,81,1,2,14,27,677,1212.5247681822875,1213.1752472564658,"[98, 0, 156]",156,l,0.1271724541002186,colour,0.06
055,81,1,2,14,28,678,1213.6817815541472,1214.2795443517753,"[76, 0, 178]",178,a,0.07451879905420355,colour,0.06
055,81,1,2,14,29,679,1214.7908938096843,1215.3272379112932,"[80, 0, 174]",174,a,0.013334047507669311,colour,0.06
055,81,1,2,14,30,680,1215.837849695792,1217.399319197939,"[90, 0, 164]",164,l,1.0381140451754618,colour,0.06
055,81,1,2,14,31,681,1217.9160265357605,1218.615271218052,"[83, 0, 171]",171,l,0.17594081913557602,colour,0.06
055,81,1,2,14,32,682,1219.134739021938,1220.911278329335,"[87, 0, 167]",167,l,1.2532787672935228,colour,0.06
055,81,1,2,14,33,683,1221.4316452834573,1222.0472512705455,"[60, 0, 194]",194,a,0.09232102853638935,colour,0.06
055,81,1,2,14,34,684,1222.5566251973141,1223.7912585110098,"[62, 0, 192]",192,l,0.7113436289910169,colour,0.06
055,81,1,2,14,35,685,1224.306614169629,1225.479249046104,"[81, 0, 173]",173,l,0.6493156533288129,colour,0.06
055,81,1,2,14,36,686,1225.9941112157867,1226.5672732156381,"[56, 0, 198]",198,a,0.05003221659353585,colour,0.06
055,81,1,2,14,37,687,1227.087838668107,1229.0713341609335,"[53, 0, 201]",201,l,1.4601971435149608,colour,0.06
055,81,1,2,14,38,688,1229.5877728958367,1230.7032181937902,"[52, 0, 202]",202,a,0.5920626656115928,colour,0.06
055,81,1,2,14,39,689,1231.2128095235093,1232.439263051263,"[71, 0, 183]",183,l,0.7031027969351271,colour,0.06
055,81,1,2,14,40,690,1232.9483132366877,1233.7032457630048,"[94, 0, 160]",160,l,0.23158258319017477,colour,0.06
055,81,1,2,14,41,691,1234.2139134736244,1234.7592518345336,"[58, 0, 196]",196,a,0.02200653469117242,colour,0.06
055,81,1,2,14,42,692,1235.2764936212698,1235.8232439198036,"[73, 0, 181]",181,a,0.023646115259907674,colour,0.06
055,81,1,2,14,43,693,1236.340822444803,1237.7992957247225,"[55, 0, 199]",199,l,0.935086709119787,colour,0.06
055,81,1,2,14,44,694,1238.309699164729,1239.6232367518096,"[50, 0, 204]",204,l,0.7903286407890846,colour,0.06
055,81,1,2,14,45,695,1240.1252945967462,1240.8312248135517,"[82, 0, 172]",172,l,0.18258224290548242,colour,0.06
055,81,1,2,14,46,696,1241.3327726280222,1242.3832467397406,"[91, 0, 163]",163,l,0.5272584700505831,colour,0.06
055,81,1,2,14,47,697,1242.8951830280748,1243.4312506498427,"[77, 0, 177]",177,a,0.012748792465572478,colour,0.06
055,81,1,2,14,48,698,1243.942049905003,1245.2312344233906,"[75, 0, 179]",179,l,0.7661874612058455,colour,0.06
055,81,1,2,14,49,699,1245.7389601049836,1246.431247105229,"[5, 0, 249]",249,a,0.16728763040009653,colour,0.06
055,81,1,2,14,50,700,1246.94374580554,1248.271253501287,"[72, 0, 182]",182,l,0.8044893708829477,colour,0.06
055,81,1,2,15,1,701,1253.3795048096435,1283.1752315026315,"[87, 0, 167]",167,l,29.27158511955713,colour,0.06
055,81,1,2,15,2,702,1283.6927407107469,1284.8392301257445,"[83, 0, 171]",171,l,0.623608542358852,colour,0.06
055,81,1,2,15,3,703,1285.349090058382,1286.3032042516425,"[86, 0, 168]",168,l,0.4339591282441688,colour,0.06
055,81,1,2,15,4,704,1286.8149889092965,1287.7912309417952,"[71, 0, 183]",183,l,0.4528952401378774,colour,0.06
055,81,1,2,15,5,705,1288.2993130539435,1288.9432093873947,"[75, 0, 179]",179,l,0.12054835955495946,colour,0.06
055,81,1,2,15,6,706,1289.4555682724022,1290.1032207144017,"[95, 0, 159]",159,l,0.1243241603988281,colour,0.06
055,81,1,2,15,7,707,1290.6117967093378,1292.2312277280107,"[80, 0, 174]",174,l,1.096526515280857,colour,0.06
055,81,1,2,15,8,708,1292.7525422754188,1294.0232247001222,"[72, 0, 182]",182,l,0.7474754476425005,colour,0.06
055,81,1,2,15,9,709,1294.5336616170352,1295.7672098852163,"[61, 0, 193]",193,l,0.7101640604560089,colour,0.06
055,81,1,2,15,10,710,1296.2836592539606,1297.4551783649404,"[57, 0, 197]",197,l,0.6481656232390378,colour,0.06
055,81,1,2,15,11,711,1297.9711216416727,1299.1832490240486,"[77, 0, 177]",177,l,0.6887817715505662,colour,0.06
055,81,1,2,15,12,712,1299.6899353462504,1300.303205039334,"[51, 0, 203]",203,a,0.08986776229357929,colour,0.06
055,81,1,2,15,13,713,1300.814884933974,1302.6872107201707,"[68, 0, 186]",186,l,1.3490223168882949,colour,0.06
055,81,1,2,15,14,714,1303.2057076938581,1303.8232261967387,"[88, 0, 166]",166,a,0.09435721195040969,colour,0.06
055,81,1,2,15,15,715,1304.3306490108153,1305.7031866861143,"[78, 0, 176]",176,l,0.8619321923324605,colour,0.06
055,81,1,2,15,16,716,1306.2244622427788,1307.519216924029,"[58, 0, 196]",196,l,0.7713393597005052,colour,0.06
055,81,1,2,15,17,717,1308.0369766181539,1308.639190268539,"[97, 0, 157]",157,l,0.09162982894486049,colour,0.06
055,81,1,2,15,18,718,1309.1384533828204,1309.66327473431,"[62, 0, 192]",192,a,0.0015805036819074303,colour,0.06
055,81,1,2,15,19,719,1310.1851662659938,1311.463190372513,"[67, 0, 187]",187,l,0.7546985818407848,colour,0.06
055,81,1,2,15,20,720,1311.982166262842,1313.015306821726,"[25, 0, 229]",229,l,0.5099390956675052,colour,0.06
055,81,1,2,15,21,721,1313.5308913048248,1314.6471920361182,"[59, 0, 195]",195,l,0.6054569715452089,colour,0.06
055,81,1,2,15,22,722,1315.1590889398612,1316.1271826940938,"[70, 0, 184]",184,l,0.44544879530440085,colour,0.06
055,81,1,2,15,23,723,1316.6434465614075,1317.4471872311988,"[60, 0, 194]",194,l,0.28065578496534727,colour,0.06
055,81,1,2,15,24,724,1317.9558841368307,1318.6951955523764,"[63, 0, 191]",191,l,0.21626276454844628,colour,0.06
055,81,1,2,15,25,725,1319.2059365183377,1319.8711796945645,"[17, 0, 237]",237,l,0.14185739311869838,colour,0.06
055,81,1,2,15,26,726,1320.377817573717,1321.335207383505,"[66, 0, 188]",188,l,0.43406034664440085,colour,0.06
055,81,1,2,15,27,727,1321.8464623183972,1322.5112238210604,"[64, 0, 190]",190,l,0.14161517787579214,colour,0.06
055,81,1,2,15,28,728,1323.0184040260501,1323.935258032092,"[79, 0, 175]",175,l,0.3934162352743442,colour,0.06
055,81,1,2,15,29,729,1324.4566186594711,1325.551193668216,"[73, 0, 181]",181,l,0.5712290040755761,colour,0.06
055,81,1,2,15,30,730,1326.0660290563756,1326.7272132565377,"[91, 0, 163]",163,l,0.13790042314940365,colour,0.06
055,81,1,2,15,31,731,1327.2378392194914,1328.8391722303968,"[94, 0, 160]",160,l,1.0783142921973194,colour,0.06
055,81,1,2,15,32,732,1329.3472173210284,1330.4391984605318,"[56, 0, 198]",198,l,0.5686032333142066,colour,0.06
055,81,1,2,15,33,733,1330.9571479883925,1331.911194046308,"[92, 0, 162]",162,l,0.43071147477894556,colour,0.06
055,81,1,2,15,34,734,1332.4259475145154,1333.3831986905388,"[85, 0, 169]",169,l,0.43399063592005405,colour,0.06
055,81,1,2,15,35,735,1333.8946911145176,1334.7432191547741,"[54, 0, 200]",200,a,0.32518479250575183,colour,0.06
055,81,1,2,15,36,736,1335.2557678735138,1337.1432153738533,"[89, 0, 165]",165,l,1.3640593541567796,colour,0.06
055,81,1,2,15,37,737,1337.6619935535273,1338.2072035206656,"[84, 0, 170]",170,a,0.021815913267346332,colour,0.06
055,81,1,2,15,38,738,1338.7244370366388,1339.2951977579105,"[52, 0, 202]",202,a,0.04744071043387521,colour,0.06
055,81,1,2,15,39,739,1339.802583944318,1340.3911697381373,"[96, 0, 158]",158,l,0.06519528456192347,colour,0.06
055,81,1,2,15,40,740,1340.9119648027772,1341.4711972600926,"[65, 0, 189]",189,a,0.035883301879948704,colour,0.06
055,81,1,2,15,41,741,1341.9901105289173,1342.6312030732552,"[93, 0, 161]",161,a,0.11774023813268286,colour,0.06
055,81,1,2,15,42,742,1343.1463511750771,1344.4951501813266,"[76, 0, 178]",178,a,0.8254719061842479,colour,0.06
055,81,1,2,15,43,743,1345.005718642773,1346.2471757308958,"[74, 0, 180]",180,l,0.7180693357840937,colour,0.06
055,81,1,2,15,44,744,1346.7556989504774,1347.5111682887837,"[98, 0, 156]",156,l,0.23213751208822941,colour,0.06
055,81,1,2,15,45,745,1348.021934067041,1350.2151560575076,"[53, 0, 201]",201,l,1.6704592716087063,colour,0.06
055,81,1,2,15,46,746,1350.7162348014826,1351.4791946953665,"[99, 0, 155]",155,l,0.2397422829817515,colour,0.06
055,81,1,2,15,47,747,1351.9901967811747,1352.527180488556,"[55, 0, 199]",199,a,0.01361367811114178,colour,0.06
055,81,1,2,15,48,748,1353.037107768847,1353.7271703273327,"[50, 0, 204]",204,a,0.16676854147954145,colour,0.06
055,81,1,2,15,49,749,1354.2402381349966,1355.1431913492524,"[90, 0, 164]",164,l,0.378648194768175,colour,0.06
055,81,1,2,15,50,750,1355.6630774175028,1356.3991510257292,"[44, 0, 210]",210,a,0.21273587432006025,colour,0.06
055,81,1,2,16,1,751,1361.7569041189963,1364.151216353741,"[66, 0, 188]",188,l,1.870179325924255,colour,0.06
055,81,1,2,16,2,752,1364.6514593566753,1365.223215720438,"[75, 0, 179]",179,a,0.04845446983745205,colour,0.06
055,81,1,2,16,3,753,1365.731721610795,1366.4151978839436,"[67, 0, 187]",187,a,0.16009482234585448,colour,0.06
055,81,1,2,16,4,754,1366.934857490789,1367.6552044375385,"[70, 0, 184]",184,a,0.19699779131042305,colour,0.06
055,81,1,2,16,5,755,1368.169165881598,1368.79919844478,"[91, 0, 163]",163,l,0.10662275547292666,colour,0.06
055,81,1,2,16,6,756,1369.3097743893013,1370.871180482256,"[60, 0, 194]",194,a,1.0382900943041022,colour,0.06
055,81,1,2,16,7,757,1371.387968164643,1372.5671692403157,"[99, 0, 155]",155,l,0.6558200187137118,colour,0.06
055,81,1,2,16,8,758,1373.07548844771,1374.4552193249147,"[76, 0, 178]",178,l,0.8567802938414388,colour,0.06
055,81,1,2,16,9,759,1374.9661580015309,1375.5991306245123,"[42, 0, 212]",212,a,0.10972192902772804,colour,0.06
055,81,1,2,16,10,760,1376.1067160969542,1377.1511501876266,"[55, 0, 199]",199,a,0.5211562213480647,colour,0.06
055,81,1,2,16,11,761,1377.6691729708255,1378.3111579700235,"[72, 0, 182]",182,a,0.11861181916174246,colour,0.06
055,81,1,2,16,12,762,1378.8255427984477,1379.671165831187,"[97, 0, 157]",157,l,0.33253828970191535,colour,0.06
055,81,1,2,16,13,763,1380.1807835485815,1380.7431714994163,"[88, 0, 166]",166,a,0.03769144850230077,colour,0.06
055,81,1,2,16,14,764,1381.2601096309481,1381.815775025756,"[29, 0, 225]",225,a,0.03217642406889354,colour,0.06
055,81,1,2,16,15,765,1382.3131114457901,1383.9591384856758,"[82, 0, 172]",172,l,1.1226660690699646,colour,0.06
055,81,1,2,16,16,766,1384.4693217658132,1385.9671201671154,"[96, 0, 158]",158,l,0.9744433381747513,colour,0.06
055,81,1,2,16,17,767,1386.48497241503,1387.6391166193498,"[78, 0, 176]",176,a,0.6310553810362762,colour,0.06
055,81,1,2,16,18,768,1388.1567739135353,1389.535204311509,"[85, 0, 169]",169,l,0.8550776979245711,colour,0.06
055,81,1,2,16,19,769,1390.0473733627805,1390.8791235667923,"[80, 0, 174]",174,a,0.3083463039911294,colour,0.06
055,81,1,2,16,20,770,1391.3787817085322,1392.7751718743566,"[69, 0, 185]",185,l,0.8730291950087121,colour,0.06
055,81,1,2,16,21,771,1393.2851491730798,1394.5831463878021,"[77, 0, 177]",177,l,0.7746945331055031,colour,0.06
055,81,1,2,16,22,772,1395.0975958069575,1395.8551521348018,"[93, 0, 161]",161,l,0.23270780098755495,colour,0.06
055,81,1,2,16,23,773,1396.3647757598847,1397.3911724950594,"[92, 0, 162]",162,l,0.5030846012559778,colour,0.06
055,81,1,2,16,24,774,1397.9141801860824,1399.1271807248631,"[87, 0, 167]",167,l,0.6896265710493026,colour,0.06
055,81,1,2,16,25,775,1399.6484917276575,1401.079148064011,"[71, 0, 183]",183,l,0.9072650394009543,colour,0.06
055,81,1,2,16,26,776,1401.585970263055,1402.5991203845188,"[58, 0, 196]",196,l,0.5018747065842035,colour,0.06
055,81,1,2,16,27,777,1403.1207633994236,1403.711133709112,"[57, 0, 197]",197,a,0.06696798505072366,colour,0.06
055,81,1,2,16,28,778,1404.2301241717396,1404.9831552099495,"[95, 0, 159]",159,l,0.2297145719821856,colour,0.06
055,81,1,2,16,29,779,1405.4958138117036,1406.7352173871914,"[83, 0, 171]",171,a,0.7147767838832806,colour,0.06
055,81,1,2,16,30,780,1407.2470689986512,1408.4071819379096,"[65, 0, 189]",189,l,0.6367484238289762,colour,0.06
055,81,1,2,16,31,781,1408.9064828613991,1409.975156199289,"[50, 0, 204]",204,l,0.5453470255160937,colour,0.06
055,81,1,2,16,32,782,1410.484712476722,1411.5911253123195,"[59, 0, 195]",195,l,0.5835914336967107,colour,0.06
055,81,1,2,16,33,783,1412.106056011191,1413.711123862966,"[52, 0, 202]",202,l,1.0825461666208867,colour,0.06
055,81,1,2,16,34,784,1414.230295888563,1415.351136087942,"[53, 0, 201]",201,l,0.5978384160443966,colour,0.06
055,81,1,2,16,35,785,1415.8708433501452,1417.0871533762038,"[84, 0, 170]",170,l,0.6929478737038153,colour,0.06
055,81,1,2,16,36,786,1417.6063754202332,1418.2231058374236,"[81, 0, 173]",173,a,0.09345491094063618,colour,0.06
055,81,1,2,16,37,787,1418.7312836541314,1420.559133601986,"[54, 0, 200]",200,l,1.3043566448104684,colour,0.06
055,81,1,2,16,38,788,1421.0750426141276,1421.6631345251626,"[94, 0, 160]",160,l,0.06482546324332361,colour,0.06
055,81,1,2,16,39,789,1422.1843793618427,1423.4231035531193,"[56, 0, 198]",198,l,0.7153710973798297,colour,0.06
055,81,1,2,16,40,790,1423.934482155626,1424.47116063242,"[90, 0, 164]",164,a,0.013350589037145255,colour,0.06
055,81,1,2,16,41,791,1424.9820410198372,1425.695153410863,"[61, 0, 193]",193,a,0.18987311860109912,colour,0.06
055,81,1,2,16,42,792,1426.2007598075506,1427.4711370016666,"[63, 0, 191]",191,l,0.7471753370555234,colour,0.06
055,81,1,2,16,43,793,1427.9695557102932,1429.0711187272136,"[64, 0, 190]",190,l,0.5782331599366444,colour,0.06
055,81,1,2,16,44,794,1429.581773440921,1430.2072291206496,"[98, 0, 156]",156,l,0.10207383508168277,colour,0.06
055,81,1,2,16,45,795,1430.7223823424683,1431.4950792890595,"[86, 0, 168]",168,a,0.2493592126884323,colour,0.06
055,81,1,2,16,46,796,1432.0321748486822,1433.2631367307004,"[74, 0, 180]",180,l,0.7049196081716218,colour,0.06
055,81,1,2,16,47,797,1433.769330745501,1435.0711088810676,"[51, 0, 203]",203,l,0.7784258293613675,colour,0.06
055,81,1,2,16,48,798,1435.5817872255284,1436.2071086037977,"[89, 0, 165]",165,l,0.10070679588898201,colour,0.06
055,81,1,2,16,49,799,1436.7237533201187,1437.9431243166764,"[79, 0, 175]",175,l,0.6961774102601339,colour,0.06
055,81,1,2,16,50,800,1438.4580172063397,1439.4470938897139,"[31, 0, 223]",223,l,0.465719257172168,colour,0.06
