id,age,condition,counterbalance,block,trialinblock,trial,tstart,tend,trialstim,trialintensity,response,RT,trialtype,colourfreq
79,70,1,2,Practice,1,NA,6.3015613704919815e-06,4.790676635806449,"[58, 0, 196]",196,a,4.26771185582038,colour,0.5
79,70,1,2,Practice,2,NA,5.298154200310819,6.334679105901159,"[6, 0, 248]",248,a,0.514330095029436,colour,0.5
79,70,1,2,Practice,3,NA,6.845099883386865,8.478670863551088,"[78, 0, 176]",176,a,1.111351357307285,colour,0.5
79,70,1,2,Practice,4,NA,8.985860526445322,18.646673456649296,"[87, 0, 167]",167,l,9.138509024167433,colour,0.5
79,70,1,2,Practice,5,NA,19.158484511310235,20.686640972155146,"[14, 0, 240]",240,a,1.00583365035709,colour,0.5
79,70,1,2,Practice,6,NA,21.205846883705817,22.302668071934022,"[30, 0, 224]",224,a,0.5747134177945554,colour,0.5
79,70,1,2,Practice,7,NA,22.815082105225883,23.97468277660664,"[13, 0, 241]",241,a,0.6373542670626193,colour,0.5
79,70,1,2,Practice,8,NA,24.487122803693637,25.590646861004643,"[44, 0, 210]",210,a,0.5812028221553192,colour,0.5
79,70,1,2,Practice,9,NA,26.096545889857225,27.398688176996075,"[53, 0, 201]",201,a,0.7797907257918268,colour,0.5
79,70,1,2,Practice,10,NA,27.909219625289552,28.958663081168197,"[63, 0, 191]",191,a,0.5271241900045425,colour,0.5
79,70,1,2,1,1,1,6.498409649007954,7.871997611713596,"[49, 0, 205]",205,a,0.8504825797863305,colour,0.5
79,70,1,2,1,2,2,8.389968421426602,9.440001858980395,"[44, 0, 210]",210,a,0.527760645491071,colour,0.5
79,70,1,2,1,3,3,9.952569886110723,10.968011809163727,"[48, 0, 206]",206,a,0.4931222633458674,colour,0.5
79,70,1,2,1,4,4,11.483890901436098,12.46395952522289,"[45, 0, 209]",209,a,0.4578332470264286,colour,0.5
79,70,1,2,1,5,5,12.984011812251993,13.895983241149224,"[0, 0, 254]",254,a,0.3896675229771063,colour,0.5
79,70,1,2,1,6,6,14.406035772291943,15.280011279857717,"[36, 0, 218]",218,a,0.35159637697506696,colour,0.5
79,70,1,2,1,7,7,15.796740686171688,17.039978543296456,"[63, 0, 191]",191,a,0.7208973234519362,colour,0.5
79,70,1,2,1,8,8,17.54686927702278,18.824005085392855,"[69, 0, 185]",185,a,0.7548425362911075,colour,0.5
79,70,1,2,1,9,9,19.343940006219782,20.88799919025041,"[84, 0, 170]",170,l,1.021891548880376,colour,0.5
79,70,1,2,1,10,10,21.40654698468279,24.047983467928134,"[66, 0, 188]",188,a,2.119089254178107,colour,0.5
79,70,1,2,1,11,11,24.563079200102948,25.84800095472019,"[61, 0, 193]",193,a,0.7626343901501969,colour,0.5
79,70,1,2,1,12,12,26.36010306177195,27.57596427341923,"[92, 0, 162]",162,l,0.6937396565917879,colour,0.5
79,70,1,2,1,13,13,28.09463258483447,29.143990576150827,"[87, 0, 167]",167,l,0.5390321308514103,colour,0.5
79,70,1,2,1,14,14,29.6608499516733,30.343970332411118,"[96, 0, 158]",158,l,0.16104569321032614,colour,0.5
79,70,1,2,1,15,15,30.864045068621635,31.967955489177257,"[41, 0, 213]",213,a,0.581535228411667,colour,0.5
79,70,1,2,1,16,16,32.47352211177349,33.55200227489695,"[62, 0, 192]",192,a,0.5560498326085508,colour,0.5
79,70,1,2,1,17,17,34.067493428708985,35.15196990070399,"[97, 0, 157]",157,l,0.5622659076470882,colour,0.5
79,70,1,2,1,18,18,35.661335564102046,36.64001272909809,"[8, 0, 246]",246,a,0.45662650221493095,colour,0.5
79,70,1,2,1,19,19,37.14583417028189,38.135960051440634,"[7, 0, 247]",247,a,0.4678448182530701,colour,0.5
79,70,1,2,1,20,20,38.64675852737855,40.3360571739031,"[60, 0, 194]",194,a,1.167838359135203,colour,0.5
79,70,1,2,1,21,21,40.84930025343783,41.960002158302814,"[30, 0, 224]",224,a,0.588468891219236,colour,0.5
79,70,1,2,1,22,22,42.47437203186564,43.680017266306095,"[18, 0, 236]",236,a,0.6833251807838678,colour,0.5
79,70,1,2,1,23,23,44.19324892421719,46.127976000658236,"[15, 0, 239]",239,a,1.4124790966743603,colour,0.5
79,70,1,2,1,24,24,46.64655609044712,47.84799977322109,"[29, 0, 225]",225,a,0.6789948414079845,colour,0.5
79,70,1,2,1,25,25,48.36550584435463,49.551971948705614,"[25, 0, 229]",229,a,0.6643488815752789,colour,0.5
79,70,1,2,1,26,26,50.068780518253334,51.35198589088395,"[50, 0, 204]",204,a,0.7733848169445992,colour,0.5
79,70,1,2,1,27,27,51.86897129728459,53.248000245774165,"[14, 0, 240]",240,a,0.8567994794575498,colour,0.5
79,70,1,2,1,28,28,53.75975064816885,54.96796336607076,"[77, 0, 177]",177,l,0.6859812797047198,colour,0.5
79,70,1,2,1,29,29,55.4785822480917,56.78395801293664,"[76, 0, 178]",178,l,0.7834318343084306,colour,0.5
79,70,1,2,1,30,30,57.29132136201952,58.503996751620434,"[72, 0, 182]",182,l,0.6904506467981264,colour,0.5
79,70,1,2,1,31,31,59.010127755929716,60.14400317915715,"[83, 0, 171]",171,l,0.6117318127071485,colour,0.5
79,70,1,2,1,32,32,60.65093723591417,61.807978694560006,"[78, 0, 176]",176,l,0.6348056880524382,colour,0.5
79,70,1,2,1,33,33,62.322924371343106,63.52800640556961,"[47, 0, 207]",207,a,0.6827875806484371,colour,0.5
79,70,1,2,1,34,34,64.0417563652154,65.22395947796758,"[13, 0, 241]",241,a,0.6598259514430538,colour,0.5
79,70,1,2,1,35,35,65.72938904212788,66.81602142844349,"[5, 0, 249]",249,a,0.5644293050281703,colour,0.5
79,70,1,2,1,36,36,67.31089591362979,68.48798690224066,"[81, 0, 173]",173,l,0.6551088551059365,colour,0.5
79,70,1,2,1,37,37,68.99851835053414,70.1280023882864,"[10, 0, 244]",244,a,0.6072175472509116,colour,0.5
79,70,1,2,1,38,38,70.63925654441118,71.84798717009835,"[3, 0, 251]",251,a,0.6864570459583774,colour,0.5
79,70,1,2,1,39,39,72.35815667361021,73.4639551929431,"[65, 0, 189]",189,l,0.5835119426483288,colour,0.5
79,70,1,2,1,40,40,73.98325208295137,75.12797324371058,"[99, 0, 155]",155,l,0.6224377348553389,colour,0.5
79,70,1,2,1,41,41,75.63966535683721,76.68796784011647,"[80, 0, 174]",174,l,0.5260615928564221,colour,0.5
79,70,1,2,1,42,42,77.20233141223434,78.31997643224895,"[90, 0, 164]",164,l,0.5994107272708789,colour,0.5
79,70,1,2,1,43,43,78.83887790061999,79.97597144148313,"[38, 0, 216]",216,a,0.6147687610937282,colour,0.5
79,70,1,2,1,44,44,80.49536009761505,81.57607848884072,"[21, 0, 233]",233,a,0.5584282699273899,colour,0.5
79,70,1,2,1,45,45,82.08926170377526,83.4480158421211,"[52, 0, 202]",202,a,0.836467167828232,colour,0.5
79,70,1,2,1,46,46,83.96440772223286,85.12802838219795,"[26, 0, 228]",228,a,0.641204901621677,colour,0.5
79,70,1,2,1,47,47,85.63634523306973,87.24001501349267,"[71, 0, 183]",183,l,1.081377689843066,colour,0.5
79,70,1,2,1,48,48,87.74588489765301,89.01603269239422,"[73, 0, 181]",181,l,0.7478750025620684,colour,0.5
79,70,1,2,1,49,49,89.5273502577329,90.71998675109353,"[6, 0, 248]",248,a,0.6705688951769844,colour,0.5
79,70,1,2,1,50,50,91.23058318393305,92.40802154503763,"[42, 0, 212]",212,a,0.6551123998360708,colour,0.5
79,70,1,2,2,1,51,106.26225078396965,107.30398509372026,"[45, 0, 209]",209,a,0.5186084466986358,colour,0.5
79,70,1,2,2,2,52,107.81008616567124,109.04001438326668,"[24, 0, 230]",230,a,0.7077814562944695,colour,0.5
79,70,1,2,2,3,53,109.56021278724074,110.97599467844702,"[0, 0, 254]",254,a,0.8936532468069345,colour,0.5
79,70,1,2,2,4,54,111.48221587343141,113.07999095728155,"[94, 0, 160]",160,l,1.0755487655987963,colour,0.5
79,70,1,2,2,5,55,113.59172403044067,114.83998618391342,"[62, 0, 192]",192,l,0.7329442920163274,colour,0.5
79,70,1,2,2,6,56,115.35055307834409,116.54400010721292,"[48, 0, 206]",206,a,0.6712301629595459,colour,0.5
79,70,1,2,2,7,57,117.05379112449009,118.1679813254159,"[41, 0, 213]",213,a,0.5919544304488227,colour,0.5
79,70,1,2,2,8,58,118.67891331529245,120.22396893030964,"[30, 0, 224]",224,a,1.0220037951366976,colour,0.5
79,70,1,2,2,9,59,120.74228199233767,121.99999054777436,"[81, 0, 173]",173,l,0.7353951971745118,colour,0.5
79,70,1,2,2,10,60,122.50805297389161,123.67200525233056,"[65, 0, 189]",189,l,0.6416404955089092,colour,0.5
79,70,1,2,2,11,61,124.18004798621405,125.44805325753987,"[43, 0, 211]",211,a,0.7457072730176151,colour,0.5
79,70,1,2,2,12,62,125.96157596784178,126.90398777194787,"[99, 0, 155]",155,l,0.4207951598800719,colour,0.5
79,70,1,2,2,13,63,127.41465391556267,128.80803107609972,"[71, 0, 183]",183,l,0.8709999992279336,colour,0.5
79,70,1,2,2,14,64,129.3210882601561,130.34401483705733,"[38, 0, 216]",216,a,0.5007022278150544,colour,0.5
79,70,1,2,2,15,65,130.85239509714302,131.83207932696678,"[25, 0, 229]",229,a,0.4573633885011077,colour,0.5
79,70,1,2,2,16,66,132.35256838949863,133.60800090746488,"[69, 0, 185]",185,l,0.7331431843340397,colour,0.5
79,70,1,2,2,17,67,134.11836339568254,135.0800212834729,"[96, 0, 158]",158,l,0.4394359019352123,colour,0.5
79,70,1,2,2,18,68,135.5872105526505,136.8800048994599,"[61, 0, 193]",193,a,0.7704668102087453,colour,0.5
79,70,1,2,2,19,69,137.39980591263156,138.57598357193638,"[35, 0, 219]",219,a,0.6538820241112262,colour,0.5
79,70,1,2,2,20,70,139.0875268111704,140.2159777902998,"[80, 0, 174]",174,l,0.6061214732471853,colour,0.5
79,70,1,2,2,21,71,140.72816772502847,141.83206790545955,"[66, 0, 188]",188,l,0.5818050130037591,colour,0.5
79,70,1,2,2,22,72,142.3377223557327,143.3840237064287,"[5, 0, 249]",249,a,0.5240679432172328,colour,0.5
79,70,1,2,2,23,73,143.9002726203762,145.22401422262192,"[78, 0, 176]",176,l,0.801350656314753,colour,0.5
79,70,1,2,2,24,74,145.74421380809508,146.96801417216193,"[68, 0, 186]",186,l,0.7016634489409626,colour,0.5
79,70,1,2,2,25,75,147.4787531774491,148.68000584468246,"[15, 0, 239]",239,a,0.6792193336877972,colour,0.5
79,70,1,2,2,26,76,149.19769584201276,150.13600770686753,"[89, 0, 165]",165,l,0.4159992942586541,colour,0.5
79,70,1,2,2,27,77,150.65093408513349,151.6719733508071,"[36, 0, 218]",218,a,0.4988806890323758,colour,0.5
79,70,1,2,2,28,78,152.1823551375419,153.31998982303776,"[63, 0, 191]",191,l,0.6153993088519201,colour,0.5
79,70,1,2,2,29,79,153.8386782206362,154.69600506022107,"[23, 0, 231]",231,a,0.3350524721900001,colour,0.5
79,70,1,2,2,30,80,155.21373247285374,156.34402507706545,"[10, 0, 244]",244,a,0.6077760212356225,colour,0.5
79,70,1,2,2,31,81,156.85453486372717,158.40001662040595,"[51, 0, 203]",203,a,1.0232440169202164,colour,0.5
79,70,1,2,2,32,82,158.91721706686076,160.26401363976765,"[6, 0, 248]",248,l,0.8245233870111406,colour,0.5
79,70,1,2,2,33,83,160.7767242391128,161.92004448897205,"[39, 0, 215]",215,a,0.6211293777450919,colour,0.5
79,70,1,2,2,34,84,162.43309537146706,163.5920119320508,"[28, 0, 226]",226,a,0.6365330977132544,colour,0.5
79,70,1,2,2,35,85,164.10510456224438,165.7680218127789,"[2, 0, 252]",252,l,1.1406172830611467,colour,0.5
79,70,1,2,2,36,86,166.2771149346372,166.97599861689378,"[84, 0, 170]",170,l,0.17675621947273612,colour,0.5
79,70,1,2,2,37,87,167.4959500792902,168.1600350838853,"[90, 0, 164]",164,l,0.1418224525405094,colour,0.5
79,70,1,2,2,38,88,168.66793642693665,169.7600243712077,"[33, 0, 221]",221,a,0.5697584382724017,colour,0.5
79,70,1,2,2,39,89,170.2774654577952,171.40800264035352,"[56, 0, 198]",198,a,0.6084148397203535,colour,0.5
79,70,1,2,2,40,90,171.91818829160184,172.98403819999658,"[82, 0, 172]",172,l,0.5434916516533121,colour,0.5
79,70,1,2,2,41,91,173.49644041783176,174.68000466318335,"[76, 0, 178]",178,l,0.6612095333402976,colour,0.5
79,70,1,2,2,42,92,175.19968712865375,176.22404100419953,"[3, 0, 251]",251,a,0.5019971942529082,colour,0.5
79,70,1,2,2,43,93,176.73114480869845,177.9519980213372,"[59, 0, 195]",195,a,0.6985091344686225,colour,0.5
79,70,1,2,2,44,94,178.46567669487558,179.5280174332438,"[22, 0, 232]",232,a,0.5400281678885221,colour,0.5
79,70,1,2,2,45,95,180.04383705486543,181.0080049247481,"[77, 0, 177]",177,l,0.442027410143055,colour,0.5
79,70,1,2,2,46,96,181.5283683502348,182.4080369049916,"[19, 0, 235]",235,a,0.3576281319838017,colour,0.5
79,70,1,2,2,47,97,182.91909216868225,183.88002144102938,"[14, 0, 240]",240,a,0.4385930709540844,colour,0.5
79,70,1,2,2,48,98,184.38788064254913,185.6160330075072,"[57, 0, 197]",197,l,0.7060556220822036,colour,0.5
79,70,1,2,2,49,99,186.12250902107917,186.784093102091,"[85, 0, 169]",169,l,0.13982210750691593,colour,0.5
79,70,1,2,2,50,100,187.29443589807488,188.3600069632521,"[49, 0, 205]",205,a,0.5433994915802032,colour,0.5
79,70,1,2,3,1,101,193.9660043749027,195.09603585896548,"[0, 0, 254]",254,a,0.6067843164782971,colour,0.5
79,70,1,2,3,2,102,195.6077212766977,196.8320651485119,"[27, 0, 227]",227,a,0.7028453814564273,colour,0.5
79,70,1,2,3,3,103,197.34207159967627,199.1360006176401,"[62, 0, 192]",192,l,1.2716058135265484,colour,0.5
79,70,1,2,3,4,104,199.6548717598198,200.74401885422412,"[3, 0, 251]",251,a,0.5668392500374466,colour,0.5
79,70,1,2,3,5,105,201.2643239905592,202.4240392711945,"[25, 0, 229]",229,a,0.6380529502639547,colour,0.5
79,70,1,2,3,6,106,202.9362827690784,203.84001651010476,"[99, 0, 155]",155,l,0.38140384131111205,colour,0.5
79,70,1,2,3,7,107,204.35834808286745,205.2000140210148,"[17, 0, 237]",237,a,0.31930531829129905,colour,0.5
79,70,1,2,3,8,108,205.71776309527922,206.74401058349758,"[76, 0, 178]",178,l,0.5040065976791084,colour,0.5
79,70,1,2,3,9,109,207.24911876907572,208.28804141061846,"[19, 0, 235]",235,a,0.5165391786722466,colour,0.5
79,70,1,2,3,10,110,208.7961491291644,209.83206790545955,"[44, 0, 210]",210,a,0.5134841135004535,colour,0.5
79,70,1,2,3,11,111,210.3431531015085,211.5040251085302,"[13, 0, 241]",241,a,0.6385767657775432,colour,0.5
79,70,1,2,3,12,112,212.0151465383824,213.00802461698186,"[83, 0, 171]",171,l,0.4704938280628994,colour,0.5
79,70,1,2,3,13,113,213.51530171383638,214.68804779089987,"[53, 0, 201]",201,a,0.6504457157570869,colour,0.5
79,70,1,2,3,14,114,215.20288397849072,216.53600621025544,"[55, 0, 199]",199,a,0.8107828797074035,colour,0.5
79,70,1,2,3,15,115,217.04681256308686,218.16000318236183,"[5, 0, 249]",249,a,0.5908855317393318,colour,0.5
79,70,1,2,3,16,116,218.67194144928362,219.75197651737835,"[22, 0, 232]",232,a,0.5584318146575242,colour,0.5
79,70,1,2,3,17,117,220.26579855079763,222.43207491585054,"[59, 0, 195]",195,l,1.6446939853485674,colour,0.5
79,70,1,2,3,18,118,222.93786524317693,223.97601358301472,"[68, 0, 186]",186,l,0.5158731846604496,colour,0.5
79,70,1,2,3,19,119,224.484860157012,225.12804256065283,"[98, 0, 156]",156,l,0.12085210997611284,colour,0.5
79,70,1,2,3,20,120,225.64125019405037,226.22402249334846,"[95, 0, 159]",159,l,0.06048572261352092,colour,0.5
79,70,1,2,3,21,121,226.7350253756158,227.3680122817168,"[89, 0, 165]",165,l,0.11064637254457921,colour,0.5
79,70,1,2,3,22,122,227.8757387570804,228.73599935730454,"[39, 0, 215]",215,a,0.3379555126884952,colour,0.5
79,70,1,2,3,23,123,229.2509056495037,230.2800211259164,"[43, 0, 211]",211,a,0.5068706474266946,colour,0.5
79,70,1,2,3,24,124,230.79788480943535,231.62404108291958,"[9, 0, 245]",245,a,0.30382440448738635,colour,0.5
79,70,1,2,3,25,125,232.14172832330223,233.0080029554665,"[92, 0, 162]",162,l,0.34389353229198605,colour,0.5
79,70,1,2,3,26,126,233.51676564023364,234.24004612735007,"[77, 0, 177]",177,l,0.20084739953745157,colour,0.5
79,70,1,2,3,27,127,234.7512644433882,235.53600621025544,"[54, 0, 200]",200,a,0.26250245177652687,colour,0.5
79,70,1,2,3,28,128,236.04835132032167,237.0800669696182,"[32, 0, 222]",222,a,0.5093877187464386,colour,0.5
79,70,1,2,3,29,129,237.59528203727677,238.72800230956636,"[70, 0, 184]",184,l,0.6108066679444164,colour,0.5
79,70,1,2,3,30,130,239.23605095117819,239.8640045025386,"[88, 0, 166]",166,l,0.1057674054754898,colour,0.5
79,70,1,2,3,31,131,240.37683286191896,241.24805183964781,"[12, 0, 242]",242,a,0.34938335488550365,colour,0.5
79,70,1,2,3,32,132,241.76746688352432,242.58405072428286,"[23, 0, 231]",231,a,0.29431341181043535,colour,0.5
79,70,1,2,3,33,133,243.0957129050512,243.77601728518493,"[28, 0, 226]",226,a,0.15790673880837858,colour,0.5
79,70,1,2,3,34,134,244.28330974199343,245.19206384092104,"[82, 0, 172]",172,l,0.38636433449573815,colour,0.5
79,70,1,2,3,35,135,245.70536639122292,246.74403618345968,"[67, 0, 187]",187,l,0.5163788831559941,colour,0.5
79,70,1,2,3,36,136,247.25390951463487,248.19202760711778,"[24, 0, 230]",230,a,0.4158271834021434,colour,0.5
79,70,1,2,3,37,137,248.70719935162924,249.5200400778558,"[34, 0, 220]",220,a,0.29056478338316083,colour,0.5
79,70,1,2,3,38,138,250.03543001320213,252.09604176669382,"[41, 0, 213]",213,a,1.5382338045164943,colour,0.5
79,70,1,2,3,39,139,252.6137538193725,253.4640327806119,"[91, 0, 163]",163,l,0.3280171968508512,colour,0.5
79,70,1,2,3,40,140,253.97316646855325,255.0880364481127,"[40, 0, 214]",214,a,0.5924774581799284,colour,0.5
79,70,1,2,3,41,141,255.59837491170038,256.2880020260345,"[64, 0, 190]",190,l,0.16731651301961392,colour,0.5
79,70,1,2,3,42,142,256.801843751804,257.77602082979865,"[8, 0, 246]",246,a,0.4518203967018053,colour,0.5
79,70,1,2,3,43,143,258.28781022282783,259.3279864769429,"[47, 0, 207]",207,a,0.5184288528980687,colour,0.5
79,70,1,2,3,44,144,259.8349603121169,260.8720306948526,"[75, 0, 179]",179,l,0.5147877444978803,colour,0.5
79,70,1,2,3,45,145,261.38208165066317,262.2880307767773,"[4, 0, 250]",250,a,0.38376810017507523,colour,0.5
79,70,1,2,3,46,146,262.8040024229558,263.7520407142583,"[84, 0, 170]",170,l,0.4257020899094641,colour,0.5
79,70,1,2,3,47,147,264.2572615399258,265.13603370066267,"[45, 0, 209]",209,a,0.35646589170210063,colour,0.5
79,70,1,2,3,48,148,265.6479948107153,266.41611350968014,"[97, 0, 157]",157,l,0.24583054683171213,colour,0.5
79,70,1,2,3,49,149,266.92927427531686,267.75202062819153,"[78, 0, 176]",176,l,0.3004960099933669,colour,0.5
79,70,1,2,3,50,150,268.2575419584755,269.20004592253827,"[94, 0, 160]",160,l,0.4202126612653956,colour,0.5
79,70,1,2,4,1,151,275.10208258009516,277.2160498640733,"[55, 0, 199]",199,l,1.5909339748322964,colour,0.5
79,70,1,2,4,2,152,277.72811101109255,278.2880406229524,"[87, 0, 167]",167,l,0.037963232141919434,colour,0.5
79,70,1,2,4,3,153,278.8062670388026,279.43207964207977,"[25, 0, 229]",229,a,0.10347522038500756,colour,0.5
79,70,1,2,4,4,154,279.9470190173015,280.6960188448429,"[38, 0, 216]",216,a,0.22659470315556973,colour,0.5
79,70,1,2,4,5,155,281.21275022043847,281.80802477453835,"[13, 0, 241]",241,a,0.07298876508139074,colour,0.5
79,70,1,2,4,6,156,282.3221681865398,284.62405053526163,"[92, 0, 162]",162,l,1.7796383074019104,colour,0.5
79,70,1,2,4,7,157,285.13495022966526,285.7440483927494,"[88, 0, 166]",166,l,0.08683049096725881,colour,0.5
79,70,1,2,4,8,158,286.2600164943142,286.88006988412235,"[80, 0, 174]",174,l,0.09787000087089837,colour,0.5
79,70,1,2,4,9,159,287.3851052081445,287.944033662905,"[73, 0, 181]",181,l,0.03664424107410014,colour,0.5
79,70,1,2,4,10,160,288.46335300209466,289.7520379574271,"[62, 0, 192]",192,a,0.7663739601848647,colour,0.5
79,70,1,2,4,11,161,290.2603941928828,290.8720811071107,"[93, 0, 161]",161,l,0.08957559918053448,colour,0.5
79,70,1,2,4,12,162,291.3854470667429,292.08802463277243,"[64, 0, 190]",190,a,0.1802902016788721,colour,0.5
79,70,1,2,4,13,163,292.6042388882488,293.26401679054834,"[2, 0, 252]",252,a,0.13760790403466672,colour,0.5
79,70,1,2,4,14,164,293.7762189344503,294.4000670326641,"[11, 0, 243]",243,a,0.10174111544620246,colour,0.5
79,70,1,2,4,15,165,294.9169382236432,295.5360290532699,"[70, 0, 184]",184,l,0.10391632816754282,colour,0.5
79,70,1,2,4,16,166,296.05056906840764,298.27205322287045,"[30, 0, 224]",224,a,1.6991046300390735,colour,0.5
79,70,1,2,4,17,167,298.78513600700535,299.5840381211601,"[40, 0, 214]",214,a,0.2765088052256033,colour,0.5
79,70,1,2,4,18,168,300.09775617928244,300.728029484977,"[98, 0, 156]",156,l,0.10801390442065895,colour,0.5
79,70,1,2,4,19,169,301.2384979177732,301.768064742093,"[1, 0, 253]",253,a,0.007279066019691527,colour,0.5
79,70,1,2,4,20,170,302.2853463208303,302.85607637790963,"[21, 0, 233]",233,a,0.048405671142973006,colour,0.5
79,70,1,2,4,21,171,303.3635637885891,306.21605262102094,"[95, 0, 159]",159,l,2.330092372605577,colour,0.5
79,70,1,2,4,22,172,306.7232477978105,307.2481916550314,"[32, 0, 222]",222,a,0.0029987451853230596,colour,0.5
79,70,1,2,4,23,173,307.75459086860064,308.35202488163486,"[84, 0, 170]",170,l,0.0750970239751041,colour,0.5
79,70,1,2,4,24,174,308.867461290909,309.44002588361036,"[29, 0, 225]",225,a,0.05368714907672256,colour,0.5
79,70,1,2,4,25,175,309.95793092099484,312.4160485250177,"[91, 0, 163]",163,l,1.9359058580594137,colour,0.5
79,70,1,2,4,26,176,312.92684857640415,313.9040346395923,"[12, 0, 242]",242,a,0.45492823724634945,colour,0.5
79,70,1,2,4,27,177,314.41134797025006,315.0480263972422,"[90, 0, 164]",164,l,0.119041598867625,colour,0.5
79,70,1,2,4,28,178,315.5629807385849,316.2160486825742,"[58, 0, 196]",196,a,0.1307037795195356,colour,0.5
79,70,1,2,4,29,179,316.73506160941906,317.3920345387887,"[41, 0, 213]",213,a,0.13479387271218002,colour,0.5
79,70,1,2,4,30,180,317.9069743078435,318.5680507211946,"[51, 0, 203]",203,a,0.13881976890843362,colour,0.5
79,70,1,2,4,31,181,319.0788535294123,320.47208299767226,"[15, 0, 239]",239,a,0.8710886146873236,colour,0.5
79,70,1,2,4,32,182,320.9852985079633,321.71201963559724,"[65, 0, 189]",189,l,0.2137060851091519,colour,0.5
79,70,1,2,4,33,183,322.22609924455173,322.88004231487866,"[34, 0, 220]",220,a,0.1316186843905598,colour,0.5
79,70,1,2,4,34,184,323.3980647184653,323.9600687182974,"[83, 0, 171]",171,l,0.03957603231538087,colour,0.5
79,70,1,2,4,35,185,324.476352290716,325.06403506500646,"[27, 0, 227]",227,a,0.0653969852719456,colour,0.5
79,70,1,2,4,36,186,325.5725382050732,326.232230248861,"[37, 0, 217]",217,a,0.13773354096338153,colour,0.5
79,70,1,2,4,37,187,326.7473220425891,327.3520363032585,"[3, 0, 251]",251,a,0.08232292090542614,colour,0.5
79,70,1,2,4,38,188,327.87245014111977,328.4880837884266,"[28, 0, 226]",226,a,0.09034478082321584,colour,0.5
79,70,1,2,4,39,189,329.00050451711286,331.5760379227577,"[82, 0, 172]",172,l,2.0531117396894842,colour,0.5
79,70,1,2,4,40,190,332.09447583404835,332.74402358045336,"[75, 0, 179]",179,l,0.12738956359680742,colour,0.5
79,70,1,2,4,41,191,333.250844997121,333.87203935941216,"[44, 0, 210]",210,a,0.09885382861830294,colour,0.5
79,70,1,2,4,42,192,334.39157846488524,335.0000512000406,"[85, 0, 169]",169,l,0.08685294014867395,colour,0.5
79,70,1,2,4,43,193,335.516665209434,336.6560399077134,"[71, 0, 183]",183,l,0.6171369585208595,colour,0.5
79,70,1,2,4,44,194,337.1730257079471,337.6961121864151,"[42, 0, 212]",212,a,0.0007750894874334335,colour,0.5
79,70,1,2,4,45,195,338.2043290003203,338.8480501854792,"[86, 0, 168]",168,l,0.12134953774511814,colour,0.5
79,70,1,2,4,46,196,339.36147640354466,339.9840161446482,"[7, 0, 247]",247,a,0.10114758915733546,colour,0.5
79,70,1,2,4,47,197,340.5013863387285,341.1040600821143,"[4, 0, 250]",250,a,0.0803603851236403,colour,0.5
79,70,1,2,4,48,198,341.6108759850031,342.20004040864296,"[66, 0, 188]",188,l,0.06699442549142987,colour,0.5
79,70,1,2,4,49,199,342.7202904064907,344.68805212317966,"[31, 0, 223]",223,a,1.4453660445287824,colour,0.5
79,70,1,2,4,50,200,345.2049166188808,346.4240380896954,"[20, 0, 234]",234,a,0.6966619956074283,colour,0.5
79,70,1,2,5,1,201,351.81414947728626,353.2560402228264,"[41, 0, 213]",213,l,0.9188428641064093,colour,0.4
79,70,1,2,5,2,202,353.76829120365437,356.2000561625464,"[17, 0, 237]",237,a,1.909621742204763,colour,0.4
79,70,1,2,5,3,203,356.70591698831413,358.00801555858925,"[62, 0, 192]",192,l,0.7797962398035452,colour,0.4
79,70,1,2,5,4,204,358.5184965945082,360.4560522744432,"[59, 0, 195]",195,a,1.4151607955573127,colour,0.4
79,70,1,2,5,5,205,360.9719167945441,361.6400426614564,"[87, 0, 167]",167,l,0.14589954866096377,colour,0.4
79,70,1,2,5,6,206,362.15957822219934,362.9600320906611,"[67, 0, 187]",187,l,0.27820155629888177,colour,0.4
79,70,1,2,5,7,207,363.472062517656,364.04007385403384,"[91, 0, 163]",163,l,0.045677892048843205,colour,0.4
79,70,1,2,5,8,208,364.55018703767564,365.83206908695865,"[10, 0, 244]",244,a,0.7596191033953801,colour,0.4
79,70,1,2,5,9,209,366.34728100383654,367.08807268203236,"[74, 0, 180]",180,l,0.21843657223507762,colour,0.4
79,70,1,2,5,10,210,367.5975470469566,368.2720567674842,"[40, 0, 214]",214,a,0.15231018385384232,colour,0.4
79,70,1,2,5,11,211,368.78503045614343,369.94406320131384,"[35, 0, 219]",219,a,0.6366851222701371,colour,0.4
79,70,1,2,5,12,212,370.45702428696677,371.6480515245348,"[53, 0, 201]",201,a,0.6693235533311963,colour,0.4
79,70,1,2,5,13,213,372.1603237731615,372.8640631856397,"[28, 0, 226]",226,a,0.18156508193351328,colour,0.4
79,70,1,2,5,14,214,373.3791022038786,374.1440760407131,"[39, 0, 215]",215,a,0.24326385091990232,colour,0.4
79,70,1,2,5,15,215,374.6604427146958,376.28002624597866,"[94, 0, 160]",160,l,1.0974040807923302,colour,0.4
79,70,1,2,5,16,216,376.78579097322654,378.0960673666559,"[93, 0, 161]",161,l,0.788072130526416,colour,0.4
79,70,1,2,5,17,217,378.6139456224628,380.0240529770963,"[61, 0, 193]",193,a,0.887802267097868,colour,0.4
79,70,1,2,5,18,218,380.53592744097114,382.2880709490273,"[66, 0, 188]",188,a,1.2297978544374928,colour,0.4
79,70,1,2,5,19,219,382.80169133329764,384.6240591998212,"[77, 0, 177]",177,l,1.3000226067379117,colour,0.4
79,70,1,2,5,20,220,385.13005314569455,386.36004319705535,"[89, 0, 165]",165,l,0.707646367023699,colour,0.4
79,70,1,2,5,21,221,386.8801659826422,388.09605003742035,"[44, 0, 210]",210,a,0.6935348565457389,colour,0.4
79,70,1,2,5,22,222,388.6147065333789,389.88803384872153,"[51, 0, 203]",203,a,0.7509922955650836,colour,0.4
79,70,1,2,5,23,223,390.396076582605,392.08008311735466,"[64, 0, 190]",190,l,1.1616726964712143,colour,0.4
79,70,1,2,5,24,224,392.5994729549857,395.22404376103077,"[52, 0, 202]",202,a,2.1023496077395976,colour,0.4
79,70,1,2,5,25,225,395.7403186688898,396.9520830921829,"[80, 0, 174]",174,l,0.6894735142122954,colour,0.4
79,70,1,2,5,26,226,397.4591991058551,398.60807258752175,"[82, 0, 172]",172,l,0.6265802095877007,colour,0.4
79,70,1,2,5,27,227,399.1156454627635,400.2400733027607,"[81, 0, 173]",173,l,0.6021637124940753,colour,0.4
79,70,1,2,5,28,228,400.75640571210533,401.88808623026125,"[26, 0, 228]",228,a,0.6093171414686367,colour,0.4
79,70,1,2,5,29,229,402.3969020843506,403.67205724003725,"[18, 0, 236]",236,a,0.752568862051703,colour,0.4
79,70,1,2,5,30,230,404.1784308536444,405.35208710934967,"[86, 0, 168]",168,l,0.6516248913249001,colour,0.4
79,70,1,2,5,31,231,405.86613009055145,406.9200775719946,"[5, 0, 249]",249,a,0.5317266769707203,colour,0.4
79,70,1,2,5,32,232,407.4287673952058,408.8560503839981,"[68, 0, 186]",186,l,0.9053063690662384,colour,0.4
79,70,1,2,5,33,233,409.3664959737798,410.7920472206315,"[65, 0, 189]",189,l,0.9037593409884721,colour,0.4
79,70,1,2,5,34,234,411.3040268414188,412.39207471115515,"[9, 0, 245]",245,a,0.5657577484380454,colour,0.4
79,70,1,2,5,35,235,412.89783865073696,413.98410318465903,"[90, 0, 164]",164,l,0.5638672864297405,colour,0.4
79,70,1,2,5,36,236,414.4917308045551,415.56004500878043,"[11, 0, 243]",243,a,0.5459953320678324,colour,0.4
79,70,1,2,5,37,237,416.06999435229227,418.1520565468818,"[56, 0, 198]",198,a,1.5597452917136252,colour,0.4
79,70,1,2,5,38,238,418.66403419850394,419.7360930927098,"[97, 0, 157]",157,l,0.549797129817307,colour,0.4
79,70,1,2,5,39,239,420.2422367000254,421.2480892550666,"[16, 0, 238]",238,a,0.4835443167248741,colour,0.4
79,70,1,2,5,40,240,421.7579948815983,423.0960394035792,"[54, 0, 200]",200,a,0.8157681853044778,colour,0.4
79,70,1,2,5,41,241,423.60182579245884,425.2880650414154,"[49, 0, 205]",205,a,1.1638766599353403,colour,0.4
79,70,1,2,5,42,242,425.8052036539884,427.0880931620486,"[8, 0, 246]",246,a,0.7730591060826555,colour,0.4
79,70,1,2,5,43,243,427.60539600846823,428.7600806913106,"[92, 0, 162]",162,l,0.6325339830946177,colour,0.4
79,70,1,2,5,44,244,429.2773713285569,430.33608907542657,"[42, 0, 212]",212,a,0.5365126964170486,colour,0.4
79,70,1,2,5,45,245,430.8556577193085,431.8880909564905,"[38, 0, 216]",216,a,0.5100797066697851,colour,0.4
79,70,1,2,5,46,246,432.4024119931273,433.4481068205787,"[70, 0, 184]",184,l,0.5205816163215786,colour,0.4
79,70,1,2,5,47,247,433.96843834454194,435.1680447346298,"[63, 0, 191]",191,l,0.6778101519448683,colour,0.4
79,70,1,2,5,48,248,435.68743023998104,436.6800983985886,"[14, 0, 240]",240,a,0.47037331108003855,colour,0.4
79,70,1,2,5,49,249,437.18754878779873,438.4880593699636,"[36, 0, 218]",218,a,0.7781227870145813,colour,0.4
79,70,1,2,5,50,250,439.000155569287,440.0960661851568,"[79, 0, 175]",175,l,0.5735499960137531,colour,0.4
79,70,1,2,6,1,251,445.6249583507888,446.952044495265,"[32, 0, 222]",222,a,0.8039776106597856,colour,0.28
79,70,1,2,6,2,252,447.46966517565306,448.5520912841894,"[81, 0, 173]",173,l,0.5601509534753859,colour,0.28
79,70,1,2,6,3,253,449.0635482710786,450.0640630280832,"[86, 0, 168]",168,l,0.47823290654923767,colour,0.28
79,70,1,2,6,4,254,450.57928715413436,451.5360570163466,"[59, 0, 195]",195,a,0.4348905225051567,colour,0.28
79,70,1,2,6,5,255,452.04810004646424,452.78410137293395,"[62, 0, 192]",192,a,0.2134823804954067,colour,0.28
79,70,1,2,6,6,256,453.29817546799313,454.4800662607886,"[78, 0, 176]",176,l,0.6595238714944571,colour,0.28
79,70,1,2,6,7,257,454.9735154163791,456.08807701431215,"[66, 0, 188]",188,a,0.5922809289768338,colour,0.28
79,70,1,2,6,8,258,456.59861200710293,459.0320614463417,"[61, 0, 193]",193,a,1.9111317485803738,colour,0.28
79,70,1,2,6,9,259,459.55202433024533,460.6800905216951,"[84, 0, 170]",170,l,0.6058048208942637,colour,0.28
79,70,1,2,6,10,260,461.1927640995709,463.0720648019342,"[71, 0, 183]",183,l,1.3569357503438368,colour,0.28
79,70,1,2,6,11,261,463.5834808287909,464.88805590418633,"[99, 0, 155]",155,l,0.7821538032731041,colour,0.28
79,70,1,2,6,12,262,465.39617583190557,466.52009285322856,"[94, 0, 160]",160,l,0.6016485615400597,colour,0.28
79,70,1,2,6,13,263,467.0369660134893,468.1840518270619,"[88, 0, 166]",166,l,0.6248102645622566,colour,0.28
79,70,1,2,6,14,264,468.69343285041396,469.7681041266769,"[64, 0, 190]",190,a,0.5636034094495699,colour,0.28
79,70,1,2,6,15,265,470.2760204359656,471.5280650886707,"[31, 0, 223]",223,a,0.7297580760205165,colour,0.28
79,70,1,2,6,16,266,472.04176818055566,473.7440759619931,"[67, 0, 187]",187,a,1.1800653154496104,colour,0.28
79,70,1,2,6,17,267,474.26070336217526,475.4960843807785,"[44, 0, 210]",210,a,0.7131850265432149,colour,0.28
79,70,1,2,6,18,268,476.01089536224026,477.16005871468224,"[15, 0, 239]",239,a,0.6270646404009312,colour,0.28
79,70,1,2,6,19,269,477.6671554298373,479.1040888328571,"[70, 0, 184]",184,a,0.9144845616538078,colour,0.28
79,70,1,2,6,20,270,479.62047047296073,480.77606415282935,"[16, 0, 238]",238,a,0.633226758451201,colour,0.28
79,70,1,2,6,21,271,481.2925210176036,482.3920778618194,"[18, 0, 236]",236,a,0.5772907474311069,colour,0.28
79,70,1,2,6,22,272,482.90201381454244,484.3680745094316,"[55, 0, 199]",199,a,0.9438268935773522,colour,0.28
79,70,1,2,6,23,273,484.8865104515571,486.1040466913255,"[1, 0, 253]",253,a,0.6952094907173887,colour,0.28
79,70,1,2,6,24,274,486.62112425779924,489.84809469012544,"[57, 0, 197]",197,a,2.7047240280080587,colour,0.28
79,70,1,2,6,25,275,490.3557309746975,492.1120787913678,"[93, 0, 161]",161,l,1.2341927846428007,colour,0.28
79,70,1,2,6,26,276,492.62154764239676,493.6720678738784,"[91, 0, 163]",163,l,0.5282060855533928,colour,0.28
79,70,1,2,6,27,277,494.1841447748011,495.28006523672957,"[60, 0, 194]",194,a,0.5735507836798206,colour,0.28
79,70,1,2,6,28,278,495.7936690794304,496.9440663520945,"[98, 0, 156]",156,l,0.6281449606176466,colour,0.28
79,70,1,2,6,29,279,497.4499531717738,499.6961405433249,"[75, 0, 179]",179,a,1.7237594041507691,colour,0.28
79,70,1,2,6,30,280,500.21589390106965,501.3280908461893,"[87, 0, 167]",167,l,0.5899292731191963,colour,0.28
79,70,1,2,6,31,281,501.84102239331696,502.96007935213856,"[83, 0, 171]",171,l,0.5966597113292664,colour,0.28
79,70,1,2,6,32,282,503.4662079933332,504.58407041663304,"[42, 0, 212]",212,a,0.5963765359483659,colour,0.28
79,70,1,2,6,33,283,505.0913632672746,506.40006230655126,"[29, 0, 225]",225,a,0.7865388871869072,colour,0.28
79,70,1,2,6,34,284,506.91956163349096,508.0560781895183,"[56, 0, 198]",198,a,0.6142547917552292,colour,0.28
79,70,1,2,6,35,285,508.57596545503475,509.80807006685063,"[6, 0, 248]",248,a,0.7101287798723206,colour,0.28
79,70,1,2,6,36,286,510.32610428577755,511.3840623033466,"[8, 0, 246]",246,a,0.5357588747283444,colour,0.28
79,70,1,2,6,37,287,511.904306787299,512.9200791473268,"[52, 0, 202]",202,a,0.4933782631997019,colour,0.28
79,70,1,2,6,38,288,513.4356786089484,514.5600914825918,"[96, 0, 158]",158,l,0.6020727339200675,colour,0.28
79,70,1,2,6,39,289,515.0764546120772,516.1520726946183,"[90, 0, 164]",164,l,0.5532787304837257,colour,0.28
79,70,1,2,6,40,290,516.6703865443124,518.2800979259191,"[77, 0, 177]",177,l,1.0875279925530776,colour,0.28
79,70,1,2,6,41,291,518.7955012520542,519.9280450812075,"[53, 0, 201]",201,a,0.6105167970526963,colour,0.28
79,70,1,2,6,42,292,520.4362701659556,521.5360597732943,"[76, 0, 178]",178,l,0.5774222922045738,colour,0.28
79,70,1,2,6,43,293,522.0457519352203,523.2160738887032,"[72, 0, 182]",182,l,0.6482598691945896,colour,0.28
79,70,1,2,6,44,294,523.7333432582673,524.944097859785,"[13, 0, 241]",241,a,0.6883746832609177,colour,0.28
79,70,1,2,6,45,295,525.4522701691603,526.5440627287608,"[74, 0, 180]",180,l,0.5695146475918591,colour,0.28
79,70,1,2,6,46,296,527.0618291322608,528.2400685765315,"[73, 0, 181]",181,l,0.6562147754011676,colour,0.28
79,70,1,2,6,47,297,528.7494212429738,529.9120663458016,"[92, 0, 162]",162,l,0.6402577015105635,colour,0.28
79,70,1,2,6,48,298,530.421430039918,531.5600981779862,"[36, 0, 218]",218,a,0.6163472967455164,colour,0.28
79,70,1,2,6,49,299,532.0778389815241,533.1120996652171,"[79, 0, 175]",175,l,0.5121623654849827,colour,0.28
79,70,1,2,6,50,300,533.6248449231498,534.6640428630635,"[21, 0, 233]",233,a,0.5169684709981084,colour,0.28
79,70,1,2,7,1,301,540.1870529353619,542.2160920057213,"[98, 0, 156]",156,l,1.5060116689419374,colour,0.14
79,70,1,2,7,2,302,542.7349119478604,543.8080850329716,"[40, 0, 214]",214,a,0.550877449917607,colour,0.14
79,70,1,2,7,3,303,544.3131758894306,545.528061544057,"[18, 0, 236]",236,a,0.6926664256025106,colour,0.14
79,70,1,2,7,4,304,546.04770501866,547.2641018612776,"[97, 0, 157]",157,l,0.6940712751820683,colour,0.14
79,70,1,2,7,5,305,547.7821998832515,548.8400787378196,"[93, 0, 161]",161,l,0.5360046348068863,colour,0.14
79,70,1,2,7,6,306,549.3604394063586,550.4160560080782,"[86, 0, 168]",168,l,0.533409975701943,colour,0.14
79,70,1,2,7,7,307,550.9230574126123,552.3441144800745,"[67, 0, 187]",187,a,0.8987996354699135,colour,0.14
79,70,1,2,7,8,308,552.8607162802946,554.056090004975,"[70, 0, 184]",184,a,0.673181671067141,colour,0.14
79,70,1,2,7,9,309,554.5640287634451,555.7360856096493,"[55, 0, 199]",199,a,0.6497875987552106,colour,0.14
79,70,1,2,7,10,310,556.2515866096364,557.3041071860353,"[95, 0, 159]",159,l,0.530245027388446,colour,0.14
79,70,1,2,7,11,311,557.8142176127294,559.1040758359013,"[53, 0, 201]",201,a,0.7671092710224912,colour,0.14
79,70,1,2,7,12,312,559.6116861266783,560.744099986623,"[60, 0, 194]",194,a,0.6102371664019302,colour,0.14
79,70,1,2,7,13,313,561.2523995082593,562.3360973462695,"[89, 0, 165]",165,l,0.5613269782625139,colour,0.14
79,70,1,2,7,14,314,562.8463235636009,563.9200629997067,"[49, 0, 205]",205,a,0.5514894870575517,colour,0.14
79,70,1,2,7,15,315,564.4401566406013,565.5840727796312,"[62, 0, 192]",192,a,0.6216035685501993,colour,0.14
79,70,1,2,7,16,316,566.0965805483283,567.1520927808015,"[0, 0, 254]",254,a,0.5332985173445195,colour,0.14
79,70,1,2,7,17,317,567.659181619063,568.816126979189,"[76, 0, 178]",178,l,0.6347013188060373,colour,0.14
79,70,1,2,7,18,318,569.3311644222122,570.9441159766866,"[59, 0, 195]",195,a,1.090590147068724,colour,0.14
79,70,1,2,7,19,319,571.4564063422149,572.3760810095118,"[82, 0, 172]",172,l,0.3974475613795221,colour,0.14
79,70,1,2,7,20,320,572.8939112160588,574.072118758806,"[66, 0, 188]",188,l,0.6683050668798387,colour,0.14
79,70,1,2,7,21,321,574.5848084844183,575.5843524105148,"[51, 0, 203]",203,a,0.477250260184519,colour,0.14
79,70,1,2,7,22,322,576.1004520567367,576.9201138057979,"[84, 0, 170]",170,l,0.2972562308423221,colour,0.14
79,70,1,2,7,23,323,577.4287646383746,578.6001271336572,"[57, 0, 197]",197,a,0.6492866263724864,colour,0.14
79,70,1,2,7,24,324,579.1164327614242,580.1200691437116,"[94, 0, 160]",160,l,0.48134626098908484,colour,0.14
79,70,1,2,7,25,325,580.63217164448,581.6480601892108,"[56, 0, 198]",198,a,0.4935944848693907,colour,0.14
79,70,1,2,7,26,326,582.1634725737385,583.9681149967946,"[68, 0, 186]",186,a,1.2823184309527278,colour,0.14
79,70,1,2,7,27,327,584.4761837245896,586.1681034177309,"[74, 0, 180]",180,l,1.170299110468477,colour,0.14
79,70,1,2,7,28,328,586.6718997015851,588.3201060077408,"[78, 0, 176]",176,l,1.1258992494549602,colour,0.14
79,70,1,2,7,29,329,588.828381110914,589.8322864901274,"[52, 0, 202]",202,a,0.4817798857111484,colour,0.14
79,70,1,2,7,30,330,590.3440999077866,591.6161165029043,"[64, 0, 190]",190,a,0.7498261168366298,colour,0.14
79,70,1,2,7,31,331,592.1254160001408,593.1441134561319,"[99, 0, 155]",155,l,0.496388036175631,colour,0.14
79,70,1,2,7,32,332,593.6568260247586,595.0322079571197,"[72, 0, 182]",182,a,0.8531296203145757,colour,0.14
79,70,1,2,7,33,333,595.547597498633,596.6640743708704,"[69, 0, 185]",185,a,0.5943092370871454,colour,0.14
79,70,1,2,7,34,334,597.1727409571176,599.0400888202712,"[77, 0, 177]",177,l,1.3449836986837909,colour,0.14
79,70,1,2,7,35,335,599.5480984710157,600.5280942332465,"[54, 0, 200]",200,a,0.4577800778206438,colour,0.14
79,70,1,2,7,36,336,601.0480610557133,602.1920748685952,"[85, 0, 169]",169,l,0.6216362577397376,colour,0.14
79,70,1,2,7,37,337,602.7044325817842,603.9440915582236,"[63, 0, 191]",191,a,0.7173704304732382,colour,0.14
79,70,1,2,7,38,338,604.4545430557337,605.4321123312693,"[92, 0, 162]",162,l,0.4552444957662374,colour,0.14
79,70,1,2,7,39,339,605.9390424495796,606.8880909564905,"[73, 0, 181]",181,a,0.4268568471306935,colour,0.14
79,70,1,2,7,40,340,607.4079144188436,608.4480957929045,"[71, 0, 183]",183,a,0.5178900712635368,colour,0.14
79,70,1,2,7,41,341,608.9548006311525,609.9040929288603,"[13, 0, 241]",241,a,0.4268375487299636,colour,0.14
79,70,1,2,7,42,342,610.4238596773939,611.9041047442006,"[90, 0, 164]",164,l,0.9580990932881832,colour,0.14
79,70,1,2,7,43,343,612.4239400220104,613.6961228202563,"[96, 0, 158]",158,l,0.7498343876795843,colour,0.14
79,70,1,2,7,44,344,614.205360877444,615.320107976906,"[50, 0, 204]",204,a,0.5924821842927486,colour,0.14
79,70,1,2,7,45,345,615.8304854312446,616.8320714500733,"[61, 0, 193]",193,a,0.4793277990538627,colour,0.14
79,70,1,2,7,46,346,617.3461916251108,618.7040844217408,"[8, 0, 246]",246,a,0.8356070076115429,colour,0.14
79,70,1,2,7,47,347,619.2213376436848,620.4561007175362,"[23, 0, 231]",231,a,0.7124485340900719,colour,0.14
79,70,1,2,7,48,348,620.9714800190413,621.9840740399668,"[88, 0, 166]",166,l,0.49023379501886666,colour,0.14
79,70,1,2,7,49,349,622.5028695636429,623.6880938708782,"[79, 0, 175]",175,l,0.6629294597078115,colour,0.14
79,70,1,2,7,50,350,624.2060611359775,625.2321219411679,"[91, 0, 163]",163,l,0.5036363822873682,colour,0.14
79,70,1,2,8,1,351,631.1277684436645,631.9600852598669,"[54, 0, 200]",200,a,0.30938590702135116,colour,0.06
79,70,1,2,8,2,352,632.4724480931181,633.4721243514214,"[80, 0, 174]",174,l,0.4774034662405029,colour,0.06
79,70,1,2,8,3,353,633.9881546808174,635.1600898285396,"[70, 0, 184]",184,l,0.649622971075587,colour,0.06
79,70,1,2,8,4,354,635.6758031116333,636.5841062566033,"[76, 0, 178]",178,l,0.3860890360083431,colour,0.06
79,70,1,2,8,5,355,637.0977782346308,637.9920931430534,"[99, 0, 155]",155,l,0.37194680550601333,colour,0.06
79,70,1,2,8,6,356,638.504112148541,639.6001121674199,"[62, 0, 192]",192,a,0.5737559775589034,colour,0.06
79,70,1,2,8,7,357,640.1136659916956,641.2000860947883,"[52, 0, 202]",202,a,0.5641709418268874,colour,0.06
79,70,1,2,8,8,358,641.7075553885661,642.7281295219436,"[96, 0, 158]",158,l,0.498326153610833,colour,0.06
79,70,1,2,8,9,359,643.2388901886297,644.5360999456607,"[74, 0, 180]",180,a,0.7749349956866354,colour,0.06
79,70,1,2,8,10,360,645.051529265591,646.2322011042852,"[12, 0, 242]",242,a,0.6675886607263237,colour,0.06
79,70,1,2,8,11,361,646.7454595437739,647.8241500208387,"[66, 0, 188]",188,l,0.5566315434407443,colour,0.06
79,70,1,2,8,12,362,648.339399353019,649.4801009192597,"[71, 0, 183]",183,l,0.6183886018116027,colour,0.06
79,70,1,2,8,13,363,649.9957448854111,651.5280800547916,"[67, 0, 187]",187,l,1.0103290112456307,colour,0.06
79,70,1,2,8,14,364,652.0428055715747,653.000097280019,"[56, 0, 198]",198,a,0.4349527502199635,colour,0.06
79,70,1,2,8,15,365,653.5116058607819,654.6240670768311,"[51, 0, 203]",203,a,0.5903983439784497,colour,0.06
79,70,1,2,8,16,366,655.1367579839425,656.1200868667802,"[87, 0, 167]",167,l,0.46098480466753244,colour,0.06
79,70,1,2,8,17,367,656.6369505746989,657.6001271336572,"[93, 0, 161]",161,l,0.4408718653721735,colour,0.06
79,70,1,2,8,18,368,658.1057433808455,659.280227895244,"[61, 0, 193]",193,a,0.6521987253800035,colour,0.06
79,70,1,2,8,19,369,659.7934004763374,660.8321029577637,"[90, 0, 164]",164,l,0.5164757694583386,colour,0.06
79,70,1,2,8,20,370,661.3403796362691,662.5441182610812,"[55, 0, 199]",199,a,0.6813579187728465,colour,0.06
79,70,1,2,8,21,371,663.0592927625403,664.1041061620926,"[94, 0, 160]",160,l,0.5227241398533806,colour,0.06
79,70,1,2,8,22,372,664.6218898948282,665.2320896456949,"[53, 0, 201]",201,a,0.08794862031936646,colour,0.06
79,70,1,2,8,23,373,665.7470179933589,666.8641143855639,"[86, 0, 168]",168,l,0.5947109601693228,colour,0.06
79,70,1,2,8,24,374,667.3720913471188,668.5441265318077,"[69, 0, 185]",185,a,0.6500132726505399,colour,0.06
79,70,1,2,8,25,375,669.059663371765,670.0961292005377,"[95, 0, 159]",159,l,0.5140425873687491,colour,0.06
79,70,1,2,8,26,376,670.6067571410676,671.8880708703073,"[72, 0, 182]",182,a,0.7588270786218345,colour,0.06
79,70,1,2,8,27,377,672.4039346026257,673.7521100312006,"[3, 0, 251]",251,a,0.8258620703127235,colour,0.06
79,70,1,2,8,28,378,674.2634445319418,675.4241243420402,"[81, 0, 173]",173,l,0.6384054427035153,colour,0.06
79,70,1,2,8,29,379,675.9355651811929,677.0881203373428,"[88, 0, 166]",166,l,0.6303378964075819,colour,0.06
79,70,1,2,8,30,380,677.6074455842609,679.2480849227868,"[63, 0, 191]",191,a,1.1182940787402913,colour,0.06
79,70,1,2,8,31,381,679.7639269935898,680.864133290248,"[92, 0, 162]",162,l,0.5779717076802626,colour,0.06
79,70,1,2,8,32,382,681.3733654397074,682.3761286649387,"[64, 0, 190]",190,a,0.48089648864697665,colour,0.06
79,70,1,2,8,33,383,682.8891251967289,684.176124490099,"[82, 0, 172]",172,l,0.7646804213291034,colour,0.06
79,70,1,2,8,34,384,684.6866464860504,685.6961098233005,"[68, 0, 186]",186,a,0.48717321595177054,colour,0.06
79,70,1,2,8,35,385,686.2024357814807,687.3841056264937,"[65, 0, 189]",189,a,0.6593848437769338,colour,0.06
79,70,1,2,8,36,386,687.8900944523048,688.9601396106882,"[79, 0, 175]",175,l,0.5477609448134899,colour,0.06
79,70,1,2,8,37,387,689.4683922645636,690.4321095743217,"[60, 0, 194]",194,a,0.44154061609879136,colour,0.06
79,70,1,2,8,38,388,690.9372295753565,691.7281240080483,"[57, 0, 197]",197,a,0.2685944652184844,colour,0.06
79,70,1,2,8,39,389,692.2340777815552,693.1681258670287,"[77, 0, 177]",177,l,0.4116681672167033,colour,0.06
79,70,1,2,8,40,390,693.6874495384982,694.9521114490926,"[73, 0, 181]",181,l,0.742364306235686,colour,0.06
79,70,1,2,8,41,391,695.4688625170384,696.2401107180631,"[78, 0, 176]",176,l,0.24902936595026404,colour,0.06
79,70,1,2,8,42,392,696.7502286278177,697.3041095491499,"[19, 0, 235]",235,a,0.03166090464219451,colour,0.06
79,70,1,2,8,43,393,697.8127438400406,698.5041015146999,"[83, 0, 171]",171,l,0.16945037187542766,colour,0.06
79,70,1,2,8,44,394,699.0159566800576,700.1121299914084,"[85, 0, 169]",169,l,0.5739410853711888,colour,0.06
79,70,1,2,8,45,395,700.6254384493222,701.7121086448897,"[89, 0, 165]",165,l,0.5643903141608462,colour,0.06
79,70,1,2,8,46,396,702.2193451755447,703.2641266735736,"[75, 0, 179]",179,l,0.5224992536241189,colour,0.06
79,70,1,2,8,47,397,703.7819675140781,704.8241149685346,"[59, 0, 195]",195,a,0.5199215301545337,colour,0.06
79,70,1,2,8,48,398,705.3446351448074,706.3361300354591,"[97, 0, 157]",157,l,0.46938042470719665,colour,0.06
79,70,1,2,8,49,399,706.8447119448101,707.8481336808763,"[91, 0, 163]",163,l,0.4813186916289851,colour,0.06
79,70,1,2,8,50,400,708.3604516156483,709.3280892708572,"[98, 0, 156]",156,l,0.44529042614158243,colour,0.06
79,70,1,2,9,1,401,714.8641112347832,715.5041062408127,"[98, 0, 156]",156,l,0.12416632589884102,colour,0.06
79,70,1,2,9,2,402,716.0139886304969,717.1280984868063,"[56, 0, 198]",198,a,0.5917744426988065,colour,0.06
79,70,1,2,9,3,403,717.6391116089653,718.7281192819355,"[50, 0, 204]",204,a,0.5668073486303911,colour,0.06
79,70,1,2,9,4,404,719.233029756695,720.2481333658798,"[51, 0, 203]",203,a,0.49283908784855157,colour,0.06
79,70,1,2,9,5,405,720.7643889752217,721.9441238536965,"[74, 0, 180]",180,l,0.6574557848507538,colour,0.06
79,70,1,2,9,6,406,722.4519743905403,723.4561074129306,"[64, 0, 190]",190,a,0.48192167025990784,colour,0.06
79,70,1,2,9,7,407,723.9685175076593,725.000146116945,"[93, 0, 161]",161,l,0.510079312720336,colour,0.06
79,70,1,2,9,8,408,725.5147333936766,726.5841121643316,"[88, 0, 166]",166,l,0.5477006863802671,colour,0.06
79,70,1,2,9,9,409,727.0930158460978,728.1601449669106,"[24, 0, 230]",230,a,0.5448177318321541,colour,0.06
79,70,1,2,9,10,410,728.6712380399695,729.816175422282,"[75, 0, 179]",179,l,0.6228457594988868,colour,0.06
79,70,1,2,9,11,411,730.3276249261107,731.3601073940517,"[84, 0, 170]",170,l,0.5102502420777455,colour,0.06
79,70,1,2,9,12,412,731.8745922707021,732.9601344906259,"[90, 0, 164]",164,l,0.5632174401544034,colour,0.06
79,70,1,2,9,13,413,733.4685340492288,734.5601332304068,"[52, 0, 202]",202,a,0.5693953122245148,colour,0.06
79,70,1,2,9,14,414,735.0779658000683,736.1441177884117,"[57, 0, 197]",197,a,0.543952451669611,colour,0.06
79,70,1,2,9,15,415,736.6562651877757,737.664238604717,"[23, 0, 231]",231,a,0.48574158491101116,colour,0.06
79,70,1,2,9,16,416,738.1720659047132,739.1521408300614,"[95, 0, 159]",159,l,0.4578478194307536,colour,0.06
79,70,1,2,9,17,417,739.6721115908585,740.7201147511369,"[96, 0, 158]",158,l,0.5257193405414,colour,0.06
79,70,1,2,9,18,418,741.234774101642,742.2881548383739,"[83, 0, 171]",171,l,0.5311760799959302,colour,0.06
79,70,1,2,9,19,419,742.7973928955616,743.880169921089,"[61, 0, 193]",193,a,0.5604073472786695,colour,0.06
79,70,1,2,9,20,420,744.3912649631966,745.4641292729648,"[63, 0, 191]",191,a,0.5505655237939209,colour,0.06
79,70,1,2,9,21,421,745.9695139386458,746.9441061306279,"[71, 0, 183]",183,a,0.45216540596447885,colour,0.06
79,70,1,2,9,22,422,747.4540499602444,748.6480936661828,"[73, 0, 181]",181,l,0.671788243111223,colour,0.06
79,70,1,2,9,23,423,749.157216720283,750.416151318932,"[78, 0, 176]",176,l,0.7366102127125487,colour,0.06
79,70,1,2,9,24,424,750.9230022741249,752.0801299849991,"[87, 0, 167]",167,l,0.6347985988250002,colour,0.06
79,70,1,2,9,25,425,752.5950217049103,753.9121045488864,"[99, 0, 155]",155,l,0.7949668026994914,colour,0.06
79,70,1,2,9,26,426,754.4233063233551,755.528110774816,"[70, 0, 184]",184,a,0.5825363855110481,colour,0.06
79,70,1,2,9,27,427,756.0484438742278,757.7841143698897,"[72, 0, 182]",182,a,1.2133445343934,colour,0.06
79,70,1,2,9,28,428,758.2986358742928,759.2801353413379,"[67, 0, 187]",187,a,0.45798330241814256,colour,0.06
79,70,1,2,9,29,429,759.8000178806251,760.9280994320288,"[91, 0, 163]",163,l,0.6057729192543775,colour,0.06
79,70,1,2,9,30,430,761.4407292930409,762.5281253471039,"[59, 0, 195]",195,a,0.5650598527863622,colour,0.06
79,70,1,2,9,31,431,763.0346568929963,764.1281248745508,"[68, 0, 186]",186,a,0.5711920387111604,colour,0.06
79,70,1,2,9,32,432,764.6441106991842,765.7041104156524,"[55, 0, 199]",199,a,0.5377600074280053,colour,0.06
79,70,1,2,9,33,433,766.222343526897,767.4001127188094,"[66, 0, 188]",188,a,0.655420781346038,colour,0.06
79,70,1,2,9,34,434,767.9100061361678,768.9281037643086,"[81, 0, 173]",173,l,0.4957921467721462,colour,0.06
79,70,1,2,9,35,435,769.441334240837,770.4881034807768,"[79, 0, 175]",175,l,0.5244314632145688,colour,0.06
79,70,1,2,9,36,436,771.0039589423686,771.9521252337145,"[97, 0, 157]",157,l,0.4258328469004482,colour,0.06
79,70,1,2,9,37,437,772.457297616289,773.4241511236178,"[58, 0, 196]",196,a,0.4446413676487282,colour,0.06
79,70,1,2,9,38,438,773.9416682224255,775.1201514576096,"[77, 0, 177]",177,l,0.6557122276863083,colour,0.06
79,70,1,2,9,39,439,775.6297435825691,776.6561096184887,"[54, 0, 200]",200,a,0.5043047392973676,colour,0.06
79,70,1,2,9,40,440,777.1610299394233,778.2561107212678,"[82, 0, 172]",172,l,0.5727666359161958,colour,0.06
79,70,1,2,9,41,441,778.7712147241691,779.8481135946931,"[85, 0, 169]",169,l,0.5546634937636554,colour,0.06
79,70,1,2,9,42,442,780.3651119980495,781.448112334474,"[53, 0, 201]",201,a,0.5611505351262167,colour,0.06
79,70,1,2,9,43,443,781.9590238443343,782.9281392105622,"[60, 0, 194]",194,a,0.4468197311507538,colour,0.06
79,70,1,2,9,44,444,783.4434365920024,784.7121310940711,"[65, 0, 189]",189,a,0.7463610577397048,colour,0.06
79,70,1,2,9,45,445,785.2248854105128,786.2481294273166,"[76, 0, 178]",178,l,0.5010369970696047,colour,0.06
79,70,1,2,9,46,446,786.7561863397714,787.7523388558766,"[62, 0, 192]",192,l,0.4738486101850867,colour,0.06
79,70,1,2,9,47,447,788.2719890258741,789.5282537409803,"[30, 0, 224]",224,a,0.7340265813982114,colour,0.06
79,70,1,2,9,48,448,790.0377340136329,791.0641536127077,"[92, 0, 162]",162,l,0.5041523207910359,colour,0.06
79,70,1,2,9,49,449,791.5847836721223,792.6961543279467,"[80, 0, 174]",174,l,0.5890439067734405,colour,0.06
79,70,1,2,9,50,450,793.2098885336891,794.2561410474591,"[69, 0, 185]",185,a,0.5240970879094675,colour,0.06
79,70,1,2,10,1,451,799.6627163890516,801.0481473079417,"[57, 0, 197]",197,l,0.8624027298064902,colour,0.06
79,70,1,2,10,2,452,801.5542897337582,802.5441253503086,"[67, 0, 187]",187,a,0.46756361215375364,colour,0.06
79,70,1,2,10,3,453,803.0544610569486,803.72010726796,"[82, 0, 172]",172,l,0.14345179439987987,colour,0.06
79,70,1,2,10,4,454,804.2263741492061,805.3281002985314,"[55, 0, 199]",199,a,0.5795943541452289,colour,0.06
79,70,1,2,10,5,455,805.8358637953643,806.8721208856441,"[18, 0, 236]",236,a,0.5139082858804613,colour,0.06
79,70,1,2,10,6,456,807.3829796201317,808.3201304262038,"[53, 0, 201]",201,a,0.41494142333976924,colour,0.06
79,70,1,2,10,7,457,808.8361320047406,809.8561610548059,"[69, 0, 185]",185,l,0.49770939035806805,colour,0.06
79,70,1,2,10,8,458,810.3674569585128,811.9201488582185,"[65, 0, 189]",189,l,1.030932683032006,colour,0.06
79,70,1,2,10,9,459,812.4307220540941,813.3681757278973,"[91, 0, 163]",163,l,0.41510486940387636,colour,0.06
79,70,1,2,10,10,460,813.8840193741489,815.1201498821611,"[50, 0, 204]",204,a,0.7138935559196398,colour,0.06
79,70,1,2,10,11,461,815.6340672264341,816.6001570658991,"[97, 0, 157]",157,l,0.44378081348259,colour,0.06
79,70,1,2,10,12,462,817.1186327864416,818.2961310122628,"[72, 0, 182]",182,l,0.6526567685650662,colour,0.06
79,70,1,2,10,13,463,818.808655716246,819.9361441351939,"[48, 0, 206]",206,a,0.6053219654131681,colour,0.06
79,70,1,2,10,14,464,820.4494726792909,821.4563374191057,"[64, 0, 190]",190,a,0.48460652003996074,colour,0.06
79,70,1,2,10,15,465,821.9651513039134,822.9841496584704,"[89, 0, 165]",165,l,0.4966700301738456,colour,0.06
79,70,1,2,10,16,466,823.4964908300899,824.552173204138,"[81, 0, 173]",173,l,0.5333111203508452,colour,0.06
79,70,1,2,10,17,467,825.0592029655818,826.1681073561776,"[70, 0, 184]",184,l,0.5866331739816815,colour,0.06
79,70,1,2,10,18,468,826.6842672609491,827.6641381739173,"[85, 0, 169]",169,l,0.4574862685985863,colour,0.06
79,70,1,2,10,19,469,828.1843515440123,829.1521246823249,"[94, 0, 160]",160,l,0.4452967277029529,colour,0.06
79,70,1,2,10,20,470,829.6689281318104,830.872144122608,"[63, 0, 191]",191,a,0.6811531188432127,colour,0.06
79,70,1,2,10,21,471,831.3879361748695,832.4321761344327,"[88, 0, 166]",166,l,0.522103832103312,colour,0.06
79,70,1,2,10,22,472,832.9503572579706,833.8881358549697,"[90, 0, 164]",164,l,0.41536559571977705,colour,0.06
79,70,1,2,10,23,473,834.4036675748648,835.4081554526929,"[60, 0, 194]",194,a,0.48221941804513335,colour,0.06
79,70,1,2,10,24,474,835.9194135472644,836.9201705197338,"[87, 0, 167]",167,l,0.47839753422886133,colour,0.06
79,70,1,2,10,25,475,837.4351792118978,838.360143627855,"[99, 0, 155]",155,l,0.4019429221516475,colour,0.06
79,70,1,2,10,26,476,838.8734394827625,839.9681524122134,"[58, 0, 196]",196,a,0.5724417127203196,colour,0.06
79,70,1,2,10,27,477,840.4830201074947,842.2481195812579,"[68, 0, 186]",186,a,1.242782570887357,colour,0.06
79,70,1,2,10,28,478,842.7644043351756,843.7521391758928,"[96, 0, 158]",158,l,0.4654892240650952,colour,0.06
79,70,1,2,10,29,479,844.2645213075448,845.2321089442121,"[59, 0, 195]",195,a,0.4452963338699192,colour,0.06
79,70,1,2,10,30,480,845.7495835076552,846.8241157562006,"[62, 0, 192]",192,a,0.5528734627878293,colour,0.06
79,70,1,2,10,31,481,847.3435351323569,848.4961379439337,"[79, 0, 175]",175,l,0.6373113378649577,colour,0.06
79,70,1,2,10,32,482,849.0084972324548,850.1281390530057,"[32, 0, 222]",222,a,0.5973855699412525,colour,0.06
79,70,1,2,10,33,483,850.6336131216958,851.2321743227076,"[80, 0, 174]",174,l,0.07630731351673603,colour,0.06
79,70,1,2,10,34,484,851.7430681094993,852.9121525981463,"[93, 0, 161]",161,l,0.6591875267913565,colour,0.06
79,70,1,2,10,35,485,853.4182769070612,854.6881675202167,"[66, 0, 188]",188,a,0.7476615380728617,colour,0.06
79,70,1,2,10,36,486,855.1996642855229,856.1521479192888,"[95, 0, 159]",159,l,0.4301415247609839,colour,0.06
79,70,1,2,10,37,487,856.6684862362454,857.8321254069451,"[98, 0, 156]",156,l,0.6413289632182568,colour,0.06
79,70,1,2,10,38,488,858.3405462332303,859.5841480043018,"[76, 0, 178]",178,l,0.721125754294917,colour,0.06
79,70,1,2,10,39,489,860.091092301067,861.4081716004293,"[74, 0, 180]",180,a,0.7947773627238348,colour,0.06
79,70,1,2,10,40,490,861.9193497442175,862.9761644260725,"[92, 0, 162]",162,l,0.534461151342839,colour,0.06
79,70,1,2,10,41,491,863.4820079226047,864.4241798743606,"[83, 0, 171]",171,l,0.41986725805327296,colour,0.06
79,70,1,2,10,42,492,864.9352162334835,865.9681346891448,"[84, 0, 170]",170,l,0.5105342051247135,colour,0.06
79,70,1,2,10,43,493,866.4822170550469,867.472151132999,"[56, 0, 198]",198,a,0.4675580982584506,colour,0.06
79,70,1,2,10,44,494,867.9823021257762,869.0241199309239,"[86, 0, 168]",168,l,0.5194217391544953,colour,0.06
79,70,1,2,10,45,495,869.5293844735716,870.4961206146982,"[51, 0, 203]",203,a,0.44467248138971627,colour,0.06
79,70,1,2,10,46,496,871.0137972212397,872.2241241057636,"[78, 0, 176]",176,l,0.6879386955406517,colour,0.06
79,70,1,2,10,47,497,872.7327296459116,874.0081431646831,"[61, 0, 193]",193,a,0.7531726282322779,colour,0.06
79,70,1,2,10,48,498,874.5141142674256,875.4961777223507,"[52, 0, 202]",202,a,0.45973434287589043,colour,0.06
79,70,1,2,10,49,499,876.0142584152054,876.9361327135703,"[54, 0, 200]",200,a,0.3999047679826617,colour,0.06
79,70,1,2,10,50,500,877.4518526920583,878.5761647411855,"[73, 0, 181]",181,a,0.6020707647548988,colour,0.06
79,70,1,2,11,1,501,883.9046868489822,885.088140423526,"[53, 0, 201]",201,a,0.6603009300306439,colour,0.06
79,70,1,2,11,2,502,885.6087653629947,886.9441518167732,"[66, 0, 188]",188,a,0.8130801847437397,colour,0.06
79,70,1,2,11,3,503,887.4526671661297,887.9845584708964,"[96, 0, 158]",158,l,0.009633478824980557,colour,0.06
79,70,1,2,11,4,504,888.4996534154052,889.4401613667142,"[88, 0, 166]",166,l,0.41822570702061057,colour,0.06
79,70,1,2,11,5,505,889.9528046183987,891.0081620693672,"[73, 0, 181]",181,l,0.5330141603481025,colour,0.06
79,70,1,2,11,6,506,891.5154761876911,892.4401692436077,"[50, 0, 204]",204,a,0.40238402993418276,colour,0.06
79,70,1,2,11,7,507,892.9530984277371,894.0961717359023,"[76, 0, 178]",178,l,0.6207536483416334,colour,0.06
79,70,1,2,11,8,508,894.6094526246889,895.5441844272427,"[79, 0, 175]",175,l,0.4124294719658792,colour,0.06
79,70,1,2,11,9,509,896.0627983878367,896.9201803659089,"[83, 0, 171]",171,l,0.3353399799671024,colour,0.06
79,70,1,2,11,10,510,897.4378337354865,898.5201373578748,"[52, 0, 202]",202,a,0.5599658456631005,colour,0.06
79,70,1,2,11,11,511,899.0316691754851,900.1361396453576,"[75, 0, 179]",179,l,0.5820476223016158,colour,0.06
79,70,1,2,11,12,512,900.6411540955305,901.6561529415194,"[54, 0, 200]",200,a,0.49263743846677244,colour,0.06
79,70,1,2,11,13,513,902.172567270929,903.1761422131676,"[78, 0, 176]",176,l,0.48129506094846874,colour,0.06
79,70,1,2,11,14,514,903.6882848863024,904.7041336524999,"[62, 0, 192]",192,a,0.493518078699708,colour,0.06
79,70,1,2,11,15,515,905.219677187968,906.2881579891546,"[55, 0, 199]",199,a,0.5462481814902276,colour,0.06
79,70,1,2,11,16,516,906.7980718864128,907.9121939520119,"[68, 0, 186]",186,a,0.5919603381771594,colour,0.06
79,70,1,2,11,17,517,908.4230924649164,909.5521645395784,"[86, 0, 168]",168,l,0.6067469010595232,colour,0.06
79,70,1,2,11,18,518,910.0648904989939,911.6801239985507,"[74, 0, 180]",180,l,1.0939445353578776,colour,0.06
79,70,1,2,11,19,519,912.1890115326969,913.256146561238,"[23, 0, 231]",231,a,0.5447889810893685,colour,0.06
79,70,1,2,11,20,520,913.7672668095911,915.8641525886487,"[63, 0, 191]",191,a,1.5745905376970768,colour,0.06
79,70,1,2,11,21,521,916.3767836311599,917.336129641626,"[92, 0, 162]",162,l,0.4373607261804864,colour,0.06
79,70,1,2,11,22,522,917.845690258895,918.8561287594493,"[91, 0, 163]",163,l,0.48831537005025893,colour,0.06
79,70,1,2,11,23,523,919.3614342620131,920.5281552794622,"[11, 0, 243]",243,a,0.6445293576689437,colour,0.06
79,70,1,2,11,24,524,921.033379255794,922.6401616029907,"[60, 0, 194]",194,a,1.0844177888939157,colour,0.06
79,70,1,2,11,25,525,923.1586448067101,924.2641605443787,"[82, 0, 172]",172,l,0.5832598810084164,colour,0.06
79,70,1,2,11,26,526,924.7838890898274,925.8321407670155,"[95, 0, 159]",159,l,0.5261506021488458,colour,0.06
79,70,1,2,11,27,527,926.346334197442,927.4801257315557,"[56, 0, 198]",198,a,0.6116880958434194,colour,0.06
79,70,1,2,11,28,528,927.9871629759436,929.0001756554702,"[90, 0, 164]",164,l,0.4906985335983336,colour,0.06
79,70,1,2,11,29,529,929.5184532713611,930.5283963133115,"[98, 0, 156]",156,l,0.48764071136247367,colour,0.06
79,70,1,2,11,30,530,931.0341441052733,932.1761422131676,"[51, 0, 203]",203,a,0.6196181896375492,colour,0.06
79,70,1,2,11,31,531,932.6905707698315,933.7281716634752,"[99, 0, 155]",155,l,0.5152548460755497,colour,0.06
79,70,1,2,11,32,532,934.2376401206711,935.2241508872248,"[87, 0, 167]",167,l,0.4642190698068589,colour,0.06
79,70,1,2,11,33,533,935.737776391441,936.7441665466176,"[84, 0, 170]",170,l,0.4843347661662847,colour,0.06
79,70,1,2,11,34,534,937.2535259084543,938.2561441981234,"[85, 0, 169]",169,l,0.4803943345323205,colour,0.06
79,70,1,2,11,35,535,938.7692447053269,939.8321931485552,"[59, 0, 195]",195,a,0.5406764388317242,colour,0.06
79,70,1,2,11,36,536,940.3474873792147,941.344179464737,"[97, 0, 157]",157,l,0.4743420995073393,colour,0.06
79,70,1,2,11,37,537,941.8631963300286,943.2721729520708,"[71, 0, 183]",183,l,0.8870378115680069,colour,0.06
79,70,1,2,11,38,538,943.7852502224268,945.1201995067531,"[69, 0, 185]",185,a,0.8127363569801673,colour,0.06
79,70,1,2,11,39,539,945.6290960992919,946.6001866044244,"[80, 0, 174]",174,l,0.4489319284912199,colour,0.06
79,70,1,2,11,40,540,947.1136998623842,948.2161632918287,"[61, 0, 193]",193,a,0.5803139111958444,colour,0.06
79,70,1,2,11,41,541,948.7231906901579,949.8321407670155,"[89, 0, 165]",165,l,0.5867174570448697,colour,0.06
79,70,1,2,11,42,542,950.3482644378673,951.3361520908074,"[57, 0, 197]",197,a,0.4655160054098815,colour,0.06
79,70,1,2,11,43,543,951.8483861363493,952.800187234534,"[67, 0, 187]",187,a,0.42937903839629143,colour,0.06
79,70,1,2,11,44,544,953.3173585364129,954.2641609382117,"[65, 0, 189]",189,a,0.4246099543524906,colour,0.06
79,70,1,2,11,45,545,954.7704916225048,955.7121862325585,"[44, 0, 210]",210,a,0.4194533256813884,colour,0.06
79,70,1,2,11,46,546,956.2237519209739,957.4401424621465,"[72, 0, 182]",182,a,0.6940819090232253,colour,0.06
79,70,1,2,11,47,547,957.9582448164001,958.8961577150039,"[64, 0, 190]",190,a,0.4155786664923653,colour,0.06
79,70,1,2,11,48,548,959.4114747887943,960.4801828392083,"[94, 0, 160]",160,l,0.546485670725815,colour,0.06
79,70,1,2,11,49,549,960.9897351857508,962.2801377044525,"[77, 0, 177]",177,l,0.7679946373682469,colour,0.06
79,70,1,2,11,50,550,962.7867381734541,963.7682029821444,"[81, 0, 173]",173,l,0.4590994627214968,colour,0.06
79,70,1,2,12,1,551,969.2312279101461,970.480243491591,"[76, 0, 178]",178,l,0.7258530906401575,colour,0.06
79,70,1,2,12,2,552,970.9978771688184,972.0481969326502,"[41, 0, 213]",213,a,0.528126134769991,colour,0.06
79,70,1,2,12,3,553,972.5604231011821,973.5761521380628,"[99, 0, 155]",155,l,0.49351059563923627,colour,0.06
79,70,1,2,12,4,554,974.0918335196329,975.0801839419873,"[79, 0, 175]",175,l,0.46610283642075956,colour,0.06
79,70,1,2,12,5,555,975.5919378888793,976.5601962457877,"[86, 0, 168]",168,l,0.4459741432219744,colour,0.06
79,70,1,2,12,6,556,977.076351818163,978.0641721234424,"[59, 0, 195]",195,a,0.46547268237918615,colour,0.06
79,70,1,2,12,7,557,978.5765164458426,979.6481602261774,"[88, 0, 166]",166,l,0.5493568097008392,colour,0.06
79,70,1,2,12,8,558,980.1547469105572,981.0962260867236,"[96, 0, 158]",158,l,0.4192024456569925,colour,0.06
79,70,1,2,12,9,559,981.6080316274893,982.5441509502707,"[93, 0, 161]",161,l,0.41385795222595334,colour,0.06
79,70,1,2,12,10,560,983.0612174890703,984.0482363172341,"[63, 0, 191]",191,a,0.4647747869603336,colour,0.06
79,70,1,2,12,11,561,984.5613462767797,985.6801744109252,"[54, 0, 200]",200,a,0.5966033913427964,colour,0.06
79,70,1,2,12,12,562,986.1865129721118,987.2481187934754,"[65, 0, 189]",189,a,0.5393160938983783,colour,0.06
79,70,1,2,12,13,563,987.7647450121585,988.8321714870399,"[80, 0, 174]",174,l,0.5450544335180894,colour,0.06
79,70,1,2,12,14,564,989.3430503075942,990.2401946072932,"[89, 0, 165]",165,l,0.3749022276606411,colour,0.06
79,70,1,2,12,15,565,990.7493716183817,991.8001521822298,"[85, 0, 169]",169,l,0.5284628733061254,colour,0.06
79,70,1,2,12,16,566,992.3119494522689,993.3121759138303,"[98, 0, 156]",156,l,0.4780710357008502,colour,0.06
79,70,1,2,12,17,567,993.8276993629988,994.9761502476176,"[83, 0, 171]",171,l,0.6261446155840531,colour,0.06
79,70,1,2,12,18,568,995.4840551353991,996.448186377529,"[67, 0, 187]",187,a,0.44181788386777043,colour,0.06
79,70,1,2,12,19,569,996.9686372369761,997.9841961322818,"[90, 0, 164]",164,l,0.49326877400744706,colour,0.06
79,70,1,2,12,20,570,998.5000236307969,999.4641804730054,"[84, 0, 170]",170,l,0.4419116193894297,colour,0.06
79,70,1,2,12,21,571,999.9844080215553,1001.0801756712608,"[91, 0, 163]",163,l,0.573451534495689,colour,0.06
79,70,1,2,12,22,572,1001.5939354769653,1002.712203561794,"[56, 0, 198]",198,a,0.5959247942082584,colour,0.06
79,70,1,2,12,23,573,1003.2190864186268,1004.3041607491905,"[46, 0, 208]",208,a,0.5628121723420918,colour,0.06
79,70,1,2,12,24,574,1004.8129817232257,1005.8161458838731,"[62, 0, 192]",192,a,0.48117139330133796,colour,0.06
79,70,1,2,12,25,575,1006.3286981571,1007.4961773285177,"[60, 0, 194]",194,a,0.6453170501627028,colour,0.06
79,70,1,2,12,26,576,1008.0163658863166,1009.0082160262391,"[82, 0, 172]",172,l,0.46950684930197895,colour,0.06
79,70,1,2,12,27,577,1009.5164824648527,1010.576166316634,"[53, 0, 201]",201,a,0.5373874289216474,colour,0.06
79,70,1,2,12,28,578,1011.0947247449076,1012.1442190068774,"[61, 0, 193]",193,a,0.52725376538001,colour,0.06
79,70,1,2,12,29,579,1012.6572903695051,1013.7681608404964,"[87, 0, 167]",167,l,0.5885193035937846,colour,0.06
79,70,1,2,12,30,580,1014.282446037163,1015.360153080197,"[52, 0, 202]",202,a,0.555390533991158,colour,0.06
79,70,1,2,12,31,581,1015.8763767880155,1016.8643191856099,"[77, 0, 177]",177,l,0.46563455322757363,colour,0.06
79,70,1,2,12,32,582,1017.3764756433666,1018.3361576047027,"[55, 0, 199]",199,a,0.43783452315256,colour,0.06
79,70,1,2,12,33,583,1018.8453692742623,1019.7682254313258,"[74, 0, 180]",180,l,0.40076807886362076,colour,0.06
79,70,1,2,12,34,584,1020.2829249541974,1021.4001465896145,"[72, 0, 182]",182,l,0.5951055941404775,colour,0.06
79,70,1,2,12,35,585,1021.9081302465638,1022.9361906090053,"[97, 0, 157]",157,l,0.5058501919265836,colour,0.06
79,70,1,2,12,36,586,1023.4550751419738,1025.5601572549203,"[71, 0, 183]",183,a,1.5827809639740735,colour,0.06
79,70,1,2,12,37,587,1026.0802875235677,1026.7362037635176,"[95, 0, 159]",159,l,0.1336588078411296,colour,0.06
79,70,1,2,12,38,588,1027.2522679636022,1028.416175737395,"[50, 0, 204]",204,a,0.6416869694367051,colour,0.06
79,70,1,2,12,39,589,1028.9242444650736,1030.0481831480283,"[69, 0, 185]",185,a,0.601641078479588,colour,0.06
79,70,1,2,12,40,590,1030.565242597484,1031.5041794962017,"[73, 0, 181]",181,a,0.4152253863867372,colour,0.06
79,70,1,2,12,41,591,1032.0199490993982,1032.7121917464538,"[66, 0, 188]",188,a,0.16998167044948786,colour,0.06
79,70,1,2,12,42,592,1033.2231402777834,1034.2801987505518,"[81, 0, 173]",173,l,0.5347466898383573,colour,0.06
79,70,1,2,12,43,593,1034.7857307147933,1035.8002073207172,"[45, 0, 209]",209,a,0.49222508154343814,colour,0.06
79,70,1,2,12,44,594,1036.3171218348434,1037.2961798491888,"[51, 0, 203]",203,a,0.4568320900434628,colour,0.06
79,70,1,2,12,45,595,1037.8015645148698,1038.7281834788155,"[75, 0, 179]",179,a,0.4041602765209973,colour,0.06
79,70,1,2,12,46,596,1039.2392544964096,1040.3042056476697,"[92, 0, 162]",162,l,0.5426791468635201,colour,0.06
79,70,1,2,12,47,597,1040.8174794472288,1042.0881845343392,"[64, 0, 190]",190,a,0.7483413165900856,colour,0.06
79,70,1,2,12,48,598,1042.5988687948557,1043.6721856339136,"[58, 0, 196]",196,a,0.5510452284943312,colour,0.06
79,70,1,2,12,49,599,1044.1928255395032,1045.176294237841,"[78, 0, 176]",176,l,0.4611970877740532,colour,0.06
79,70,1,2,12,50,600,1045.6944379460765,1046.656188781606,"[68, 0, 186]",186,a,0.4410459453938529,colour,0.06
79,70,1,2,13,1,601,1061.7787773595192,1063.9762014476582,"[50, 0, 204]",204,l,1.6746814374346286,colour,0.06
79,70,1,2,13,2,602,1064.4829492151039,1065.2002708087675,"[46, 0, 208]",208,a,0.19510197080671787,colour,0.06
79,70,1,2,13,3,603,1065.717439747532,1066.8801915826043,"[67, 0, 187]",187,a,0.6405771108111367,colour,0.06
79,70,1,2,13,4,604,1067.3893429936143,1068.3282145139528,"[89, 0, 165]",165,l,0.4165554051287472,colour,0.06
79,70,1,2,13,5,605,1068.8425981721375,1069.7681805328466,"[87, 0, 167]",167,l,0.40324773476459086,colour,0.06
79,70,1,2,13,6,606,1070.280202295282,1071.2082198072458,"[54, 0, 200]",200,a,0.40604601230006665,colour,0.06
79,70,1,2,13,7,607,1071.7178135075374,1072.6481708600186,"[69, 0, 185]",185,a,0.40808219730388373,colour,0.06
79,70,1,2,13,8,608,1073.1554203876294,1074.1361561868107,"[98, 0, 156]",156,l,0.4583913271781057,colour,0.06
79,70,1,2,13,9,609,1074.6556149476673,1075.5921852244064,"[83, 0, 171]",171,l,0.41481539246160537,colour,0.06
79,70,1,2,13,10,610,1076.1087500030408,1077.1521865162067,"[93, 0, 161]",161,l,0.5211215795716271,colour,0.06
79,70,1,2,13,11,611,1077.6714042429812,1078.8001986560412,"[71, 0, 183]",183,l,0.6072065195767209,colour,0.06
79,70,1,2,13,12,612,1079.3121896984521,1080.288190284511,"[97, 0, 157]",157,l,0.45385736937168986,colour,0.06
79,70,1,2,13,13,613,1080.7966812154045,1081.8482132378267,"[74, 0, 180]",180,a,0.5296656796708703,colour,0.06
79,70,1,2,13,14,614,1082.3592850430869,1083.3682418940589,"[52, 0, 202]",202,a,0.4866249819751829,colour,0.06
79,70,1,2,13,15,615,1083.8750227446435,1084.6322220568545,"[51, 0, 203]",203,a,0.23544915404636413,colour,0.06
79,70,1,2,13,16,616,1085.1406968400115,1086.2642097751377,"[99, 0, 155]",155,l,0.6011338045354933,colour,0.06
79,70,1,2,13,17,617,1086.7814342462225,1087.8002817576053,"[55, 0, 199]",199,a,0.49689334083814174,colour,0.06
79,70,1,2,13,18,618,1088.3129332801327,1089.272178072133,"[90, 0, 164]",164,l,0.4371949168853462,colour,0.06
79,70,1,2,13,19,619,1089.7817363262875,1090.7922524145106,"[75, 0, 179]",179,l,0.4881200222298503,colour,0.06
79,70,1,2,13,20,620,1091.297462606337,1092.3202088015387,"[62, 0, 192]",192,a,0.5003895139088854,colour,0.06
79,70,1,2,13,21,621,1092.828902957146,1093.8722067441558,"[82, 0, 172]",172,l,0.5211940472945571,colour,0.06
79,70,1,2,13,22,622,1094.391524507897,1095.384200543398,"[63, 0, 191]",191,a,0.4703406218905002,colour,0.06
79,70,1,2,13,23,623,1095.8916871664114,1097.0962193913292,"[81, 0, 173]",173,l,0.6822476173983887,colour,0.06
79,70,1,2,13,24,624,1097.6104971049353,1098.680252392427,"[57, 0, 197]",197,a,0.5474513815715909,colour,0.06
79,70,1,2,13,25,625,1099.1916766901268,1100.1922721855808,"[66, 0, 188]",188,a,0.47886148502584547,colour,0.06
79,70,1,2,13,26,626,1100.7086380718974,1101.7522439389722,"[60, 0, 194]",194,a,0.5206418748712167,colour,0.06
79,70,1,2,13,27,627,1102.256832641433,1103.7362234557513,"[79, 0, 175]",175,a,0.9568986499216408,colour,0.06
79,70,1,2,13,28,628,1104.243876675726,1105.2562639274402,"[95, 0, 159]",159,l,0.49260632472578436,colour,0.06
79,70,1,2,13,29,629,1105.7727097645402,1106.7603457497898,"[88, 0, 166]",166,l,0.4656936301616952,colour,0.06
79,70,1,2,13,30,630,1107.2729216538137,1108.368203297141,"[70, 0, 184]",184,a,0.5858517830492929,colour,0.06
79,70,1,2,13,31,631,1108.8858023160137,1109.680187014048,"[26, 0, 228]",228,a,0.27212529676035047,colour,0.06
79,70,1,2,13,32,632,1110.1984780206112,1111.4562098130118,"[68, 0, 186]",186,a,0.7354081941302866,colour,0.06
79,70,1,2,13,33,633,1111.9642159191426,1112.9441908075241,"[96, 0, 158]",158,l,0.4576796470209956,colour,0.06
79,70,1,2,13,34,634,1113.4643364361254,1114.3921830188483,"[77, 0, 177]",177,l,0.40551116911228746,colour,0.06
79,70,1,2,13,35,635,1114.901941346936,1115.91219631501,"[11, 0, 243]",243,a,0.48794672987423837,colour,0.06
79,70,1,2,13,36,636,1116.4175927961478,1117.3842218110804,"[73, 0, 181]",181,l,0.4565859360154718,colour,0.06
79,70,1,2,13,37,637,1117.889712027507,1118.8961742565734,"[91, 0, 163]",163,l,0.4841921938350424,colour,0.06
79,70,1,2,13,38,638,1119.4054796614219,1120.384191484889,"[85, 0, 169]",169,l,0.4564256406156346,colour,0.06
79,70,1,2,13,39,639,1120.8900192276342,1121.8641892164014,"[84, 0, 170]",170,l,0.45188223058357835,colour,0.06
79,70,1,2,13,40,640,1122.3749790277798,1123.3441967939725,"[78, 0, 176]",176,l,0.44745697430334985,colour,0.06
79,70,1,2,13,41,641,1123.859466212336,1125.0641949665733,"[76, 0, 178]",178,l,0.6824350883252919,colour,0.06
79,70,1,2,13,42,642,1125.5783364092931,1126.5442104210379,"[64, 0, 190]",190,a,0.4436429673805833,colour,0.06
79,70,1,2,13,43,643,1127.0628472247627,1127.984224883141,"[65, 0, 189]",189,a,0.39936716796364635,colour,0.06
79,70,1,2,13,44,644,1128.5005427201977,1129.5842102320166,"[80, 0, 174]",174,l,0.5616806522011757,colour,0.06
79,70,1,2,13,45,645,1130.0943210524274,1131.0401967341313,"[94, 0, 160]",160,l,0.4242224097251892,colour,0.06
79,70,1,2,13,46,646,1131.5476112832548,1132.5361728072166,"[58, 0, 196]",196,a,0.4663210272556171,colour,0.06
79,70,1,2,13,47,647,1133.0477471601916,1134.000243003131,"[59, 0, 195]",195,a,0.4302269893232733,colour,0.06
79,70,1,2,13,48,648,1134.5166443355847,1135.464183229953,"[92, 0, 162]",162,l,0.4251601576106623,colour,0.06
79,70,1,2,13,49,649,1135.9697482772171,1136.968179981457,"[72, 0, 182]",182,a,0.4761037736898288,colour,0.06
79,70,1,2,13,50,650,1137.485604920308,1138.4081857788842,"[56, 0, 198]",198,a,0.4003746265079826,colour,0.06
79,70,1,2,14,1,651,1143.9071594156558,1146.888229590375,"[80, 0, 174]",174,l,2.457973850192502,colour,0.06
79,70,1,2,14,2,652,1147.4081779019907,1148.3682257464388,"[94, 0, 160]",160,l,0.4377136123366654,colour,0.06
79,70,1,2,14,3,653,1148.8770845297258,1149.8562020148383,"[55, 0, 199]",199,a,0.4568604469532147,colour,0.06
79,70,1,2,14,4,654,1150.3616134619806,1151.2722875613254,"[99, 0, 155]",155,l,0.38855845190119,colour,0.06
79,70,1,2,14,5,655,1151.7835192681523,1152.7202199080493,"[57, 0, 197]",197,a,0.4143797985743731,colour,0.06
79,70,1,2,14,6,656,1153.2368532159599,1154.2722032782622,"[51, 0, 203]",203,a,0.5130741194589064,colour,0.06
79,70,1,2,14,7,657,1154.7838158344384,1155.696205921704,"[93, 0, 161]",161,l,0.39014013833366334,colour,0.06
79,70,1,2,14,8,658,1156.2057649636408,1157.0561959495535,"[63, 0, 191]",191,a,0.32806800305843353,colour,0.06
79,70,1,2,14,9,659,1157.5652705605607,1158.560192307341,"[95, 0, 159]",159,l,0.47261114546563476,colour,0.06
79,70,1,2,14,10,660,1159.065217391355,1159.968218972208,"[79, 0, 175]",175,l,0.38046333636157215,colour,0.06
79,70,1,2,14,11,661,1160.4874240959762,1161.4802241930738,"[29, 0, 225]",225,a,0.4705655080033466,colour,0.06
79,70,1,2,14,12,662,1161.9874626930105,1162.9522205444518,"[86, 0, 168]",168,l,0.4424177117180079,colour,0.06
79,70,1,2,14,13,663,1163.47201368073,1164.7441696973983,"[71, 0, 183]",183,a,0.749867076985538,colour,0.06
79,70,1,2,14,14,664,1165.2534093299182,1166.2802145044552,"[88, 0, 166]",166,l,0.5045170224038884,colour,0.06
79,70,1,2,14,15,665,1166.800514520728,1167.7122319188202,"[96, 0, 158]",158,l,0.38962892605923116,colour,0.06
79,70,1,2,14,16,666,1168.2223218653817,1169.3122011199594,"[58, 0, 196]",196,a,0.567537933238782,colour,0.06
79,70,1,2,14,17,667,1169.8319273022935,1170.8961970995879,"[75, 0, 179]",179,l,0.5420123651856557,colour,0.06
79,70,1,2,14,18,668,1171.410124683869,1172.6162366260542,"[64, 0, 190]",190,a,0.683867113199085,colour,0.06
79,70,1,2,14,19,669,1173.1291024008533,1174.120353500708,"[97, 0, 157]",157,l,0.4692067386349663,colour,0.06
79,70,1,2,14,20,670,1174.6313071521,1175.5922163381474,"[61, 0, 193]",193,a,0.43868326174560934,colour,0.06
79,70,1,2,14,21,671,1176.1002082659397,1176.9601801767712,"[68, 0, 186]",186,a,0.3377522879745811,colour,0.06
79,70,1,2,14,22,672,1177.4752518844325,1178.5841901458334,"[98, 0, 156]",156,l,0.5865760662127286,colour,0.06
79,70,1,2,14,23,673,1179.1004559951834,1179.9601868721657,"[67, 0, 187]",187,a,0.33748053410090506,colour,0.06
79,70,1,2,14,24,674,1180.4755232444732,1181.4321993712801,"[76, 0, 178]",178,l,0.4344198763137683,colour,0.06
79,70,1,2,14,25,675,1181.9443723706063,1183.2721843736945,"[73, 0, 181]",181,a,0.8055297586834058,colour,0.06
79,70,1,2,14,26,676,1183.7882087952457,1184.7922299653292,"[50, 0, 204]",204,a,0.48158532567322254,colour,0.06
79,70,1,2,14,27,677,1185.304069770733,1186.2801904798253,"[56, 0, 198]",198,a,0.4538613078184426,colour,0.06
79,70,1,2,14,28,678,1186.7884864568477,1187.9922286261572,"[74, 0, 180]",180,l,0.6814292048802599,colour,0.06
79,70,1,2,14,29,679,1188.5073857983807,1189.440214142087,"[54, 0, 200]",200,a,0.4105386162409559,colour,0.06
79,70,1,2,14,30,680,1189.960674453876,1190.6401942922967,"[66, 0, 188]",188,a,0.15736480639316142,colour,0.06
79,70,1,2,14,31,681,1191.1481905522523,1192.1442300345516,"[90, 0, 164]",164,l,0.4736768932780251,colour,0.06
79,70,1,2,14,32,682,1192.6641358108027,1193.6562364369165,"[77, 0, 177]",177,l,0.47005272016394883,colour,0.06
79,70,1,2,14,33,683,1194.164122813847,1195.3042229769053,"[72, 0, 182]",182,a,0.6178344601066783,colour,0.06
79,70,1,2,14,34,684,1195.8204880385892,1196.7522254281212,"[70, 0, 184]",184,a,0.4100333114620298,colour,0.06
79,70,1,2,14,35,685,1197.2581256385893,1197.8882244703127,"[69, 0, 185]",185,a,0.10783667350187898,colour,0.06
79,70,1,2,14,36,686,1198.3987976663047,1199.4721869730856,"[60, 0, 194]",194,a,0.5510408962145448,colour,0.06
79,70,1,2,14,37,687,1199.9927020294126,1200.7922291775467,"[85, 0, 169]",169,l,0.2772665653610602,colour,0.06
79,70,1,2,14,38,688,1201.3052745462628,1202.3602243664209,"[82, 0, 172]",172,l,0.5326474895700812,colour,0.06
79,70,1,2,14,39,689,1202.8678803432267,1203.9602234999184,"[52, 0, 202]",202,a,0.5700975399231538,colour,0.06
79,70,1,2,14,40,690,1204.4773849556223,1205.54421987338,"[59, 0, 195]",195,a,0.5445191964972764,colour,0.06
79,70,1,2,14,41,691,1206.0556555925868,1207.1282205791213,"[91, 0, 163]",163,l,0.5502445391612127,colour,0.06
79,70,1,2,14,42,692,1207.6339994849404,1208.6962374295108,"[81, 0, 173]",173,l,0.5400368325645104,colour,0.06
79,70,1,2,14,43,693,1209.212187020341,1210.1762103486108,"[36, 0, 218]",218,a,0.4419384008506313,colour,0.06
79,70,1,2,14,44,694,1210.6966017371742,1211.5283915871987,"[8, 0, 246]",246,a,0.3097285532858223,colour,0.06
79,70,1,2,14,45,695,1212.0403936572839,1212.952224876848,"[53, 0, 201]",201,a,0.3894331844057888,colour,0.06
79,70,1,2,14,46,696,1213.4624392788392,1214.512195448624,"[78, 0, 176]",176,l,0.527633433113806,colour,0.06
79,70,1,2,14,47,697,1215.0251269957516,1217.1602320070378,"[65, 0, 189]",189,l,1.6128050438128412,colour,0.06
79,70,1,2,14,48,698,1217.6659175711684,1218.5522393702995,"[83, 0, 171]",171,l,0.3639265209203586,colour,0.06
79,70,1,2,14,49,699,1219.072297565057,1219.9362103013555,"[92, 0, 162]",162,l,0.3416155257727951,colour,0.06
79,70,1,2,14,50,700,1220.4506786364364,1221.5442423225613,"[84, 0, 170]",170,l,0.5712652939837426,colour,0.06
79,70,1,2,15,1,701,1231.3413319564424,1232.4002659249818,"[73, 0, 181]",181,l,0.5358155885478482,colour,0.06
79,70,1,2,15,2,702,1232.920419824426,1234.040199097246,"[67, 0, 187]",187,a,0.5974978161975741,colour,0.06
79,70,1,2,15,3,703,1234.5454707290046,1235.4241956281476,"[89, 0, 165]",165,l,0.3564942486118525,colour,0.06
79,70,1,2,15,4,704,1235.9362229043618,1236.8321998439496,"[58, 0, 196]",196,a,0.373687605955638,colour,0.06
79,70,1,2,15,5,705,1237.3425154644065,1238.2482361596776,"[60, 0, 194]",194,a,0.38331675238441676,colour,0.06
79,70,1,2,15,6,706,1238.7646363106323,1239.7602299590362,"[55, 0, 199]",199,a,0.47324287483934313,colour,0.06
79,70,1,2,15,7,707,1240.2803614090662,1241.2402040596353,"[74, 0, 180]",180,l,0.43784870160743594,colour,0.06
79,70,1,2,15,8,708,1241.7492243199376,1242.8401968916878,"[62, 0, 192]",192,a,0.5687119889771566,colour,0.06
79,70,1,2,15,9,709,1243.3586789137917,1245.2961991475895,"[65, 0, 189]",189,a,1.4152635894715786,colour,0.06
79,70,1,2,15,10,710,1245.8120435815072,1246.680227580131,"[52, 0, 202]",202,a,0.3460675635142252,colour,0.06
79,70,1,2,15,11,711,1247.187097833841,1248.5042499947594,"[51, 0, 203]",203,a,0.7948183227563277,colour,0.06
79,70,1,2,15,12,712,1249.0153903291794,1250.1122422375483,"[61, 0, 193]",193,a,0.5745050731347874,colour,0.06
79,70,1,2,15,13,713,1250.6249142399756,1251.5441993933637,"[90, 0, 164]",164,l,0.3969843981321901,colour,0.06
79,70,1,2,15,14,714,1252.0625636554323,1253.0082006662851,"[71, 0, 183]",183,l,0.4234264465048909,colour,0.06
79,70,1,2,15,15,715,1253.5157786615891,1254.456212963676,"[78, 0, 176]",176,l,0.41815323918126523,colour,0.06
79,70,1,2,15,16,716,1254.9689767323434,1256.9282128597843,"[66, 0, 188]",188,l,1.4369184367824346,colour,0.06
79,70,1,2,15,17,717,1257.4382417602465,1258.9602187738055,"[76, 0, 178]",178,l,0.9999460431281477,colour,0.06
79,70,1,2,15,18,718,1259.4693225293886,1260.4643844853854,"[56, 0, 198]",198,a,0.4727710470324382,colour,0.06
79,70,1,2,15,19,719,1260.9694584063254,1262.0562148542376,"[46, 0, 208]",208,a,0.5645297358278185,colour,0.06
79,70,1,2,15,20,720,1262.5633544987068,1263.5122151408577,"[50, 0, 204]",204,a,0.4267662623897195,colour,0.06
79,70,1,2,15,21,721,1264.0322000802262,1264.952263473766,"[92, 0, 162]",162,l,0.3979091491783038,colour,0.06
79,70,1,2,15,22,722,1265.4699073910015,1266.7682553636841,"[68, 0, 186]",186,a,0.7760936913546175,colour,0.06
79,70,1,2,15,23,723,1267.282537015737,1268.2482605781406,"[80, 0, 174]",174,l,0.443349945708178,colour,0.06
79,70,1,2,15,24,724,1268.7669942680513,1269.8882075349102,"[77, 0, 177]",177,l,0.5989463825244457,colour,0.06
79,70,1,2,15,25,725,1270.4077277356992,1271.688443212537,"[88, 0, 166]",166,l,0.7588455894729123,colour,0.06
79,70,1,2,15,26,726,1272.2047409634106,1273.576221455005,"[84, 0, 170]",170,l,0.8490367701742798,colour,0.06
79,70,1,2,15,27,727,1274.0955167696811,1275.4722204499412,"[75, 0, 179]",179,l,0.8545214728219435,colour,0.06
79,70,1,2,15,28,728,1275.9862910003867,1277.0642189912032,"[59, 0, 195]",195,a,0.555754447937943,colour,0.06
79,70,1,2,15,29,729,1277.5801402250072,1278.7522439389722,"[57, 0, 197]",197,a,0.6488947493489832,colour,0.06
79,70,1,2,15,30,730,1279.2678241019603,1280.2722225767793,"[82, 0, 172]",172,l,0.482103627291508,colour,0.06
79,70,1,2,15,31,731,1280.7836106405593,1281.7042380217463,"[54, 0, 200]",200,a,0.3983289891621098,colour,0.06
79,70,1,2,15,32,732,1282.2211883759592,1283.272256447468,"[72, 0, 182]",182,l,0.5286920918151736,colour,0.06
79,70,1,2,15,33,733,1283.7837831451325,1284.8322427731473,"[94, 0, 160]",160,l,0.5261364235775545,colour,0.06
79,70,1,2,15,34,734,1285.346431871294,1286.4643982700072,"[97, 0, 157]",157,l,0.5962012744275853,colour,0.06
79,70,1,2,15,35,735,1286.972589877667,1288.0562451803125,"[91, 0, 163]",163,l,0.5612564797047526,colour,0.06
79,70,1,2,15,36,736,1288.5665403208695,1289.472224388388,"[85, 0, 169]",169,l,0.38336243852972984,colour,0.06
79,70,1,2,15,37,737,1289.9885792470304,1291.1922237424878,"[44, 0, 210]",210,a,0.6812645772006363,colour,0.06
79,70,1,2,15,38,738,1291.7074195116293,1292.848224659334,"[79, 0, 175]",175,l,0.6185307801933959,colour,0.06
79,70,1,2,15,39,739,1293.3638674439862,1295.8642478995025,"[70, 0, 184]",184,l,1.9785322296665981,colour,0.06
79,70,1,2,15,40,740,1296.379658314865,1297.4722161176614,"[64, 0, 190]",190,a,0.5703496015630662,colour,0.06
79,70,1,2,15,41,741,1297.9891802563798,1298.9762368937954,"[81, 0, 173]",173,l,0.46483307611197233,colour,0.06
79,70,1,2,15,42,742,1299.4771486478858,1300.6082372152014,"[53, 0, 201]",201,a,0.6087082552257925,colour,0.06
79,70,1,2,15,43,743,1301.1180955802556,1302.1442335791653,"[95, 0, 159]",159,l,0.5047911393921822,colour,0.06
79,70,1,2,15,44,744,1302.649196829414,1303.6962457002373,"[99, 0, 155]",155,l,0.5245378017425537,colour,0.06
79,70,1,2,15,45,745,1304.2119885217398,1305.2084147611167,"[25, 0, 229]",229,a,0.4741727457148954,colour,0.06
79,70,1,2,15,46,746,1305.727704167948,1306.6882218709216,"[98, 0, 156]",156,l,0.4389061786932871,colour,0.06
79,70,1,2,15,47,747,1307.1966072510695,1308.1762327977922,"[87, 0, 167]",167,l,0.45762962859589607,colour,0.06
79,70,1,2,15,48,748,1308.6968061433872,1309.6002307151211,"[86, 0, 168]",168,l,0.3814916688716039,colour,0.06
79,70,1,2,15,49,749,1310.118730854243,1311.712211832637,"[63, 0, 191]",191,a,1.0711242971010506,colour,0.06
79,70,1,2,15,50,750,1312.2282508264761,1313.2082418625942,"[96, 0, 158]",158,l,0.45777220092713833,colour,0.06
79,70,1,2,16,1,751,1319.7437049588189,1321.3682560725138,"[56, 0, 198]",198,a,1.1014642415102571,colour,0.06
79,70,1,2,16,2,752,1321.8852395097492,1323.5522192842327,"[76, 0, 178]",178,l,1.144624668522738,colour,0.06
79,70,1,2,16,3,753,1324.0573893036926,1324.9602053830167,"[61, 0, 193]",193,a,0.3805909426882863,colour,0.06
79,70,1,2,16,4,754,1325.4792931405827,1326.384239140316,"[82, 0, 172]",172,l,0.38283941079862416,colour,0.06
79,70,1,2,16,5,755,1326.9012733836425,1327.8562157994602,"[86, 0, 168]",168,l,0.4326215744949877,colour,0.06
79,70,1,2,16,6,756,1328.3701532299165,1329.3042245522374,"[79, 0, 175]",175,l,0.41221837035845965,colour,0.06
79,70,1,2,16,7,757,1329.8233820206951,1330.7522163697286,"[70, 0, 184]",184,l,0.4056836738018319,colour,0.06
79,70,1,2,16,8,758,1331.2618368515978,1332.1762517024763,"[85, 0, 169]",169,l,0.3922932957066223,colour,0.06
79,70,1,2,16,9,759,1332.683807248599,1333.6322504137643,"[87, 0, 167]",167,l,0.42618140077684075,colour,0.06
79,70,1,2,16,10,760,1334.1526181716472,1335.2082131118514,"[75, 0, 179]",179,l,0.5332819757750258,colour,0.06
79,70,1,2,16,11,761,1335.715312583954,1336.6562454954255,"[93, 0, 161]",161,l,0.4185750485630706,colour,0.06
79,70,1,2,16,12,762,1337.16848859936,1338.176230828627,"[68, 0, 186]",186,a,0.4853020525770262,colour,0.06
79,70,1,2,16,13,763,1338.684271593229,1339.984231184586,"[8, 0, 246]",246,a,0.7776355992536992,colour,0.06
79,70,1,2,16,14,764,1340.498074485804,1341.4082298896974,"[50, 0, 204]",204,a,0.38786095019895583,colour,0.06
79,70,1,2,16,15,765,1341.9201508273836,1344.1522751315497,"[74, 0, 180]",180,a,1.707644397742115,colour,0.06
79,70,1,2,16,16,766,1344.6724904709263,1345.736225425033,"[59, 0, 195]",195,a,0.5414597989292815,colour,0.06
79,70,1,2,16,17,767,1346.250745747937,1347.224252893473,"[84, 0, 170]",170,l,0.4511551904724911,colour,0.06
79,70,1,2,16,18,768,1347.7351667663315,1348.7762197221164,"[52, 0, 202]",202,a,0.518715966725722,colour,0.06
79,70,1,2,16,19,769,1349.2822546279058,1350.1842448117677,"[62, 0, 192]",192,a,0.3793018839787692,colour,0.06
79,70,1,2,16,20,770,1350.7045542803826,1351.5602312980918,"[78, 0, 176]",176,l,0.3332978872349486,colour,0.06
79,70,1,2,16,21,771,1352.07968060649,1352.968243784504,"[94, 0, 160]",160,l,0.36644556128885597,colour,0.06
79,70,1,2,16,22,772,1353.4861058926908,1354.4322336359182,"[54, 0, 200]",200,a,0.4239053634228185,colour,0.06
79,70,1,2,16,23,773,1354.9393098711735,1355.8642581395106,"[91, 0, 163]",163,l,0.4026049778331071,colour,0.06
79,70,1,2,16,24,774,1356.3769179327646,1357.280275944504,"[80, 0, 174]",174,l,0.38156610599253327,colour,0.06
79,70,1,2,16,25,775,1357.7989804897225,1358.656262430828,"[99, 0, 155]",155,l,0.3350434136809781,colour,0.06
79,70,1,2,16,26,776,1359.1740725511918,1360.3122609845595,"[72, 0, 182]",182,a,0.6159010689007118,colour,0.06
79,70,1,2,16,27,777,1360.8304255666444,1361.7522443328053,"[83, 0, 171]",171,l,0.39989492180757225,colour,0.06
79,70,1,2,16,28,778,1362.2680820713285,1363.40023599274,"[55, 0, 199]",199,a,0.609831110923551,colour,0.06
79,70,1,2,16,29,779,1363.9088466528337,1364.8242654177593,"[60, 0, 194]",194,a,0.39308059436734766,colour,0.06
79,70,1,2,16,30,780,1365.3308068098268,1366.3682651310228,"[89, 0, 165]",165,l,0.5154206553706899,colour,0.06
79,70,1,2,16,31,781,1366.8778544990346,1367.8322274131933,"[67, 0, 187]",187,a,0.43218479899223894,colour,0.06
79,70,1,2,16,32,782,1368.3467225298518,1369.2962578306906,"[71, 0, 183]",183,a,0.4275385949295014,colour,0.06
79,70,1,2,16,33,783,1369.8154637421248,1370.9602242875844,"[77, 0, 177]",177,l,0.6222979194717482,colour,0.06
79,70,1,2,16,34,784,1371.471921520657,1372.5842594627757,"[96, 0, 158]",158,l,0.5900486084865406,colour,0.06
79,70,1,2,16,35,785,1373.097056314582,1374.1442678438034,"[81, 0, 173]",173,l,0.5252904418157414,colour,0.06
79,70,1,2,16,36,786,1374.6596258776262,1375.7122898141388,"[21, 0, 233]",233,a,0.5304309228667989,colour,0.06
79,70,1,2,16,37,787,1376.2223076869268,1377.1282410591375,"[92, 0, 162]",162,l,0.3836444324115291,colour,0.06
79,70,1,2,16,38,788,1377.6443147115642,1378.5762718673795,"[63, 0, 191]",191,a,0.4096430098870769,colour,0.06
79,70,1,2,16,39,789,1379.0818774807267,1379.7362273943145,"[98, 0, 156]",156,l,0.13196054298896343,colour,0.06
79,70,1,2,16,40,790,1380.2538110531168,1381.168267651694,"[95, 0, 159]",159,l,0.3921676587779075,colour,0.06
79,70,1,2,16,41,791,1381.6758381639374,1382.9522611106513,"[64, 0, 190]",190,a,0.7541635454399511,colour,0.06
79,70,1,2,16,42,792,1383.4729482778348,1384.5442348395009,"[1, 0, 253]",253,a,0.5491106557892635,colour,0.06
79,70,1,2,16,43,793,1385.0511988286162,1385.9602341337595,"[58, 0, 196]",196,a,0.386795990052633,colour,0.06
79,70,1,2,16,44,794,1386.4731081794016,1387.384239534149,"[66, 0, 188]",188,a,0.38873213808983564,colour,0.06
79,70,1,2,16,45,795,1387.8950490378775,1388.9362611074466,"[65, 0, 189]",189,a,0.519000323722139,colour,0.06
79,70,1,2,16,46,796,1389.4421404440654,1390.4082984188572,"[57, 0, 197]",197,a,0.4439178720349446,colour,0.06
79,70,1,2,16,47,797,1390.9265547670657,1392.6402730614645,"[69, 0, 185]",185,l,1.191385243786499,colour,0.06
79,70,1,2,16,48,798,1393.1454560778802,1394.952274107607,"[53, 0, 201]",201,a,1.2845854099141434,colour,0.06
79,70,1,2,16,49,799,1395.4455885677598,1396.456390588428,"[90, 0, 164]",164,l,0.488516625482589,colour,0.06
79,70,1,2,16,50,800,1396.9615432786522,1399.064247741946,"[73, 0, 181]",181,a,1.5803970127599314,colour,0.06
