id,age,condition,counterbalance,block,trialinblock,trial,tstart,tend,trialstim,trialintensity,response,RT,trialtype,colourfreq
131,22,0,1,Practice,1,NA,5.907611921429634e-06,1.299303641775623,"[92, 0, 162]",162,l,0.7751280292868614,colour,0.5
131,22,0,1,Practice,2,NA,1.8147173745092005,2.40325836208649,"[29, 0, 225]",225,a,0.0653019396122545,colour,0.5
131,22,0,1,Practice,3,NA,2.924087469931692,3.6032613553106785,"[79, 0, 175]",175,l,0.15583361918106675,colour,0.5
131,22,0,1,Practice,4,NA,4.111558694625273,8.459318324457854,"[41, 0, 213]",213,l,3.8218885126989335,colour,0.5
131,22,0,1,Practice,5,NA,8.97198419738561,9.739290062105283,"[81, 0, 173]",173,l,0.24387737712822855,colour,0.5
131,22,0,1,Practice,6,NA,10.256077527534217,10.811260592890903,"[86, 0, 168]",168,l,0.032185050658881664,colour,0.5
131,22,0,1,Practice,7,NA,11.318150328472257,14.291247139219195,"[76, 0, 178]",178,l,2.449946378124878,colour,0.5
131,22,0,1,Practice,8,NA,14.803899621358141,15.491271400125697,"[3, 0, 251]",251,a,0.16427057655528188,colour,0.5
131,22,0,1,Practice,9,NA,16.007109304191545,16.795230688992888,"[26, 0, 228]",228,a,0.264904391951859,colour,0.5
131,22,0,1,Practice,10,NA,17.303864372195676,17.963258157484233,"[47, 0, 207]",207,a,0.1363370877224952,colour,0.5
131,22,0,1,1,1,1,4.44979120278731,5.2879364744294435,"[14, 0, 240]",240,a,0.31395429908297956,colour,0.5
131,22,0,1,1,2,2,5.794340992346406,6.51189275435172,"[31, 0, 223]",223,a,0.1943690339103341,colour,0.5
131,22,0,1,1,3,3,7.028804675210267,7.63191361236386,"[79, 0, 175]",175,l,0.0797009295783937,colour,0.5
131,22,0,1,1,4,4,8.138138536829501,11.79991075466387,"[61, 0, 193]",193,l,3.138401231728494,colour,0.5
131,22,0,1,1,5,5,12.31135019287467,13.159904011990875,"[34, 0, 220]",220,a,0.3255077553912997,colour,0.5
131,22,0,1,1,6,6,13.670712903607637,14.455956065794453,"[73, 0, 181]",181,l,0.26188556663692,colour,0.5
131,22,0,1,1,7,7,14.967606605263427,15.511952225118876,"[38, 0, 216]",216,a,0.021015199832618237,colour,0.5
131,22,0,1,1,8,8,16.03303812001832,17.063916785176843,"[59, 0, 195]",195,a,0.5076986940111965,colour,0.5
131,22,0,1,1,9,9,17.579856695374474,18.327898003626615,"[43, 0, 211]",211,a,0.2247128572780639,colour,0.5
131,22,0,1,1,10,10,18.843909593531862,19.67189128929749,"[36, 0, 218]",218,a,0.3048974289558828,colour,0.5
131,22,0,1,1,11,11,20.19098865846172,20.9438935641665,"[70, 0, 184]",184,l,0.22958118095993996,colour,0.5
131,22,0,1,1,12,12,21.456594489281997,22.575876099523157,"[63, 0, 191]",191,a,0.5960075098555535,colour,0.5
131,22,0,1,1,13,13,23.094876976450905,23.92789162322879,"[58, 0, 196]",196,a,0.3098492478020489,colour,0.5
131,22,0,1,1,14,14,24.438579210545868,25.199891535099596,"[41, 0, 213]",213,a,0.2379456707276404,colour,0.5
131,22,0,1,1,15,15,25.71973878587596,26.623907522065565,"[75, 0, 179]",179,l,0.3808119283057749,colour,0.5
131,22,0,1,1,16,16,27.14170362590812,28.063887640601024,"[82, 0, 172]",172,l,0.39883311465382576,colour,0.5
131,22,0,1,1,17,17,28.57920566899702,29.35188437323086,"[9, 0, 245]",245,a,0.24936718866229057,colour,0.5
131,22,0,1,1,18,18,29.861704712733626,30.527839163085446,"[6, 0, 248]",248,a,0.14309508190490305,colour,0.5
131,22,0,1,1,19,19,31.03422674559988,31.943872690200806,"[78, 0, 176]",176,l,0.3863608166575432,colour,0.5
131,22,0,1,1,20,20,32.45598560431972,33.223889326211065,"[65, 0, 189]",189,l,0.24451028648763895,colour,0.5
131,22,0,1,1,21,21,33.7372751487419,34.38387053203769,"[4, 0, 250]",250,a,0.12324290769174695,colour,0.5
131,22,0,1,1,22,22,34.89507248136215,35.43219064339064,"[84, 0, 170]",170,l,0.01408076286315918,colour,0.5
131,22,0,1,1,23,23,35.94189322297461,37.02388121304102,"[33, 0, 221]",221,a,0.5587276744190603,colour,0.5
131,22,0,1,1,24,24,37.535679838387296,38.687915285583586,"[52, 0, 202]",202,a,0.6289983685128391,colour,0.5
131,22,0,1,1,25,25,39.20752583537251,40.04791287519038,"[40, 0, 214]",214,a,0.31707867491059005,colour,0.5
131,22,0,1,1,26,26,40.569042093120515,41.3518946133554,"[46, 0, 208]",208,a,0.2595256445929408,colour,0.5
131,22,0,1,1,27,27,41.866022440604866,42.63192109554075,"[87, 0, 167]",167,l,0.2431987812742591,colour,0.5
131,22,0,1,1,28,28,43.14740611426532,43.93583824299276,"[27, 0, 227]",227,a,0.2662359834648669,colour,0.5
131,22,0,1,1,29,29,44.442527511157095,45.20789132383652,"[56, 0, 198]",198,l,0.24307275074534118,colour,0.5
131,22,0,1,1,30,30,45.72613759315573,46.52782774157822,"[92, 0, 162]",162,l,0.2784014758653939,colour,0.5
131,22,0,1,1,31,31,47.038590946933255,47.959834459004924,"[74, 0, 180]",180,l,0.39788985485211015,colour,0.5
131,22,0,1,1,32,32,48.47605124255642,49.26386227691546,"[26, 0, 228]",228,a,0.26477993675507605,colour,0.5
131,22,0,1,1,33,33,49.76043995702639,50.56783219985664,"[10, 0, 244]",244,a,0.28414689330384135,colour,0.5
131,22,0,1,1,34,34,51.08876488893293,51.839864406967536,"[97, 0, 157]",157,l,0.22790458076633513,colour,0.5
131,22,0,1,1,35,35,52.354206880088896,53.60786777199246,"[57, 0, 197]",197,l,0.7305620529223233,colour,0.5
131,22,0,1,1,36,36,54.119903492042795,54.93583154771477,"[12, 0, 242]",242,a,0.29019635962322354,colour,0.5
131,22,0,1,1,37,37,55.45041150948964,56.26388787687756,"[18, 0, 236]",236,a,0.2901711533777416,colour,0.5
131,22,0,1,1,38,38,56.77850131574087,57.559829260222614,"[76, 0, 178]",178,l,0.2580644781701267,colour,0.5
131,22,0,1,1,39,39,58.07537493109703,58.83186422428116,"[8, 0, 246]",246,a,0.23314351309090853,colour,0.5
131,22,0,1,1,40,40,59.340978398919106,60.095822599483654,"[90, 0, 164]",164,l,0.2315177188720554,colour,0.5
131,22,0,1,1,41,41,60.60667245090008,61.30383680318482,"[23, 0, 231]",231,a,0.1739426334388554,colour,0.5
131,22,0,1,1,42,42,61.827095543500036,62.607811452122405,"[83, 0, 171]",171,l,0.25761470664292574,colour,0.5
131,22,0,1,1,43,43,63.12390417419374,63.839797059306875,"[85, 0, 169]",169,l,0.19271291373297572,colour,0.5
131,22,0,1,1,44,44,64.35829932801425,64.99985388340428,"[98, 0, 156]",156,l,0.11827021511271596,colour,0.5
131,22,0,1,1,45,45,65.51445747585967,66.2641151258722,"[25, 0, 229]",229,a,0.22631659591570497,colour,0.5
131,22,0,1,1,46,46,66.78014640812762,67.46381722111255,"[37, 0, 217]",217,a,0.1603073098231107,colour,0.5
131,22,0,1,1,47,47,67.98325684200972,68.72783034085296,"[81, 0, 173]",173,l,0.22128797695040703,colour,0.5
131,22,0,1,1,48,48,69.24891032814048,70.23987590731122,"[3, 0, 251]",251,a,0.4653733044397086,colour,0.5
131,22,0,1,1,49,49,70.75109321647324,71.44782473263331,"[28, 0, 226]",226,a,0.17333571752533317,colour,0.5
131,22,0,1,1,50,50,71.95430526253767,72.66383399884216,"[15, 0, 239]",239,a,0.1866756568197161,colour,0.5
131,22,0,1,2,1,51,77.42325507756323,78.18382657878101,"[41, 0, 213]",213,a,0.23648844240233302,colour,0.5
131,22,0,1,2,2,52,78.69386904733256,79.42380409827456,"[78, 0, 176]",176,l,0.20676689525134861,colour,0.5
131,22,0,1,2,3,53,79.94269194151275,80.55178339127451,"[11, 0, 243]",243,a,0.08576536178588867,colour,0.5
131,22,0,1,2,4,54,81.06756655103527,81.79985994868912,"[69, 0, 185]",185,l,0.20895116217434406,colour,0.5
131,22,0,1,2,5,55,82.31761903106235,83.02381544094533,"[4, 0, 250]",250,a,0.18283448205329478,colour,0.5
131,22,0,1,2,6,56,83.53654354135506,84.26378705259413,"[61, 0, 193]",193,l,0.2041564874816686,colour,0.5
131,22,0,1,2,7,57,84.77066733571701,85.4557796230074,"[14, 0, 240]",240,a,0.16168852569535375,colour,0.5
131,22,0,1,2,8,58,85.97397823701613,86.69588789902627,"[57, 0, 197]",197,l,0.19385467190295458,colour,0.5
131,22,0,1,2,9,59,87.21303140092641,87.77581332041882,"[18, 0, 236]",236,a,0.039549960754811764,colour,0.5
131,22,0,1,2,10,60,88.29110771790147,89.70375574962236,"[54, 0, 200]",200,a,0.8892813776619732,colour,0.5
131,22,0,1,2,11,61,90.22476484486833,91.0160909499973,"[46, 0, 208]",208,a,0.2781899808906019,colour,0.5
131,22,0,1,2,12,62,91.52709440118633,92.09576391638257,"[84, 0, 170]",170,l,0.04544070712290704,colour,0.5
131,22,0,1,2,13,63,92.60516205360182,93.38378782453947,"[89, 0, 165]",165,l,0.2552599045448005,colour,0.5
131,22,0,1,2,14,64,93.9021112874616,94.54377296869643,"[75, 0, 179]",179,l,0.11848958698101342,colour,0.5
131,22,0,1,2,15,65,95.06000235513784,95.74374642339535,"[56, 0, 198]",198,a,0.16513585508801043,colour,0.5
131,22,0,1,2,16,66,96.25836852681823,96.935809886083,"[9, 0, 245]",245,a,0.1653516823425889,colour,0.5
131,22,0,1,2,17,67,97.45025554671884,98.17576731927693,"[48, 0, 206]",206,a,0.2022396414540708,colour,0.5
131,22,0,1,2,18,68,98.68456129753031,99.81584534794092,"[25, 0, 229]",229,a,0.6079611133318394,colour,0.5
131,22,0,1,2,19,69,100.32515368843451,101.09575761505403,"[6, 0, 248]",248,a,0.24589937971904874,colour,0.5
131,22,0,1,2,20,70,101.60781184583902,102.30379348015413,"[99, 0, 155]",155,l,0.1726752386894077,colour,0.5
131,22,0,1,2,21,71,102.81087423069403,103.53580586891621,"[33, 0, 221]",221,a,0.20175087940879166,colour,0.5
131,22,0,1,2,22,72,104.04530167975463,104.76779383933172,"[38, 0, 216]",216,a,0.1993082498665899,colour,0.5
131,22,0,1,2,23,73,105.27969525824301,106.07977851713076,"[40, 0, 214]",214,a,0.2752554384060204,colour,0.5
131,22,0,1,2,24,74,106.59372360003181,107.27974015660584,"[19, 0, 235]",235,a,0.162846825318411,colour,0.5
131,22,0,1,2,25,75,107.79685569554567,108.39175846870057,"[10, 0, 244]",244,a,0.07181496173143387,colour,0.5
131,22,0,1,2,26,76,108.90616277558729,109.56778099993244,"[30, 0, 224]",224,a,0.13781479583121836,colour,0.5
131,22,0,1,2,27,77,110.07857138081454,110.83972025942057,"[91, 0, 163]",163,l,0.23832415603101254,colour,0.5
131,22,0,1,2,28,78,111.35977939935401,112.54377887630835,"[55, 0, 199]",199,l,0.6606989889405668,colour,0.5
131,22,0,1,2,29,79,113.06287821475416,113.73572142841294,"[26, 0, 228]",228,a,0.1494415074121207,colour,0.5
131,22,0,1,2,30,80,114.25044041778892,115.07173658674583,"[34, 0, 220]",220,a,0.29798425966873765,colour,0.5
131,22,0,1,2,31,81,115.57850698707625,116.24771421938203,"[65, 0, 189]",189,l,0.1464648232795298,colour,0.5
131,22,0,1,2,32,82,116.76604949776083,117.5277107693255,"[20, 0, 234]",234,a,0.23825405142270029,colour,0.5
131,22,0,1,2,33,83,118.04864109540358,118.7436723804567,"[5, 0, 249]",249,a,0.1706422083079815,colour,0.5
131,22,0,1,2,34,84,119.25289013655856,120.23987393802963,"[87, 0, 167]",167,l,0.46374396583996713,colour,0.5
131,22,0,1,2,35,85,120.7507107926067,121.4397221498657,"[44, 0, 210]",210,a,0.16562855569645762,colour,0.5
131,22,0,1,2,36,86,121.95394253102131,122.7918562211562,"[0, 0, 254]",254,a,0.31463565141893923,colour,0.5
131,22,0,1,2,37,87,123.31328436778858,124.0397256158758,"[97, 0, 157]",157,l,0.203406605636701,colour,0.5
131,22,0,1,2,38,88,124.5500276281964,125.34370577847585,"[64, 0, 190]",190,l,0.27079474460333586,colour,0.5
131,22,0,1,2,39,89,125.86245341296308,126.40776513586752,"[53, 0, 201]",201,a,0.02195845963433385,colour,0.5
131,22,0,1,2,40,90,126.92476685345173,127.65572078246623,"[90, 0, 164]",164,l,0.20774087472818792,colour,0.5
131,22,0,1,2,41,91,128.17719264607877,128.9436966413632,"[86, 0, 168]",168,l,0.24332008557394147,colour,0.5
131,22,0,1,2,42,92,129.4576043090783,130.30385176930577,"[72, 0, 182]",182,l,0.322756351204589,colour,0.5
131,22,0,1,2,43,93,130.81702688429505,131.535723161418,"[83, 0, 171]",171,l,0.1953142632264644,colour,0.5
131,22,0,1,2,44,94,132.05139998276718,132.83969899173826,"[60, 0, 194]",194,a,0.2649358995258808,colour,0.5
131,22,0,1,2,45,95,133.3482519367244,134.07972810487263,"[93, 0, 161]",161,l,0.2076810102444142,colour,0.5
131,22,0,1,2,46,96,134.59866163437255,135.27169192465954,"[39, 0, 215]",215,a,0.15037885960191488,colour,0.5
131,22,0,1,2,47,97,135.7862384095788,136.35171265667304,"[29, 0, 225]",225,l,0.04290158557705581,colour,0.5
131,22,0,1,2,48,98,136.86411859164946,138.7517340031918,"[59, 0, 195]",195,l,1.3640687703154981,colour,0.5
131,22,0,1,2,49,99,139.27220313600264,140.45566974021494,"[76, 0, 178]",178,l,0.6602740299422294,colour,0.5
131,22,0,1,2,50,100,140.9750246843323,141.6797303892672,"[42, 0, 212]",212,a,0.18130006035789847,colour,0.5
131,22,0,1,3,1,101,146.69301834097132,147.255645085359,"[94, 0, 160]",160,l,0.03865947597660124,colour,0.5
131,22,0,1,3,2,102,147.77419697865844,149.4236788554117,"[39, 0, 215]",215,a,1.126164847286418,colour,0.5
131,22,0,1,3,3,103,149.93044728646055,150.70366437756456,"[19, 0, 235]",235,a,0.24994220328517258,colour,0.5
131,22,0,1,3,4,104,151.2116564863827,151.79164748312905,"[52, 0, 202]",202,a,0.05682441615499556,colour,0.5
131,22,0,1,3,5,105,152.3053787080571,152.91969491168857,"[47, 0, 207]",207,a,0.09095230652019382,colour,0.5
131,22,0,1,3,6,106,153.43040534178726,154.1357293841429,"[81, 0, 173]",173,l,0.18332285061478615,colour,0.5
131,22,0,1,3,7,107,154.63598479283974,155.25568919605576,"[9, 0, 245]",245,a,0.09641218604519963,colour,0.5
131,22,0,1,3,8,108,155.77656950382516,156.39970233174972,"[64, 0, 190]",190,l,0.09977877698838711,colour,0.5
131,22,0,1,3,9,109,156.91717075603083,157.93566219415516,"[90, 0, 164]",164,l,0.49512163340114057,colour,0.5
131,22,0,1,3,10,110,158.4484194391407,159.51969877118245,"[4, 0, 250]",250,a,0.5478228812571615,colour,0.5
131,22,0,1,3,11,111,160.0279756304808,160.75965620437637,"[74, 0, 180]",180,l,0.20871012844145298,colour,0.5
131,22,0,1,3,12,112,161.2779851811938,162.01566953537986,"[11, 0, 243]",243,a,0.2146201734431088,colour,0.5
131,22,0,1,3,13,113,162.52801836258732,163.28764660400338,"[21, 0, 233]",233,a,0.23657548218034208,colour,0.5
131,22,0,1,3,14,114,163.81074662460014,164.6316836066544,"[72, 0, 182]",182,l,0.2976203463040292,colour,0.5
131,22,0,1,3,15,115,165.13886242476292,165.95963123464026,"[5, 0, 249]",249,a,0.29732181155122817,colour,0.5
131,22,0,1,3,16,116,166.46702903090045,167.2956467869226,"[24, 0, 230]",230,a,0.30527433892711997,colour,0.5
131,22,0,1,3,17,117,167.81075686472468,168.863665669458,"[46, 0, 208]",208,a,0.5296441568061709,colour,0.5
131,22,0,1,3,18,118,169.37662220024504,170.07963555119932,"[32, 0, 222]",222,a,0.17970892461016774,colour,0.5
131,22,0,1,3,19,119,170.59540335088968,171.35167090897448,"[15, 0, 239]",239,a,0.23345662001520395,colour,0.5
131,22,0,1,3,20,120,171.86108164931647,172.48762793582864,"[92, 0, 162]",162,l,0.10352109652012587,colour,0.5
131,22,0,1,3,21,121,173.0015895604156,173.75962036452256,"[79, 0, 175]",175,l,0.23472755937837064,colour,0.5
131,22,0,1,3,22,122,174.2671804248821,174.91165337502025,"[97, 0, 157]",157,l,0.11771922511979938,colour,0.5
131,22,0,1,3,23,123,175.42811709968373,176.21564456564374,"[31, 0, 223]",223,a,0.265676329145208,colour,0.5
131,22,0,1,3,24,124,176.7237993327435,177.5356467552483,"[6, 0, 248]",248,a,0.28868202376179397,colour,0.5
131,22,0,1,3,25,125,178.05178240663372,178.83158577536233,"[96, 0, 158]",158,l,0.25643986533395946,colour,0.5
131,22,0,1,3,26,126,179.34875645278953,179.9836026383564,"[35, 0, 219]",219,a,0.11158468830399215,colour,0.5
131,22,0,1,3,27,127,180.504977615783,181.20764910895377,"[95, 0, 159]",159,l,0.17935682670213282,colour,0.5
131,22,0,1,3,28,128,181.72370284050703,182.3516197092831,"[2, 0, 252]",252,a,0.1045663624536246,colour,0.5
131,22,0,1,3,29,129,182.86425564996898,183.63961014035158,"[30, 0, 224]",224,a,0.2519535720348358,colour,0.5
131,22,0,1,3,30,130,184.14681573980488,184.86360856168903,"[80, 0, 174]",174,l,0.1931016391608864,colour,0.5
131,22,0,1,3,31,131,185.38161931140348,186.3999595127534,"[8, 0, 246]",246,a,0.4954150482080877,colour,0.5
131,22,0,1,3,32,132,186.91286051133648,187.63163673901,"[99, 0, 155]",155,l,0.19579239143058658,colour,0.5
131,22,0,1,3,33,133,188.14962779637426,188.91159902443178,"[86, 0, 168]",168,l,0.2385840939823538,colour,0.5
131,22,0,1,3,34,134,189.43078658427112,190.54360873508267,"[61, 0, 193]",193,l,0.5894519521389157,colour,0.5
131,22,0,1,3,35,135,191.05578072578646,191.79164984612726,"[71, 0, 183]",183,l,0.21247410937212408,colour,0.5
131,22,0,1,3,36,136,192.30581390717998,193.22356125316583,"[16, 0, 238]",238,a,0.3943617872428149,colour,0.5
131,22,0,1,3,37,137,193.74328326107934,194.51987954624929,"[34, 0, 220]",220,a,0.2536010274197906,colour,0.5
131,22,0,1,3,38,138,195.04154360643588,195.62359126401134,"[73, 0, 181]",181,l,0.0587192066013813,colour,0.5
131,22,0,1,3,39,139,196.1352583449334,196.87963964720257,"[44, 0, 210]",210,a,0.2211524941958487,colour,0.5
131,22,0,1,3,40,140,197.40087638492696,198.16762141371146,"[23, 0, 231]",231,a,0.2433441102039069,colour,0.5
131,22,0,1,3,41,141,198.682141904952,199.4396295961924,"[42, 0, 212]",212,a,0.23521238309331238,colour,0.5
131,22,0,1,3,42,142,199.95025692507625,200.67177983094007,"[13, 0, 241]",241,a,0.1983185161370784,colour,0.5
131,22,0,1,3,43,143,201.18453156226315,201.88760083937086,"[98, 0, 156]",156,l,0.17974555236287415,colour,0.5
131,22,0,1,3,44,144,202.40334461443126,203.50355543987826,"[62, 0, 192]",192,l,0.5772644046228379,colour,0.5
131,22,0,1,3,45,145,204.0127164821606,204.68759351363406,"[89, 0, 165]",165,l,0.15160568803548813,colour,0.5
131,22,0,1,3,46,146,205.20015068538487,205.90357402944937,"[76, 0, 178]",178,l,0.18047810485586524,colour,0.5
131,22,0,1,3,47,147,206.4189105683472,207.15957278804854,"[50, 0, 204]",204,a,0.21734400861896574,colour,0.5
131,22,0,1,3,48,148,207.66886695008725,208.40764658828266,"[54, 0, 200]",200,a,0.21552444249391556,colour,0.5
131,22,0,1,3,49,149,208.92026441218331,209.46361242141575,"[67, 0, 187]",187,a,0.020076665794476867,colour,0.5
131,22,0,1,3,50,150,209.98274523671716,210.62355818110518,"[10, 0, 244]",244,l,0.1174269919283688,colour,0.5
131,22,0,1,4,1,151,215.0622941418551,215.78368353424594,"[79, 0, 175]",175,l,0.19769939128309488,colour,0.5
131,22,0,1,4,2,152,216.29735489469022,217.07156408252195,"[85, 0, 169]",169,l,0.2508641954045743,colour,0.5
131,22,0,1,4,3,153,217.57866294984706,218.31954729836434,"[82, 0, 172]",172,l,0.2177902355324477,colour,0.5
131,22,0,1,4,4,154,218.82863744837232,219.63954594358802,"[44, 0, 210]",210,a,0.2877939024474472,colour,0.5
131,22,0,1,4,5,155,220.15810531983152,220.87156660296023,"[88, 0, 166]",166,l,0.18865788099355996,colour,0.5
131,22,0,1,4,6,156,221.37837717565708,222.09552012616768,"[28, 0, 226]",226,a,0.19525282317772508,colour,0.5
131,22,0,1,4,7,157,222.6128235294018,223.3515539369546,"[1, 0, 253]",253,a,0.21548072574660182,colour,0.5
131,22,0,1,4,8,158,223.8627283172682,224.53552151238546,"[23, 0, 231]",231,a,0.1495462702587247,colour,0.5
131,22,0,1,4,9,159,225.05042994138785,225.80751197203062,"[54, 0, 200]",200,a,0.23416120978072286,colour,0.5
131,22,0,1,4,10,160,226.31587272020988,226.9195550964214,"[69, 0, 185]",185,l,0.0802794883493334,colour,0.5
131,22,0,1,4,11,161,227.44089817255735,228.15152258682065,"[31, 0, 223]",223,a,0.18733613565564156,colour,0.5
131,22,0,1,4,12,162,228.6617867902387,229.42356148944236,"[22, 0, 232]",232,a,0.23856203886680305,colour,0.5
131,22,0,1,4,13,163,229.9418451739475,230.66356303333305,"[37, 0, 217]",217,a,0.19841225142590702,colour,0.5
131,22,0,1,4,14,164,231.1761922785081,231.7435298084747,"[14, 0, 240]",240,a,0.044075245037674904,colour,0.5
131,22,0,1,4,15,165,232.25434066937305,232.94354264787398,"[50, 0, 204]",204,a,0.16586880153045058,colour,0.5
131,22,0,1,4,16,166,233.45743968174793,234.20752347214147,"[45, 0, 209]",209,a,0.22674588719382882,colour,0.5
131,22,0,1,4,17,167,234.72305811545812,235.39153161388822,"[65, 0, 189]",189,l,0.14517970592714846,colour,0.5
131,22,0,1,4,18,168,235.9106037770398,237.10354827181436,"[55, 0, 199]",199,a,0.6695928070694208,colour,0.5
131,22,0,1,4,19,169,237.61489161173813,238.53552820789628,"[15, 0, 239]",239,a,0.39729672367684543,colour,0.5
131,22,0,1,4,20,170,239.05239916872233,239.7675197229255,"[48, 0, 206]",206,a,0.19180785701610148,colour,0.5
131,22,0,1,4,21,171,240.28682425478473,241.0716739653144,"[96, 0, 158]",158,l,0.2615448902361095,colour,0.5
131,22,0,1,4,22,172,241.5837648238521,242.31948152603582,"[16, 0, 238]",238,a,0.2131865757983178,colour,0.5
131,22,0,1,4,23,173,242.8336971809622,243.52748312661424,"[93, 0, 161]",161,l,0.17058746377006173,colour,0.5
131,22,0,1,4,24,174,244.03808170487173,245.1995855171699,"[32, 0, 222]",222,a,0.638112346176058,colour,0.5
131,22,0,1,4,25,175,245.71005373238586,246.49552493100055,"[18, 0, 236]",236,a,0.26259291311725974,colour,0.5
131,22,0,1,4,26,176,247.00686315097846,247.7755380223971,"[21, 0, 233]",233,a,0.24533027270808816,colour,0.5
131,22,0,1,4,27,177,248.2882334338501,249.0076417834498,"[20, 0, 234]",234,a,0.2090271741617471,colour,0.5
131,22,0,1,4,28,178,249.52575611439534,250.14351334562525,"[83, 0, 171]",171,l,0.09462885372340679,colour,0.5
131,22,0,1,4,29,179,250.65112972608767,251.28753435821272,"[49, 0, 205]",205,a,0.11380833992734551,colour,0.5
131,22,0,1,4,30,180,251.80749858124182,252.54347955365665,"[9, 0, 245]",245,a,0.21296169026754797,colour,0.5
131,22,0,1,4,31,181,253.05872314516455,254.04753950960003,"[61, 0, 193]",193,l,0.4654560119379312,colour,0.5
131,22,0,1,4,32,182,254.55881313886493,255.24747357983142,"[98, 0, 156]",156,l,0.1653245068155229,colour,0.5
131,22,0,1,4,33,183,255.76201061252505,256.45550432498567,"[75, 0, 179]",179,l,0.17081313719972968,colour,0.5
131,22,0,1,4,34,184,256.9664061642252,259.23146612523124,"[51, 0, 203]",203,a,1.7418539959471673,colour,0.5
131,22,0,1,4,35,185,259.7476135920733,260.5834954336751,"[95, 0, 159]",159,l,0.31298622698523104,colour,0.5
131,22,0,1,4,36,186,261.0915324408561,261.7514811542351,"[8, 0, 246]",246,a,0.13670100062154233,colour,0.5
131,22,0,1,4,37,187,262.26334318867885,263.1514682362322,"[27, 0, 227]",227,a,0.3647769042290747,colour,0.5
131,22,0,1,4,38,188,263.6695770532824,264.4314931430854,"[33, 0, 221]",221,a,0.2385994540527463,colour,0.5
131,22,0,1,4,39,189,264.9521993708331,265.52747524972074,"[74, 0, 180]",180,l,0.052637051325291395,colour,0.5
131,22,0,1,4,40,190,266.0458459742367,266.7994944599923,"[3, 0, 251]",251,a,0.23482050676830113,colour,0.5
131,22,0,1,4,41,191,267.30697023752145,270.05547904013656,"[4, 0, 250]",250,a,2.2183731268160045,colour,0.5
131,22,0,1,4,42,192,270.5641855846625,271.5914700163994,"[53, 0, 201]",201,a,0.5039563744794577,colour,0.5
131,22,0,1,4,43,193,272.11141809192486,272.88746732566506,"[80, 0, 174]",174,l,0.2530382224358618,colour,0.5
131,22,0,1,4,44,194,273.40834763320163,274.4234464864712,"[66, 0, 188]",188,l,0.4909586866851896,colour,0.5
131,22,0,1,4,45,195,274.94010004471056,275.7834791284986,"[77, 0, 177]",177,l,0.3200695374980569,colour,0.5
131,22,0,1,4,46,196,276.29930049111135,277.09546538162977,"[94, 0, 160]",160,l,0.27268244605511427,colour,0.5
131,22,0,1,4,47,197,277.6119673093781,278.26346921920776,"[38, 0, 216]",216,a,0.1288693838287145,colour,0.5
131,22,0,1,4,48,198,278.78374497406185,279.59948240825906,"[0, 0, 254]",254,a,0.2921955189667642,colour,0.5
131,22,0,1,4,49,199,280.11321402713656,280.7354339212179,"[78, 0, 176]",176,l,0.0989083785098046,colour,0.5
131,22,0,1,4,50,200,281.25379873788916,281.9434103157837,"[81, 0, 173]",173,l,0.16623625927604735,colour,0.5
131,22,0,1,5,1,201,286.48783509852365,287.4794690334238,"[56, 0, 198]",198,l,0.46557574113830924,colour,0.5
131,22,0,1,5,2,202,287.99049493391067,288.7834358054679,"[88, 0, 166]",166,l,0.2698613309767097,colour,0.5
131,22,0,1,5,3,203,289.2929363423027,290.2154208612628,"[11, 0, 243]",243,a,0.40436270483769476,colour,0.5
131,22,0,1,5,4,204,290.72518842550926,291.3194275693968,"[28, 0, 226]",226,a,0.07081695762462914,colour,0.5
131,22,0,1,5,5,205,291.8360173245892,292.62341679050587,"[31, 0, 223]",223,a,0.26443414064124227,colour,0.5
131,22,0,1,5,6,206,293.13293780758977,293.9194113428239,"[6, 0, 248]",248,a,0.26317304745316505,colour,0.5
131,22,0,1,5,7,207,294.4297298968304,295.1995087172836,"[12, 0, 242]",242,a,0.24644170491956174,colour,0.5
131,22,0,1,5,8,208,295.7110765490215,296.27141032507643,"[93, 0, 161]",161,l,0.03727117087692022,colour,0.5
131,22,0,1,5,9,209,296.78912332770415,297.67939050053246,"[63, 0, 191]",191,l,0.3669229680672288,colour,0.5
131,22,0,1,5,10,210,298.19535325374454,299.0954267848283,"[58, 0, 196]",196,a,0.37739492510445416,colour,0.5
131,22,0,1,5,11,211,299.6016111429781,300.39944908907637,"[13, 0, 241]",241,a,0.27529088454321027,colour,0.5
131,22,0,1,5,12,212,300.91557528823614,301.74341559316963,"[20, 0, 234]",234,a,0.3045311525929719,colour,0.5
131,22,0,1,5,13,213,302.25923262373544,303.15939476992935,"[18, 0, 236]",236,a,0.3768116398714483,colour,0.5
131,22,0,1,5,14,214,303.6655610112939,304.46341864950955,"[24, 0, 230]",230,a,0.2745358827523887,colour,0.5
131,22,0,1,5,15,215,304.9794727747794,305.7674255936872,"[1, 0, 253]",253,a,0.2645534756593406,colour,0.5
131,22,0,1,5,16,216,306.2763231534045,307.0794248438906,"[69, 0, 185]",185,l,0.2799213253892958,colour,0.5
131,22,0,1,5,17,217,307.5886544152163,308.3914103093557,"[22, 0, 232]",232,a,0.2792565142735839,colour,0.5
131,22,0,1,5,18,218,308.90126570127904,309.63939273753203,"[16, 0, 238]",238,a,0.2150431633926928,colour,0.5
131,22,0,1,5,19,219,310.15283172926866,310.8474179690238,"[39, 0, 215]",215,a,0.17136294557712972,colour,0.5
131,22,0,1,5,20,220,311.3558862369973,311.9833793279249,"[15, 0, 239]",239,a,0.10444702720269561,colour,0.5
131,22,0,1,5,21,221,312.4964804002084,313.1433715613093,"[29, 0, 225]",225,a,0.12358358409255743,colour,0.5
131,22,0,1,5,22,222,313.65274843084626,314.3753815870732,"[26, 0, 228]",228,a,0.19932518526911736,colour,0.5
131,22,0,1,5,23,223,314.88712861854583,315.4954174112063,"[94, 0, 160]",160,l,0.08497018786147237,colour,0.5
131,22,0,1,5,24,224,316.01353095448576,316.65537104778923,"[91, 0, 163]",163,l,0.11848683003336191,colour,0.5
131,22,0,1,5,25,225,317.16982222208753,317.9994801240973,"[85, 0, 169]",169,l,0.3063940417487174,colour,0.5
131,22,0,1,5,26,226,318.51356738526374,319.271365032997,"[73, 0, 181]",181,l,0.23442351073026657,colour,0.5
131,22,0,1,5,27,227,319.7812149107922,320.5914089703001,"[75, 0, 179]",179,l,0.2868762423750013,colour,0.5
131,22,0,1,5,28,228,321.1093590678647,321.91138083394617,"[47, 0, 207]",207,a,0.2787586934864521,colour,0.5
131,22,0,1,5,29,229,322.4217797324527,323.19136320543475,"[0, 0, 254]",254,a,0.24620264046825469,colour,0.5
131,22,0,1,5,30,230,323.7030960584525,324.3833754681982,"[97, 0, 157]",157,l,0.15692850947380066,colour,0.5
131,22,0,1,5,31,231,324.89225806179456,325.7036702851765,"[35, 0, 219]",219,a,0.28805226483382285,colour,0.5
131,22,0,1,5,32,232,326.22037858795375,326.95140577224083,"[67, 0, 187]",187,l,0.2076561979483813,colour,0.5
131,22,0,1,5,33,233,327.470368840266,328.23137475317344,"[5, 0, 249]",249,a,0.23766052653081715,colour,0.5
131,22,0,1,5,34,234,328.7516619293019,329.55935428244993,"[7, 0, 247]",247,a,0.2844028926920146,colour,0.5
131,22,0,1,5,35,235,330.07976630795747,331.0633783985395,"[57, 0, 197]",197,l,0.4603328702505678,colour,0.5
131,22,0,1,5,36,236,331.5797802894376,332.4553586023394,"[59, 0, 195]",195,l,0.35225813277065754,colour,0.5
131,22,0,1,5,37,237,332.9703710065223,333.75934979273006,"[10, 0, 244]",244,a,0.26562631083652377,colour,0.5
131,22,0,1,5,38,238,334.2689397325739,334.93535499460995,"[4, 0, 250]",250,a,0.1426216794643551,colour,0.5
131,22,0,1,5,39,239,335.45712027302943,336.14336407836527,"[53, 0, 201]",201,l,0.16331904591061175,colour,0.5
131,22,0,1,5,40,240,336.65903499210253,337.59930832870305,"[71, 0, 183]",183,l,0.41668297839351,colour,0.5
131,22,0,1,5,41,241,338.1138303952757,338.8153581612278,"[70, 0, 184]",184,l,0.1782422442920506,colour,0.5
131,22,0,1,5,42,242,339.332502450794,340.15137765184045,"[50, 0, 204]",204,a,0.2955766823142767,colour,0.5
131,22,0,1,5,43,243,340.6605855615344,341.5033742710948,"[62, 0, 192]",192,a,0.319506338564679,colour,0.5
131,22,0,1,5,44,244,342.0200010477565,342.83142902492546,"[38, 0, 216]",216,a,0.28725748462602496,colour,0.5
131,22,0,1,5,45,245,343.34957643901,344.1753837137949,"[51, 0, 203]",203,a,0.3025052114389837,colour,0.5
131,22,0,1,5,46,246,344.6931416145526,345.41546442057006,"[84, 0, 170]",170,l,0.19892109977081418,colour,0.5
131,22,0,1,5,47,247,345.92762065748684,346.67132178880274,"[89, 0, 165]",165,l,0.22068342426791787,colour,0.5
131,22,0,1,5,48,248,347.17756404238753,347.98332930961624,"[3, 0, 251]",251,a,0.2826561883557588,colour,0.5
131,22,0,1,5,49,249,348.49007292836905,349.23133497475646,"[76, 0, 178]",178,l,0.21788436477072537,colour,0.5
131,22,0,1,5,50,250,349.7401072913781,350.8233532239683,"[64, 0, 190]",190,a,0.5597859371919185,colour,0.5
131,22,0,1,6,1,251,355.41257398878224,356.3353101750836,"[78, 0, 176]",176,l,0.3986637613270432,colour,0.5
131,22,0,1,6,2,252,356.85077983373776,357.6633279074449,"[35, 0, 219]",219,a,0.2934924520086497,colour,0.5
131,22,0,1,6,3,253,358.17994129355066,359.18333584745415,"[53, 0, 201]",201,a,0.48001765995286405,colour,0.5
131,22,0,1,6,4,254,359.69562362879515,360.991296015447,"[63, 0, 191]",191,l,0.772380169481039,colour,0.5
131,22,0,1,6,5,255,361.5081405886449,362.49529571295716,"[69, 0, 185]",185,l,0.46390898688696325,colour,0.5
131,22,0,1,6,6,256,363.0080604411196,363.8713358095847,"[47, 0, 207]",207,a,0.3399859082419425,colour,0.5
131,22,0,1,6,7,257,364.3830848103389,365.2236159974709,"[31, 0, 223]",223,a,0.316335488576442,colour,0.5
131,22,0,1,6,8,258,365.7437353958376,366.5512623337563,"[2, 0, 252]",252,a,0.28425441309809685,colour,0.5
131,22,0,1,6,9,259,367.0719067279715,367.8873345996253,"[40, 0, 214]",214,a,0.29250271851196885,colour,0.5
131,22,0,1,6,10,260,368.39999417122453,369.0872781223152,"[52, 0, 202]",202,a,0.16411973373033106,colour,0.5
131,22,0,1,6,11,261,369.6031530480832,370.40728582581505,"[84, 0, 170]",170,l,0.281599894631654,colour,0.5
131,22,0,1,6,12,262,370.91698052873835,371.7192771991249,"[20, 0, 234]",234,a,0.2789863364305347,colour,0.5
131,22,0,1,6,13,263,372.2294630273245,374.4953150113579,"[64, 0, 190]",190,a,1.7430347446352243,colour,0.5
131,22,0,1,6,14,264,375.0106767565012,375.84730847994797,"[89, 0, 165]",165,l,0.31110010109841824,colour,0.5
131,22,0,1,6,15,265,376.35657113417983,377.1432809769176,"[75, 0, 179]",179,l,0.2640733781736344,colour,0.5
131,22,0,1,6,16,266,377.6537684905343,378.47126444475725,"[76, 0, 178]",178,l,0.29445225349627435,colour,0.5
131,22,0,1,6,17,267,378.9815577927511,379.92729652277194,"[56, 0, 198]",198,a,0.422319300705567,colour,0.5
131,22,0,1,6,18,268,380.4346884111874,381.2552992890123,"[33, 0, 221]",221,a,0.29737694980576634,colour,0.5
131,22,0,1,6,19,269,381.762727411231,382.5912262259517,"[25, 0, 229]",229,a,0.30505575472489,colour,0.5
131,22,0,1,6,20,270,383.10657615587115,383.86325331311673,"[28, 0, 226]",226,a,0.23338021407835186,colour,0.5
131,22,0,1,6,21,271,384.37215796206146,385.3832584961783,"[32, 0, 222]",222,a,0.4864696362055838,colour,0.5
131,22,0,1,6,22,272,385.90466734441,386.919270346174,"[90, 0, 164]",164,l,0.49120326479896903,colour,0.5
131,22,0,1,6,23,273,387.4358707352076,388.2313424577005,"[74, 0, 180]",180,l,0.2721314560621977,colour,0.5
131,22,0,1,6,24,274,388.74838355975226,389.535253303824,"[11, 0, 243]",243,a,0.2634278654586524,colour,0.5
131,22,0,1,6,25,275,390.04523157537915,390.78325699968264,"[36, 0, 218]",218,a,0.2146162351127714,colour,0.5
131,22,0,1,6,26,276,391.29525924287736,392.015281597618,"[57, 0, 197]",197,a,0.19531386927701533,colour,0.5
131,22,0,1,6,27,277,392.5309564496856,393.25522248935886,"[45, 0, 209]",209,a,0.20090174861252308,colour,0.5
131,22,0,1,6,28,278,393.7653299421072,394.5832213172689,"[93, 0, 161]",161,l,0.2944530413951725,colour,0.5
131,22,0,1,6,29,279,395.09352254192345,396.1273436266929,"[61, 0, 193]",193,a,0.5105938520282507,colour,0.5
131,22,0,1,6,30,280,396.64037577598356,397.2872314909473,"[94, 0, 160]",160,l,0.12349024252034724,colour,0.5
131,22,0,1,6,31,281,397.7966189943254,398.4152608024888,"[59, 0, 195]",195,a,0.09532359708100557,colour,0.5
131,22,0,1,6,32,282,398.9216637450736,400.1032769123558,"[73, 0, 181]",181,l,0.6583473377395421,colour,0.5
131,22,0,1,6,33,283,400.61066210549325,401.22322569671087,"[6, 0, 248]",248,a,0.09000707743689418,colour,0.5
131,22,0,1,6,34,284,401.73556546564214,402.34331272076815,"[38, 0, 216]",216,a,0.0842730812728405,colour,0.5
131,22,0,1,6,35,285,402.86103911395185,403.48721518577076,"[18, 0, 236]",236,a,0.10313473409041762,colour,0.5
131,22,0,1,6,36,286,404.0030007085297,404.57524476526305,"[15, 0, 239]",239,a,0.048881734954193234,colour,0.5
131,22,0,1,6,37,287,405.09674025932327,405.94322284520604,"[43, 0, 211]",211,a,0.32320572854951024,colour,0.5
131,22,0,1,6,38,288,406.45619079773314,407.2552520276513,"[95, 0, 159]",159,l,0.2759182802401483,colour,0.5
131,22,0,1,6,39,289,407.7684649520088,408.53524739597924,"[42, 0, 212]",212,a,0.24347407929599285,colour,0.5
131,22,0,1,6,40,290,409.051173127722,409.67120048427023,"[44, 0, 210]",210,a,0.09649607515893877,colour,0.5
131,22,0,1,6,41,291,410.19180706935003,411.2632478780579,"[62, 0, 192]",192,l,0.5487015505786985,colour,0.5
131,22,0,1,6,42,292,411.76995171862654,412.6632487445604,"[48, 0, 206]",206,a,0.3700036273803562,colour,0.5
131,22,0,1,6,43,293,413.17617534310557,413.8871995108202,"[50, 0, 204]",204,a,0.18773076892830431,colour,0.5
131,22,0,1,6,44,294,414.39488993398845,415.2152156678494,"[22, 0, 232]",232,a,0.29569562361575663,colour,0.5
131,22,0,1,6,45,295,415.724243984092,416.5832091078628,"[12, 0, 242]",242,a,0.33558822982013226,colour,0.5
131,22,0,1,6,46,296,417.10014229640365,417.7992309774272,"[98, 0, 156]",156,l,0.1764419765677303,colour,0.5
131,22,0,1,6,47,297,418.3181105500553,419.1272924267687,"[26, 0, 228]",228,a,0.2844816620927304,colour,0.5
131,22,0,1,6,48,298,419.64752013236284,420.6552379280329,"[34, 0, 220]",220,a,0.4843960399739444,colour,0.5
131,22,0,1,6,49,299,421.16319813532755,422.4231877301354,"[66, 0, 188]",188,l,0.7367442450486124,colour,0.5
131,22,0,1,6,50,300,422.94438272016123,424.231189645594,"[68, 0, 186]",186,l,0.7636643694713712,colour,0.5
131,22,0,1,7,1,301,428.7427641728427,432.1911710088607,"[17, 0, 237]",237,a,2.924347407883033,colour,0.5
131,22,0,1,7,2,302,432.69806625833735,433.607230136171,"[36, 0, 218]",218,a,0.38577044242992997,colour,0.5
131,22,0,1,7,3,303,434.12129888660274,434.99145119055174,"[43, 0, 211]",211,a,0.346810462186113,colour,0.5
131,22,0,1,7,4,304,435.5119337143842,436.31125527620316,"[75, 0, 179]",179,l,0.27595805865712464,colour,0.5
131,22,0,1,7,5,305,436.82447489583865,437.7431532922201,"[67, 0, 187]",187,l,0.3953838162124157,colour,0.5
131,22,0,1,7,6,306,438.261990723433,439.0871910825372,"[39, 0, 215]",215,a,0.3003248833119869,colour,0.5
131,22,0,1,7,7,307,439.60728330537677,440.3752437410876,"[48, 0, 206]",206,a,0.24544960795901716,colour,0.5
131,22,0,1,7,8,308,440.8885043207556,441.78312387969345,"[47, 0, 207]",207,a,0.3713304924312979,colour,0.5
131,22,0,1,7,9,309,442.294696043944,443.1191689702682,"[99, 0, 155]",155,l,0.30142016732133925,colour,0.5
131,22,0,1,7,10,310,443.6385286406148,444.4631752530113,"[22, 0, 232]",232,a,0.3012957121245563,colour,0.5
131,22,0,1,7,11,311,444.98221866530366,445.8871416153852,"[56, 0, 198]",198,a,0.38153227139264345,colour,0.5
131,22,0,1,7,12,312,446.40411025006324,447.21511248033494,"[97, 0, 157]",157,l,0.28832086734473705,colour,0.5
131,22,0,1,7,13,313,447.73218863480724,448.47912520635873,"[20, 0, 234]",234,a,0.22346476092934608,colour,0.5
131,22,0,1,7,14,314,448.99922097381204,450.3911633682437,"[72, 0, 182]",182,l,0.8684603439178318,colour,0.5
131,22,0,1,7,15,315,450.9055070229806,452.2791375729721,"[55, 0, 199]",199,a,0.8502615329343826,colour,0.5
131,22,0,1,7,16,316,452.7962062442675,453.8311033148784,"[61, 0, 193]",193,a,0.5116111550014466,colour,0.5
131,22,0,1,7,17,317,454.3429566845298,455.399164338829,"[58, 0, 196]",196,a,0.5316539502236992,colour,0.5
131,22,0,1,7,18,318,455.9069024173077,456.8666809501592,"[3, 0, 251]",251,a,0.43650364479981363,colour,0.5
131,22,0,1,7,19,319,457.3755485776346,458.33520186762325,"[89, 0, 165]",165,l,0.43622755934484303,colour,0.5
131,22,0,1,7,20,320,458.8443999311421,459.66309199412353,"[14, 0, 240]",240,a,0.29559676838107407,colour,0.5
131,22,0,1,7,21,321,460.17375358752906,460.87912095268257,"[57, 0, 197]",197,a,0.18130793701857328,colour,0.5
131,22,0,1,7,22,322,461.39320663851686,462.2231343246531,"[82, 0, 172]",172,l,0.3066957271657884,colour,0.5
131,22,0,1,7,23,323,462.7357541176025,463.5511264570523,"[42, 0, 212]",212,a,0.29231800488196313,colour,0.5
131,22,0,1,7,24,324,464.0639262376353,464.91907775588334,"[2, 0, 252]",252,a,0.32918075821362436,colour,0.5
131,22,0,1,7,25,325,465.4258997498546,466.3351270367857,"[84, 0, 170]",170,l,0.38592640520073473,colour,0.5
131,22,0,1,7,26,326,466.8455987968482,467.7270800652914,"[19, 0, 235]",235,a,0.3581792050972581,colour,0.5
131,22,0,1,7,27,327,468.23624701518565,469.10309850052,"[93, 0, 161]",161,l,0.35475511290133,colour,0.5
131,22,0,1,7,28,328,469.61426500370726,470.4470921799075,"[6, 0, 248]",248,a,0.3095066021196544,colour,0.5
131,22,0,1,7,29,329,470.95877934689634,472.07913812436163,"[64, 0, 190]",190,a,0.5977467312477529,colour,0.5
131,22,0,1,7,30,330,472.5986368220765,473.4391262617428,"[35, 0, 219]",219,a,0.31702826265245676,colour,0.5
131,22,0,1,7,31,331,473.9580219821073,474.7671124865301,"[18, 0, 236]",236,a,0.28574708732776344,colour,0.5
131,22,0,1,7,32,332,475.2863807848189,476.1191130443476,"[66, 0, 188]",188,l,0.30994692142121494,colour,0.5
131,22,0,1,7,33,333,476.63015784928575,477.5830775636714,"[83, 0, 171]",171,l,0.4302958529442549,colour,0.5
131,22,0,1,7,34,334,478.09887175098993,478.8950984752737,"[23, 0, 231]",231,a,0.2727655475027859,colour,0.5
131,22,0,1,7,35,335,479.411366852466,480.26308285677806,"[76, 0, 178]",178,l,0.3285124022513628,colour,0.5
131,22,0,1,7,36,336,480.7707886400167,481.65507842064835,"[4, 0, 250]",250,a,0.3609187942929566,colour,0.5
131,22,0,1,7,37,337,482.1627456070855,482.9510812435765,"[73, 0, 181]",181,l,0.2649390504229814,colour,0.5
131,22,0,1,7,38,338,483.45952548715286,484.3030483245384,"[94, 0, 160]",160,l,0.32010340807028115,colour,0.5
131,22,0,1,7,39,339,484.8184526048135,485.6630939634051,"[8, 0, 246]",246,a,0.32128809532150626,colour,0.5
131,22,0,1,7,40,340,486.17768574063666,487.015112637775,"[80, 0, 174]",174,l,0.3116550291888416,colour,0.5
131,22,0,1,7,41,341,487.5238294224255,488.3350856830366,"[86, 0, 168]",168,l,0.28790457267314196,colour,0.5
131,22,0,1,7,42,342,488.8518959917128,489.6550512453541,"[37, 0, 217]",217,a,0.27988430415280163,colour,0.5
131,22,0,1,7,43,343,490.1645309084561,490.9430889377836,"[13, 0, 241]",241,a,0.25528865517117083,colour,0.5
131,22,0,1,7,44,344,491.46126195183024,492.2871101866476,"[34, 0, 220]",220,a,0.30273994361050427,colour,0.5
131,22,0,1,7,45,345,492.7941539157182,493.62308123428375,"[74, 0, 180]",180,l,0.3058123318478465,colour,0.5
131,22,0,1,7,46,346,494.13779628509656,494.89538952708244,"[30, 0, 224]",224,a,0.2341482127085328,colour,0.5
131,22,0,1,7,47,347,495.40350057720207,496.26307458616793,"[12, 0, 242]",242,a,0.3362711579538882,colour,0.5
131,22,0,1,7,48,348,496.7784083681181,497.63104754616506,"[0, 0, 254]",254,a,0.32915633963420987,colour,0.5
131,22,0,1,7,49,349,498.1378179464955,498.9910494682845,"[88, 0, 166]",166,l,0.32985659688711166,colour,0.5
131,22,0,1,7,50,350,499.49715466354974,500.4950475904625,"[90, 0, 164]",164,l,0.4727661774959415,colour,0.5
131,22,0,1,8,1,351,505.07825315371156,506.1590800874401,"[16, 0, 238]",238,a,0.556749782525003,colour,0.5
131,22,0,1,8,2,352,506.67280619218946,507.3513660726603,"[37, 0, 217]",217,a,0.15596910193562508,colour,0.5
131,22,0,1,8,3,353,507.8603368876502,508.61502551916055,"[94, 0, 160]",160,l,0.23154371255077422,colour,0.5
131,22,0,1,8,4,354,509.12735977442935,509.9350340105593,"[32, 0, 222]",222,a,0.2845001725945622,colour,0.5
131,22,0,1,8,5,355,510.4554487927817,511.40703612798825,"[62, 0, 192]",192,l,0.4347368541639298,colour,0.5
131,22,0,1,8,6,356,511.9231733547058,512.7110710351262,"[39, 0, 215]",215,a,0.26514542545191944,colour,0.5
131,22,0,1,8,7,357,513.2200134932064,514.006991938455,"[79, 0, 175]",175,l,0.263613760471344,colour,0.5
131,22,0,1,8,8,358,514.5169954160228,515.3349915540311,"[86, 0, 168]",168,l,0.29239322943612933,colour,0.5
131,22,0,1,8,9,359,515.8474278149661,516.5830310897436,"[74, 0, 180]",180,l,0.21232562977820635,colour,0.5
131,22,0,1,8,10,360,517.0972176000942,517.8870104649104,"[59, 0, 195]",195,a,0.26500561041757464,colour,0.5
131,22,0,1,8,11,361,518.3960037289653,519.7429953601677,"[64, 0, 190]",190,l,0.8236911431886256,colour,0.5
131,22,0,1,8,12,362,520.2539428854361,520.9590369218495,"[25, 0, 229]",229,a,0.18165964097715914,colour,0.5
131,22,0,1,8,13,363,521.4726933161728,522.3112871774938,"[71, 0, 183]",183,l,0.31585539085790515,colour,0.5
131,22,0,1,8,14,364,522.8188255764544,523.5990460275207,"[43, 0, 211]",211,a,0.25676478794775903,colour,0.5
131,22,0,1,8,15,365,524.1156802873593,524.9350407058373,"[15, 0, 239]",239,a,0.2979499949142337,colour,0.5
131,22,0,1,8,16,366,525.441865456989,526.2390177180059,"[87, 0, 167]",167,l,0.273828930221498,colour,0.5
131,22,0,1,8,17,367,526.7420729740988,527.6150097653735,"[46, 0, 208]",208,a,0.3495390235912055,colour,0.5
131,22,0,1,8,18,368,528.1327093772124,528.8070511727128,"[52, 0, 202]",202,a,0.15090503706596792,colour,0.5
131,22,0,1,8,19,369,529.3202172294259,530.0390040909406,"[53, 0, 201]",201,a,0.19552536425180733,colour,0.5
131,22,0,1,8,20,370,530.5545686664991,531.1750103484374,"[49, 0, 205]",205,a,0.09709550812840462,colour,0.5
131,22,0,1,8,21,371,531.6951013896614,532.4149811721873,"[4, 0, 250]",250,a,0.1964233317412436,colour,0.5
131,22,0,1,8,22,372,532.9295414418448,533.6070414842106,"[31, 0, 223]",223,a,0.1541373268701136,colour,0.5
131,22,0,1,8,23,373,534.1169984880835,534.7270769146271,"[48, 0, 206]",206,a,0.08455074252560735,colour,0.5
131,22,0,1,8,24,374,535.244279493345,535.8949511770625,"[50, 0, 204]",204,a,0.12761695543304086,colour,0.5
131,22,0,1,8,25,375,536.4161107209511,537.4310035931412,"[96, 0, 158]",158,l,0.49164358410052955,colour,0.5
131,22,0,1,8,26,376,537.9472818165086,538.6949804790784,"[98, 0, 156]",156,l,0.22429971327073872,colour,0.5
131,22,0,1,8,27,377,539.2135016524699,539.8549849216361,"[21, 0, 233]",233,a,0.11818081210367382,colour,0.5
131,22,0,1,8,28,378,540.3697677138261,541.0389922754839,"[27, 0, 227]",227,a,0.1459729103371501,colour,0.5
131,22,0,1,8,29,379,541.5571428402327,542.1430935063399,"[89, 0, 165]",165,l,0.06258873827755451,colour,0.5
131,22,0,1,8,30,380,542.6511246061418,543.2310104460921,"[18, 0, 236]",236,a,0.05731199705041945,colour,0.5
131,22,0,1,8,31,381,543.7447141017765,544.3989776559174,"[33, 0, 221]",221,a,0.13108988455496728,colour,0.5
131,22,0,1,8,32,382,544.9179265454877,545.518983941758,"[91, 0, 163]",163,l,0.07772697601467371,colour,0.5
131,22,0,1,8,33,383,546.0273403576575,547.0950037946459,"[67, 0, 187]",187,l,0.5447556129656732,colour,0.5
131,22,0,1,8,34,384,547.6054385332391,548.255192557117,"[68, 0, 186]",186,l,0.1264582620933652,colour,0.5
131,22,0,1,8,35,385,548.7617680036929,549.7749681281857,"[97, 0, 157]",157,l,0.49007371603511274,colour,0.5
131,22,0,1,8,36,386,550.2943396137562,550.9750593428034,"[8, 0, 246]",246,a,0.15768784377723932,colour,0.5
131,22,0,1,8,37,387,551.4817891770508,552.1109860432334,"[30, 0, 224]",224,a,0.10582824307493865,colour,0.5
131,22,0,1,8,38,388,552.6224432045128,553.5269270169083,"[6, 0, 248]",248,a,0.3812018351163715,colour,0.5
131,22,0,1,8,39,389,554.0457246697042,554.5990066430531,"[93, 0, 161]",161,l,0.02997479005716741,colour,0.5
131,22,0,1,8,40,390,555.108159808442,555.6549673562404,"[12, 0, 242]",242,a,0.023537779925391078,colour,0.5
131,22,0,1,8,41,391,556.170731611317,556.7351657124236,"[5, 0, 249]",249,a,0.04123128694482148,colour,0.5
131,22,0,1,8,42,392,557.2488252574112,557.8789232422132,"[41, 0, 213]",213,a,0.10676559526473284,colour,0.5
131,22,0,1,8,43,393,558.389351679245,558.9189186422154,"[54, 0, 200]",200,a,0.004721419420093298,colour,0.5
131,22,0,1,8,44,394,559.4376536735799,560.1989561519586,"[66, 0, 188]",188,l,0.23798269196413457,colour,0.5
131,22,0,1,8,45,395,560.7177612879314,561.6309258479159,"[57, 0, 197]",197,a,0.3898510751314461,colour,0.5
131,22,0,1,8,46,396,562.1396150633227,562.8949689001311,"[3, 0, 251]",251,a,0.23204547190107405,colour,0.5
131,22,0,1,8,47,397,563.4052665801719,564.2789894870948,"[56, 0, 198]",198,a,0.35030387132428586,colour,0.5
131,22,0,1,8,48,398,564.7973657252733,565.5749430796131,"[76, 0, 178]",178,l,0.25423905719071627,colour,0.5
131,22,0,1,8,49,399,566.0942606083117,566.8469587450381,"[0, 0, 254]",254,a,0.22951659001410007,colour,0.5
131,22,0,1,8,50,400,567.3599841990508,567.9669713324402,"[2, 0, 252]",252,a,0.08379259007051587,colour,0.5
131,22,0,1,9,1,401,572.7508309155237,573.502937496407,"[62, 0, 192]",192,l,0.22792899911291897,colour,0.5
131,22,0,1,9,2,402,574.017201594077,575.1749170068651,"[16, 0, 238]",238,a,0.6321841841563582,colour,0.5
131,22,0,1,9,3,403,575.6912405225448,576.3189376255032,"[81, 0, 173]",173,l,0.10450098407454789,colour,0.5
131,22,0,1,9,4,404,576.8306070694234,578.9108798627276,"[35, 0, 219]",219,a,1.5569534006062895,colour,0.5
131,22,0,1,9,5,405,579.4252550248057,580.1188846139703,"[14, 0, 240]",240,a,0.16918025398626924,colour,0.5
131,22,0,1,9,6,406,580.6296430933289,581.430943334708,"[1, 0, 253]",253,a,0.2780257472768426,colour,0.5
131,22,0,1,9,7,407,581.9421748225577,582.7268937763292,"[91, 0, 163]",163,l,0.2613070076331496,colour,0.5
131,22,0,1,9,8,408,583.2390563148074,583.966920920182,"[48, 0, 206]",206,a,0.20361770689487457,colour,0.5
131,22,0,1,9,9,409,584.474608192686,585.2948764250614,"[70, 0, 184]",184,l,0.2972946360241622,colour,0.5
131,22,0,1,9,10,410,585.8022864304949,586.6069189982954,"[43, 0, 211]",211,a,0.28123834473080933,colour,0.5
131,22,0,1,9,11,411,587.1148307626136,587.9109105826356,"[8, 0, 246]",246,a,0.272968377918005,colour,0.5
131,22,0,1,9,12,412,588.4273250766564,589.2949366834946,"[41, 0, 213]",213,a,0.3428231708239764,colour,0.5
131,22,0,1,9,13,413,589.8036893079989,590.4709442483727,"[69, 0, 185]",185,l,0.14381581894122064,colour,0.5
131,22,0,1,9,14,414,590.9912070063874,591.7988851810805,"[2, 0, 252]",252,a,0.28435208671726286,colour,0.5
131,22,0,1,9,15,415,592.3193216249347,593.5349228673149,"[95, 0, 159]",159,l,0.6922928774729371,colour,0.5
131,22,0,1,9,16,416,594.0536886188202,595.5189189573284,"[76, 0, 178]",178,l,0.9392725753132254,colour,0.5
131,22,0,1,9,17,417,596.0405971957371,597.206881504273,"[25, 0, 229]",229,a,0.6428971744608134,colour,0.5
131,22,0,1,9,18,418,597.7280095405877,598.4868713587057,"[50, 0, 204]",204,a,0.23572398838587105,colour,0.5
131,22,0,1,9,19,419,598.9936480605975,599.678850538563,"[98, 0, 156]",156,l,0.16205874062143266,colour,0.5
131,22,0,1,9,20,420,600.1980818151496,600.9509808130097,"[57, 0, 197]",197,a,0.229749352671206,colour,0.5
131,22,0,1,9,21,421,601.4636994611938,602.2148895638529,"[40, 0, 214]",214,a,0.22785416850820184,colour,0.5
131,22,0,1,9,22,422,602.7293308919761,603.3429476260208,"[11, 0, 243]",243,a,0.0902630768250674,colour,0.5
131,22,0,1,9,23,423,603.8557080219034,604.4548737783916,"[44, 0, 210]",210,a,0.07577035180293024,colour,0.5
131,22,0,1,9,24,424,604.9651407387573,605.6549027655274,"[77, 0, 177]",177,l,0.16630990826524794,colour,0.5
131,22,0,1,9,25,425,606.168228329625,606.7908448260278,"[13, 0, 241]",241,a,0.09922384866513312,colour,0.5
131,22,0,1,9,26,426,607.3089067756664,608.0068525171373,"[90, 0, 164]",164,l,0.17472993023693562,colour,0.5
131,22,0,1,9,27,427,608.5276071880944,609.2628776633646,"[80, 0, 174]",174,l,0.21220787009224296,colour,0.5
131,22,0,1,9,28,428,609.7797478365246,610.4308373902459,"[33, 0, 221]",221,a,0.1277555888518691,colour,0.5
131,22,0,1,9,29,429,610.9516507443041,611.6628489913419,"[63, 0, 191]",191,a,0.18798322370275855,colour,0.5
131,22,0,1,9,30,430,612.1721384273842,612.8948649249505,"[94, 0, 160]",160,l,0.1994248281698674,colour,0.5
131,22,0,1,9,31,431,613.4065906887408,614.0868271691725,"[4, 0, 250]",250,a,0.15694190026260912,colour,0.5
131,22,0,1,9,32,432,614.5940634887666,615.3830292781349,"[42, 0, 212]",212,a,0.265788575168699,colour,0.5
131,22,0,1,9,33,433,615.8933115983382,616.5668645214755,"[71, 0, 183]",183,l,0.15025558602064848,colour,0.5
131,22,0,1,9,34,434,617.0797950585838,617.830904816743,"[92, 0, 162]",162,l,0.22786677163094282,colour,0.5
131,22,0,1,9,35,435,618.3453481141478,618.9828842643183,"[59, 0, 195]",195,a,0.11416043783538043,colour,0.5
131,22,0,1,9,36,436,619.5016515909228,620.1588654415682,"[89, 0, 165]",165,l,0.1343123281840235,colour,0.5
131,22,0,1,9,37,437,620.6736029416788,621.4628558442928,"[9, 0, 245]",245,a,0.26601503626443446,colour,0.5
131,22,0,1,9,38,438,621.9703887293581,622.7428086774889,"[85, 0, 169]",169,l,0.24915214930661023,colour,0.5
131,22,0,1,9,39,439,623.251644403208,623.990817099344,"[74, 0, 180]",180,l,0.21593443560414016,colour,0.5
131,22,0,1,9,40,440,624.501566126477,625.1108745851088,"[22, 0, 232]",232,a,0.08597291843034327,colour,0.5
131,22,0,1,9,41,441,625.6265218681656,626.4308291196357,"[79, 0, 175]",175,l,0.28099573589861393,colour,0.5
131,22,0,1,9,42,442,626.9390685635153,627.6548180887476,"[67, 0, 187]",187,l,0.19236199744045734,colour,0.5
131,22,0,1,9,43,443,628.1715157576837,628.814859946724,"[27, 0, 227]",227,a,0.1317881727591157,colour,0.5
131,22,0,1,9,44,444,629.3315950308461,630.127089202404,"[21, 0, 233]",233,a,0.2719376841560006,colour,0.5
131,22,0,1,9,45,445,630.6441169138998,631.3668083592784,"[7, 0, 247]",247,a,0.19965050159953535,colour,0.5
131,22,0,1,9,46,446,631.8751474458259,632.6148297779728,"[37, 0, 217]",217,a,0.2162388782016933,colour,0.5
131,22,0,1,9,47,447,633.1251566028222,633.8788220239803,"[54, 0, 200]",200,a,0.2303283056244254,colour,0.5
131,22,0,1,9,48,448,634.3908640458249,635.0788175342605,"[18, 0, 236]",236,a,0.1738213289063424,colour,0.5
131,22,0,1,9,49,449,635.6002374100499,636.470822944073,"[3, 0, 251]",251,a,0.3471302648540586,colour,0.5
131,22,0,1,9,50,450,636.9867652172688,637.7109524877742,"[82, 0, 172]",172,l,0.2008477917406708,colour,0.5
131,22,0,1,10,1,451,643.2828310558107,643.9188587777317,"[45, 0, 209]",209,a,0.11178751871921122,colour,0.5
131,22,0,1,10,2,452,644.4399710602593,645.1028169009369,"[15, 0, 239]",239,a,0.1372232399880886,colour,0.5
131,22,0,1,10,3,453,645.6118814509828,646.3907777937129,"[87, 0, 167]",167,l,0.25552102411165833,colour,0.5
131,22,0,1,10,4,454,646.9087330109905,647.6787977630738,"[41, 0, 213]",213,a,0.2467607194557786,colour,0.5
131,22,0,1,10,5,455,648.1899859278928,648.9828582704067,"[79, 0, 175]",175,l,0.2818708603736013,colour,0.5
131,22,0,1,10,6,456,649.4902733957861,650.2228125529364,"[75, 0, 179]",179,l,0.21004014485515654,colour,0.5
131,22,0,1,10,7,457,650.7394901355729,651.4868067679927,"[43, 0, 211]",211,a,0.2240425320342183,colour,0.5
131,22,0,1,10,8,458,652.0050869078841,652.7667643271852,"[44, 0, 210]",210,a,0.23843167582526803,colour,0.5
131,22,0,1,10,9,459,653.2863106802106,653.8467893914785,"[85, 0, 169]",169,l,0.0371821615844965,colour,0.5
131,22,0,1,10,10,460,654.3644492249005,654.9507496256847,"[86, 0, 168]",168,l,0.0613508818205446,colour,0.5
131,22,0,1,10,11,461,655.45983859431,656.1347963642329,"[60, 0, 194]",194,a,0.1517124203965068,colour,0.5
131,22,0,1,10,12,462,656.6473184835631,657.1747393826954,"[29, 0, 225]",225,a,0.004689123947173357,colour,0.5
131,22,0,1,10,13,463,657.6942313851323,658.3108035353944,"[78, 0, 176]",176,l,0.09345440659672022,colour,0.5
131,22,0,1,10,14,464,658.820660502417,659.4068092729431,"[88, 0, 166]",166,l,0.06319289724342525,colour,0.5
131,22,0,1,10,15,465,659.9144118686672,660.5108636361547,"[99, 0, 155]",155,l,0.07322138408198953,colour,0.5
131,22,0,1,10,16,466,661.02370555792,661.6867451705039,"[11, 0, 243]",243,a,0.13955519860610366,colour,0.5
131,22,0,1,10,17,467,662.1956297333818,662.9107554075308,"[23, 0, 231]",231,a,0.19187362934462726,colour,0.5
131,22,0,1,10,18,468,663.4300107087474,663.9907710195985,"[17, 0, 237]",237,a,0.03742319531738758,colour,0.5
131,22,0,1,10,19,469,664.5081094750203,665.0867531262338,"[0, 0, 254]",254,a,0.05375832924619317,colour,0.5
131,22,0,1,10,20,470,665.6030979095958,666.2707644186448,"[94, 0, 160]",160,l,0.14530967478640378,colour,0.5
131,22,0,1,10,21,471,666.7904529499356,667.3828091186006,"[97, 0, 157]",157,l,0.06996270688250661,colour,0.5
131,22,0,1,10,22,472,667.8999569527805,668.5108140115626,"[32, 0, 222]",222,a,0.08746716799214482,colour,0.5
131,22,0,1,10,23,473,669.0250162757002,669.7187864675652,"[31, 0, 223]",223,a,0.170409839367494,colour,0.5
131,22,0,1,10,24,474,670.2281007156707,671.0147632970475,"[42, 0, 212]",212,a,0.2633739085868001,colour,0.5
131,22,0,1,10,25,475,671.5250200172886,672.2627406052779,"[3, 0, 251]",251,a,0.21433109091594815,colour,0.5
131,22,0,1,10,26,476,672.7771653919481,673.350811932236,"[90, 0, 164]",164,l,0.050644193310290575,colour,0.5
131,22,0,1,10,27,477,673.8708805241622,674.6307230175007,"[7, 0, 247]",247,a,0.2365022269077599,colour,0.5
131,22,0,1,10,28,478,675.1521728257649,675.894736137474,"[35, 0, 219]",219,a,0.2192844853270799,colour,0.5
131,22,0,1,10,29,479,676.4021874964237,677.2067109690979,"[39, 0, 215]",215,a,0.2822241398971528,colour,0.5
131,22,0,1,10,30,480,677.7157601593062,678.5027370289899,"[5, 0, 249]",249,a,0.263608246576041,colour,0.5
131,22,0,1,10,31,481,679.012594389962,679.7507580542006,"[9, 0, 245]",245,a,0.21480882563628256,colour,0.5
131,22,0,1,10,32,482,680.2626090608537,681.0227138551418,"[70, 0, 184]",184,l,0.23679367266595364,colour,0.5
131,22,0,1,10,33,483,681.54383716546,682.3187225859147,"[59, 0, 195]",195,l,0.2517692521214485,colour,0.5
131,22,0,1,10,34,484,682.825022340985,683.6707010883838,"[68, 0, 186]",186,l,0.322112807771191,colour,0.5
131,22,0,1,10,35,485,684.1845264423173,684.9347402018029,"[51, 0, 203]",203,a,0.22680023801513016,colour,0.5
131,22,0,1,10,36,486,685.4501287285239,686.1587303525303,"[56, 0, 198]",198,a,0.1853787237778306,colour,0.5
131,22,0,1,10,37,487,686.6687877869699,687.2467162150424,"[62, 0, 192]",192,a,0.054542081663385034,colour,0.5
131,22,0,1,10,38,488,687.7625785376877,688.5507629378699,"[1, 0, 253]",253,a,0.26481065689586103,colour,0.5
131,22,0,1,10,39,489,689.0594261593651,689.8707123522181,"[20, 0, 234]",234,a,0.2879790095612407,colour,0.5
131,22,0,1,10,40,490,690.3890279382467,691.0627072858624,"[2, 0, 252]",252,a,0.15033829351887107,colour,0.5
131,22,0,1,10,41,491,691.5765137351118,692.3267259194981,"[38, 0, 216]",216,a,0.22760801506228745,colour,0.5
131,22,0,1,10,42,492,692.8421542244032,693.566729038721,"[69, 0, 185]",185,l,0.20124124339781702,colour,0.5
131,22,0,1,10,43,493,694.0778388283215,694.9027256863192,"[21, 0, 233]",233,a,0.30165450531058013,colour,0.5
131,22,0,1,10,44,494,695.4215650868136,697.5586875022855,"[96, 0, 158]",158,l,1.6153244480956346,colour,0.5
131,22,0,1,10,45,495,698.0790294229519,698.9986987346783,"[65, 0, 189]",189,l,0.3963987559545785,colour,0.5
131,22,0,1,10,46,496,699.5164759338368,700.2387136693578,"[95, 0, 159]",159,l,0.19897033041343093,colour,0.5
131,22,0,1,10,47,497,700.7507293033414,701.5187338499818,"[30, 0, 224]",224,a,0.24450319749303162,colour,0.5
131,22,0,1,10,48,498,702.0320641400758,702.7427169114817,"[52, 0, 202]",202,a,0.18485530326142907,colour,0.5
131,22,0,1,10,49,499,703.2532201788854,703.8546922944952,"[66, 0, 188]",188,a,0.07835870422422886,colour,0.5
131,22,0,1,10,50,500,704.3622165150009,704.9986680147704,"[64, 0, 190]",190,a,0.11302655655890703,colour,0.5
131,22,0,1,11,1,501,709.4574499216396,711.9106656105723,"[96, 0, 158]",158,l,1.9290526795666665,colour,0.5
131,22,0,1,11,2,502,712.4284357207362,713.1667376244441,"[77, 0, 177]",177,l,0.2148805051110685,colour,0.5
131,22,0,1,11,3,503,713.678434637608,714.2386951586232,"[32, 0, 222]",222,a,0.03683400247246027,colour,0.5
131,22,0,1,11,4,504,714.7575932419859,715.4789653050248,"[53, 0, 201]",201,a,0.19806803041137755,colour,0.5
131,22,0,1,11,5,505,715.9918548821006,716.7349731221329,"[23, 0, 231]",231,a,0.2196751800365746,colour,0.5
131,22,0,1,11,6,506,717.241854980588,717.9667007606477,"[12, 0, 242]",242,a,0.20144171081483364,colour,0.5
131,22,0,1,11,7,507,718.4763675003778,719.2547002502251,"[45, 0, 209]",209,a,0.25510197249241173,colour,0.5
131,22,0,1,11,8,508,719.7731422604993,720.5346952246036,"[44, 0, 210]",210,a,0.238221756182611,colour,0.5
131,22,0,1,11,9,509,721.0557598520536,721.8386742060538,"[26, 0, 228]",228,a,0.2593846481759101,colour,0.5
131,22,0,1,11,10,510,722.3526704888791,723.1826903347392,"[78, 0, 176]",176,l,0.3065791488625109,colour,0.5
131,22,0,1,11,11,511,723.6963884765282,724.4786407763604,"[6, 0, 248]",248,a,0.2588840704411268,colour,0.5
131,22,0,1,11,12,512,724.9946263725869,726.0867476125713,"[55, 0, 199]",199,l,0.5689578102901578,colour,0.5
131,22,0,1,11,13,513,726.6040537725203,727.5908012667205,"[82, 0, 172]",172,l,0.46353404596447945,colour,0.5
131,22,0,1,11,14,514,728.1039547203109,728.9106419798918,"[35, 0, 219]",219,a,0.2834017376881093,colour,0.5
131,22,0,1,11,15,515,729.4321402311325,730.2546458994038,"[2, 0, 252]",252,a,0.2975880508311093,colour,0.5
131,22,0,1,11,16,516,730.7617660346441,731.6626528564375,"[97, 0, 157]",157,l,0.3774799956008792,colour,0.5
131,22,0,1,11,17,517,732.1836292622611,732.8466606042348,"[38, 0, 216]",216,a,0.13967847265303135,colour,0.5
131,22,0,1,11,18,518,733.3555305944756,734.086661754176,"[74, 0, 180]",180,l,0.2064396096393466,colour,0.5
131,22,0,1,11,19,519,734.6070269118063,735.3826637894381,"[10, 0, 244]",244,a,0.252420672448352,colour,0.5
131,22,0,1,11,20,520,735.9037725275848,736.614673815202,"[27, 0, 227]",227,a,0.18747161841019988,colour,0.5
131,22,0,1,11,21,521,737.1225895180833,737.7109513061587,"[40, 0, 214]",214,a,0.0649892264045775,colour,0.5
131,22,0,1,11,22,522,738.2319426781032,738.9506259583868,"[59, 0, 195]",195,l,0.19531268766149879,colour,0.5
131,22,0,1,11,23,523,739.4663279859815,740.0946642998606,"[43, 0, 211]",211,a,0.10342893656343222,colour,0.5
131,22,0,1,11,24,524,740.608488866128,741.278595641721,"[57, 0, 197]",197,a,0.1468035306315869,colour,0.5
131,22,0,1,11,25,525,741.7959270079155,742.5589651633054,"[71, 0, 183]",183,l,0.2396746522281319,colour,0.5
131,22,0,1,11,26,526,743.0772086754441,743.6706349223386,"[62, 0, 192]",192,a,0.07025927258655429,colour,0.5
131,22,0,1,11,27,527,744.1866228815634,745.1827884023078,"[79, 0, 175]",175,l,0.47285833745263517,colour,0.5
131,22,0,1,11,28,528,745.7021870631725,746.4786490472034,"[90, 0, 164]",164,l,0.2531091144774109,colour,0.5
131,22,0,1,11,29,529,746.9990366541315,747.7586180279031,"[14, 0, 240]",240,a,0.23613634472712874,colour,0.5
131,22,0,1,11,30,530,748.2646637526341,749.0226102739107,"[84, 0, 170]",170,l,0.23291941499337554,colour,0.5
131,22,0,1,11,31,531,749.5319729649927,750.5029410410207,"[11, 0, 243]",243,a,0.44754076981917024,colour,0.5
131,22,0,1,11,32,532,751.0164481678512,751.8066242442001,"[20, 0, 234]",234,a,0.2669972865842283,colour,0.5
131,22,0,1,11,33,533,752.3132028419059,753.070623579435,"[70, 0, 184]",184,l,0.23410055739805102,colour,0.5
131,22,0,1,11,34,534,753.5788898048922,754.1745834199246,"[31, 0, 223]",223,l,0.07239273330196738,colour,0.5
131,22,0,1,11,35,535,754.6882134263869,756.6625973242335,"[50, 0, 204]",204,l,1.4509156316053122,colour,0.5
131,22,0,1,11,36,536,757.1739308179822,757.926657705335,"[16, 0, 238]",238,a,0.2284118535462767,colour,0.5
131,22,0,1,11,37,537,758.4404499763623,759.2066093569156,"[0, 0, 254]",254,a,0.2427816989365965,colour,0.5
131,22,0,1,11,38,538,759.72151109064,760.3826389773749,"[65, 0, 189]",189,l,0.1378573311958462,colour,0.5
131,22,0,1,11,39,539,760.8946557929739,761.670623894548,"[49, 0, 205]",205,a,0.25290982867591083,colour,0.5
131,22,0,1,11,40,540,762.1915561896749,762.8785707505886,"[58, 0, 196]",196,a,0.16369595588184893,colour,0.5
131,22,0,1,11,41,541,763.3946591406129,764.1585625743028,"[92, 0, 162]",162,l,0.2334058138076216,colour,0.5
131,22,0,1,11,42,542,764.6673467066139,766.1986773095559,"[72, 0, 182]",182,a,1.0159802795387805,colour,0.5
131,22,0,1,11,43,543,766.7093794690445,767.5025818538852,"[91, 0, 163]",163,l,0.270233514951542,colour,0.5
131,22,0,1,11,44,544,768.0218347921036,768.8065966751892,"[98, 0, 156]",156,l,0.26132118608802557,colour,0.5
131,22,0,1,11,45,545,769.3187324320897,770.1026782672852,"[15, 0, 239]",239,a,0.26155906869098544,colour,0.5
131,22,0,1,11,46,546,770.6145111571532,771.3666535778902,"[7, 0, 247]",247,a,0.22922553843818605,colour,0.5
131,22,0,1,11,47,547,771.8829262875952,772.8225895576179,"[64, 0, 190]",190,l,0.41639271448366344,colour,0.5
131,22,0,1,11,48,548,773.3361825426109,773.9185413382947,"[41, 0, 213]",213,a,0.05914259050041437,colour,0.5
131,22,0,1,11,49,549,774.429820481455,775.1506194991525,"[80, 0, 174]",174,l,0.1992810743395239,colour,0.5
131,22,0,1,11,50,550,775.6623413246125,776.2305547667202,"[1, 0, 253]",253,a,0.04479007446207106,colour,0.5
131,22,0,1,12,1,551,781.0248343190178,781.7345552521292,"[88, 0, 166]",166,l,0.18551972042769194,colour,0.5
131,22,0,1,12,2,552,782.2443716530688,782.9745788513683,"[15, 0, 239]",239,a,0.20708236540667713,colour,0.5
131,22,0,1,12,3,553,783.4943729331717,784.1826312579215,"[29, 0, 225]",225,a,0.16506653814576566,colour,0.5
131,22,0,1,12,4,554,784.6975759207271,785.3267097717617,"[17, 0, 237]",237,a,0.10495981387794018,colour,0.5
131,22,0,1,12,5,555,785.8396265243646,786.3985172507819,"[8, 0, 246]",246,a,0.03543585119768977,colour,0.5
131,22,0,1,12,6,556,786.9178036656231,787.4625521895941,"[97, 0, 157]",157,l,0.02135942061431706,colour,0.5
131,22,0,1,12,7,557,787.9803053641226,788.6465248849709,"[91, 0, 163]",163,l,0.14285089750774205,colour,0.5
131,22,0,1,12,8,558,789.1680314068217,789.7585396526847,"[22, 0, 232]",232,a,0.06734836078248918,colour,0.5
131,22,0,1,12,9,559,790.2771352627315,790.9025579080917,"[7, 0, 247]",247,a,0.10214106203056872,colour,0.5
131,22,0,1,12,10,560,791.4177471490111,792.1665395202581,"[32, 0, 222]",222,a,0.2252150101121515,colour,0.5
131,22,0,1,12,11,561,792.6856609140523,793.3745627824683,"[23, 0, 231]",231,a,0.1655501804780215,colour,0.5
131,22,0,1,12,12,562,793.8887548064813,794.5505671966821,"[5, 0, 249]",249,a,0.13852529297582805,colour,0.5
131,22,0,1,12,13,563,795.0607069446705,795.6865478539839,"[33, 0, 221]",221,a,0.10274167638272047,colour,0.5
131,22,0,1,12,14,564,796.2012573911343,796.7665228999685,"[42, 0, 212]",212,a,0.04234626330435276,colour,0.5
131,22,0,1,12,15,565,797.2793667910155,798.6145497539546,"[27, 0, 227]",227,a,0.8118450595065951,colour,0.5
131,22,0,1,12,16,566,799.1246150652878,799.7905175406486,"[16, 0, 238]",238,a,0.14249289222061634,colour,0.5
131,22,0,1,12,17,567,800.3120961361565,800.8385363600682,"[83, 0, 171]",171,l,0.003429212374612689,colour,0.5
131,22,0,1,12,18,568,801.3589759545866,801.9265379763674,"[37, 0, 217]",217,a,0.04415795253589749,colour,0.5
131,22,0,1,12,19,569,802.4371219822206,803.1105504501611,"[25, 0, 229]",229,a,0.15032057045027614,colour,0.5
131,22,0,1,12,20,570,803.6245928129647,804.3585112169385,"[0, 0, 254]",254,a,0.2105044883210212,colour,0.5
131,22,0,1,12,21,571,804.874560616212,805.9668177326676,"[51, 0, 203]",203,a,0.5688487149309367,colour,0.5
131,22,0,1,12,22,572,806.4839442991652,807.3505417541601,"[63, 0, 191]",191,a,0.3431796010117978,colour,0.5
131,22,0,1,12,23,573,807.8593723601662,808.4465159841347,"[77, 0, 177]",177,l,0.06389512377791107,colour,0.5
131,22,0,1,12,24,574,808.9530063602142,809.6945921473671,"[81, 0, 173]",173,l,0.21827584691345692,colour,0.5
131,22,0,1,12,25,575,810.203046631068,810.9664829641115,"[92, 0, 162]",162,l,0.24030716810375452,colour,0.5
131,22,0,1,12,26,576,811.4849588451907,812.374510794878,"[61, 0, 193]",193,a,0.3674400872550905,colour,0.5
131,22,0,1,12,27,577,812.8904349510558,813.846456592204,"[20, 0, 234]",234,a,0.43263411335647106,colour,0.5
131,22,0,1,12,28,578,814.3616178699303,815.1744778691791,"[35, 0, 219]",219,a,0.2897158679552376,colour,0.5
131,22,0,1,12,29,579,815.6896757746581,816.5185002996586,"[68, 0, 186]",186,l,0.30548228952102363,colour,0.5
131,22,0,1,12,30,580,817.0321980474982,817.9184546922334,"[87, 0, 167]",167,l,0.362764747813344,colour,0.5
131,22,0,1,12,31,581,818.4384988660458,819.198484325083,"[75, 0, 179]",179,l,0.23717373330146074,colour,0.5
131,22,0,1,12,32,582,819.7197344535962,820.3024859132711,"[1, 0, 253]",253,a,0.05688861315138638,colour,0.5
131,22,0,1,12,33,583,820.815154149197,821.55046125222,"[56, 0, 198]",198,a,0.21189633826725185,colour,0.5
131,22,0,1,12,34,584,822.0651227401104,823.1267686123028,"[60, 0, 194]",194,a,0.5361559975426644,colour,0.5
131,22,0,1,12,35,585,823.6454638652503,824.4544535453897,"[67, 0, 187]",187,a,0.28572069969959557,colour,0.5
131,22,0,1,12,36,586,824.9735186193138,825.7984885787591,"[26, 0, 228]",228,a,0.3015308380126953,colour,0.5
131,22,0,1,12,37,587,826.3173082869034,827.454466542229,"[70, 0, 184]",184,a,0.6124517391435802,colour,0.5
131,22,0,1,12,38,588,827.9749151952565,828.9184842307586,"[89, 0, 165]",165,l,0.4202370399143547,colour,0.5
131,22,0,1,12,39,589,829.4281178873498,830.1984792051371,"[10, 0, 244]",244,a,0.24716204800643027,colour,0.5
131,22,0,1,12,40,590,830.70919593703,831.4705125938635,"[18, 0, 236]",236,a,0.2378641446121037,colour,0.5
131,22,0,1,12,41,591,831.9919773680158,832.7265739738941,"[54, 0, 200]",200,a,0.21131187165156007,colour,0.5
131,22,0,1,12,42,592,833.2420727771241,833.878419514047,"[94, 0, 160]",160,l,0.11312659340910614,colour,0.5
131,22,0,1,12,43,593,834.3983171770815,835.2144256138708,"[72, 0, 182]",182,l,0.29282803484238684,colour,0.5
131,22,0,1,12,44,594,835.7264148602262,836.75844079745,"[48, 0, 206]",206,a,0.5088109136559069,colour,0.5
131,22,0,1,12,45,595,837.2731385191437,838.1744672355708,"[50, 0, 204]",204,a,0.3780270470306277,colour,0.5
131,22,0,1,12,46,596,838.6950643681921,839.6224766813684,"[13, 0, 241]",241,a,0.40411143144592643,colour,0.5
131,22,0,1,12,47,597,840.1339011534583,840.8864708966576,"[64, 0, 190]",190,l,0.22916961228474975,colour,0.5
131,22,0,1,12,48,598,841.3995759072714,842.1264082437847,"[80, 0, 174]",174,l,0.2038599217776209,colour,0.5
131,22,0,1,12,49,599,842.6338497565594,843.4464446981438,"[44, 0, 210]",210,a,0.2891877214424312,colour,0.5
131,22,0,1,12,50,600,843.963373554172,844.7184611512348,"[84, 0, 170]",170,l,0.23164690006524324,colour,0.5
131,22,0,1,13,1,601,849.2438746201806,851.4625088665634,"[45, 0, 209]",209,a,1.6922475853934884,colour,0.5
131,22,0,1,13,2,602,851.9813659898937,853.3904335726984,"[83, 0, 171]",171,l,0.8856780857313424,colour,0.5
131,22,0,1,13,3,603,853.9031975131948,854.7344563968945,"[42, 0, 212]",212,a,0.3079261004459113,colour,0.5
131,22,0,1,13,4,604,855.2483297998551,856.0303985676728,"[20, 0, 234]",234,a,0.258843504358083,colour,0.5
131,22,0,1,13,5,605,856.545024609426,857.1824177936651,"[71, 0, 183]",183,l,0.11395130562596023,colour,0.5
131,22,0,1,13,6,606,857.7013840123545,858.4384504230693,"[54, 0, 200]",200,l,0.21382815041579306,colour,0.5
131,22,0,1,13,7,607,858.9526987669524,859.6223888539243,"[59, 0, 195]",195,a,0.1464037774130702,colour,0.5
131,22,0,1,13,8,608,860.14017747459,860.9104107925668,"[55, 0, 199]",199,a,0.24695685459300876,colour,0.5
131,22,0,1,13,9,609,861.4214040038642,862.2624125319999,"[18, 0, 236]",236,a,0.31768677243962884,colour,0.5
131,22,0,1,13,10,610,862.7807773486711,863.7424187704455,"[29, 0, 225]",225,a,0.43831809097900987,colour,0.5
131,22,0,1,13,11,611,864.2495814408176,864.934440879384,"[94, 0, 160]",160,l,0.16155973845161498,colour,0.5
131,22,0,1,13,12,612,865.4526398871094,866.2544151060283,"[3, 0, 251]",251,a,0.27840895880945027,colour,0.5
131,22,0,1,13,13,613,866.7651456224266,867.5584259887692,"[44, 0, 210]",210,a,0.27074866462498903,colour,0.5
131,22,0,1,13,14,614,868.0777238253504,868.9104068542365,"[19, 0, 235]",235,a,0.3097460602875799,colour,0.5
131,22,0,1,13,15,615,869.4213216903154,870.1983602638356,"[15, 0, 239]",239,a,0.26582638430409133,colour,0.5
131,22,0,1,13,16,616,870.7040664937813,871.3504527451005,"[50, 0, 204]",204,a,0.12302392977289855,colour,0.5
131,22,0,1,13,17,617,871.8604081736412,872.5745303295553,"[70, 0, 184]",184,l,0.1908799570519477,colour,0.5
131,22,0,1,13,18,618,873.0948442872614,873.7264223434031,"[10, 0, 244]",244,a,0.10831301426514983,colour,0.5
131,22,0,1,13,19,619,874.2354668073822,874.7824594625272,"[40, 0, 214]",214,a,0.023635847261175513,colour,0.5
131,22,0,1,13,20,620,875.3008431838825,875.8783525603358,"[77, 0, 177]",177,l,0.054112396435812116,colour,0.5
131,22,0,1,13,21,621,876.3946563836653,877.0143911130726,"[96, 0, 158]",158,l,0.09762759320437908,colour,0.5
131,22,0,1,13,22,622,877.5338854785077,878.2783995065838,"[58, 0, 196]",196,a,0.2211339834611863,colour,0.5
131,22,0,1,13,23,623,878.7995968598407,879.5023636636324,"[53, 0, 201]",201,a,0.17989915190264583,colour,0.5
131,22,0,1,13,24,624,880.0208001600113,880.6144099389203,"[89, 0, 165]",165,l,0.07024824479594827,colour,0.5
131,22,0,1,13,25,625,881.1300958187785,881.9343786516692,"[90, 0, 164]",164,l,0.28118202462792397,colour,0.5
131,22,0,1,13,26,626,882.4427756338846,883.2383989868686,"[37, 0, 217]",217,a,0.27240557270124555,colour,0.5
131,22,0,1,13,27,627,883.7551431294996,885.0703671860974,"[60, 0, 194]",194,a,0.7917920243926346,colour,0.5
131,22,0,1,13,28,628,885.5864929913078,886.3903713452164,"[46, 0, 208]",208,a,0.28052233369089663,colour,0.5
131,22,0,1,13,29,629,886.8990097544156,888.2223789289128,"[24, 0, 230]",230,a,0.8000265450682491,colour,0.5
131,22,0,1,13,30,630,888.7448909382802,889.622366798576,"[27, 0, 227]",227,a,0.3542643813416362,colour,0.5
131,22,0,1,13,31,631,890.135572633706,890.7983684558421,"[1, 0, 253]",253,a,0.13945673732087016,colour,0.5
131,22,0,1,13,32,632,891.3073873198591,891.8383583419491,"[92, 0, 162]",162,l,0.007689832476899028,colour,0.5
131,22,0,1,13,33,633,892.3543080983218,893.071246643085,"[87, 0, 167]",167,l,0.19361088145524263,colour,0.5
131,22,0,1,13,34,634,893.588704433525,895.2863606987521,"[61, 0, 193]",193,a,1.1746247736737132,colour,0.5
131,22,0,1,13,35,635,895.793216957245,896.6223372600507,"[31, 0, 223]",223,a,0.305917882360518,colour,0.5
131,22,0,1,13,36,636,897.1369751172606,897.7983920865227,"[85, 0, 169]",169,l,0.13815113971941173,colour,0.5
131,22,0,1,13,37,637,898.3089142586105,899.3503468006384,"[0, 0, 254]",254,a,0.5182041276711971,colour,0.5
131,22,0,1,13,38,638,899.8592920156661,900.8623624348547,"[86, 0, 168]",168,l,0.47970100841484964,colour,0.5
131,22,0,1,13,39,639,901.3749916800298,902.0784311718307,"[35, 0, 219]",219,a,0.1801957176066935,colour,0.5
131,22,0,1,13,40,640,902.5936444371473,903.4143711056095,"[80, 0, 174]",174,l,0.297358833020553,colour,0.5
131,22,0,1,13,41,641,903.9218460954726,904.7183173976373,"[67, 0, 187]",187,l,0.27311094966717064,colour,0.5
131,22,0,1,13,42,642,905.2356412808876,906.0862852379214,"[93, 0, 161]",161,l,0.3272213770542294,colour,0.5
131,22,0,1,13,43,643,906.5949756347109,907.4303498095833,"[23, 0, 231]",231,a,0.31092523341067135,colour,0.5
131,22,0,1,13,44,644,907.9389882190153,908.7343205201905,"[7, 0, 247]",247,a,0.2722275545820594,colour,0.5
131,22,0,1,13,45,645,909.2512548901141,910.1503119058907,"[16, 0, 238]",238,a,0.3741500321775675,colour,0.5
131,22,0,1,13,46,646,910.6589916690718,911.422366956016,"[4, 0, 250]",250,a,0.24005510681308806,colour,0.5
131,22,0,1,13,47,647,911.9400634169579,912.7983219821472,"[64, 0, 190]",190,l,0.3347532774787396,colour,0.5
131,22,0,1,13,48,648,913.3144958366174,914.0863687330857,"[2, 0, 252]",252,a,0.24604589003138244,colour,0.5
131,22,0,1,13,49,649,914.5981212784536,915.4226662786677,"[65, 0, 189]",189,l,0.3010739772580564,colour,0.5
131,22,0,1,13,50,650,915.9418959799223,916.5823308324907,"[17, 0, 237]",237,a,0.11706426017917693,colour,0.5
131,22,0,1,14,1,651,921.1286232306156,921.7423167645466,"[2, 0, 252]",252,a,0.08751561120152473,colour,0.5
131,22,0,1,14,2,652,922.2565666837618,924.5023321558256,"[6, 0, 248]",248,a,1.722492159344256,colour,0.5
131,22,0,1,14,3,653,925.0211408364121,925.7743556983769,"[60, 0, 194]",194,l,0.22986750630661845,colour,0.5
131,22,0,1,14,4,654,926.2867549380753,926.9263174228836,"[82, 0, 172]",172,l,0.11623403383418918,colour,0.5
131,22,0,1,14,5,655,927.4429583780002,928.1742868542206,"[12, 0, 242]",242,a,0.20453457906842232,colour,0.5
131,22,0,1,14,6,656,928.680770535022,929.4462745569181,"[39, 0, 215]",215,a,0.24210467864759266,colour,0.5
131,22,0,1,14,7,657,929.9620585041121,930.6462791254744,"[27, 0, 227]",227,a,0.1609350994694978,colour,0.5
131,22,0,1,14,8,658,931.165159879718,932.3023102581501,"[64, 0, 190]",190,l,0.6113147074356675,colour,0.5
131,22,0,1,14,9,659,932.8238136293367,933.6144536556676,"[93, 0, 161]",161,l,0.2676640672143549,colour,0.5
131,22,0,1,14,10,660,934.1206486476585,935.1182899072301,"[46, 0, 208]",208,a,0.4742163163609803,colour,0.5
131,22,0,1,14,11,661,935.6363676106557,936.4783111277502,"[85, 0, 169]",169,l,0.3186331829056144,colour,0.5
131,22,0,1,14,12,662,936.9960977793671,937.6942735265475,"[84, 0, 170]",170,l,0.1748996777459979,colour,0.5
131,22,0,1,14,13,663,938.2147836193908,938.9343113042414,"[43, 0, 211]",211,a,0.19605666189454496,colour,0.5
131,22,0,1,14,14,664,939.4495860093739,940.3582823928446,"[23, 0, 231]",231,a,0.38569285487756133,colour,0.5
131,22,0,1,14,15,665,940.872497259872,941.5102807448711,"[31, 0, 223]",223,a,0.11439162492752075,colour,0.5
131,22,0,1,14,16,666,942.0288070382085,942.9422295670956,"[42, 0, 212]",212,a,0.40125487046316266,colour,0.5
131,22,0,1,14,17,667,943.4550699135289,944.1902950967196,"[67, 0, 187]",187,a,0.21685760957188904,colour,0.5
131,22,0,1,14,18,668,944.7000658116303,945.3502896931022,"[35, 0, 219]",219,a,0.12690842733718455,colour,0.5
131,22,0,1,14,19,669,945.8587709581479,946.566283993423,"[20, 0, 234]",234,a,0.1842865904327482,colour,0.5
131,22,0,1,14,20,670,947.0774670380633,947.7262683499139,"[63, 0, 191]",191,l,0.12575288489460945,colour,0.5
131,22,0,1,14,21,671,948.2336767797824,949.35827215272,"[33, 0, 221]",221,a,0.6010345532558858,colour,0.5
131,22,0,1,14,22,672,949.8755542882718,950.5022888330277,"[80, 0, 174]",174,l,0.10334150306880474,colour,0.5
131,22,0,1,14,23,673,951.0163044142537,951.8942481628619,"[62, 0, 192]",192,l,0.35443531023338437,colour,0.5
131,22,0,1,14,24,674,952.4069219126832,953.3262347942218,"[52, 0, 202]",202,a,0.396092344308272,colour,0.5
131,22,0,1,14,25,675,953.8444267127197,954.5983678256162,"[32, 0, 222]",222,a,0.23079855693504214,colour,0.5
131,22,0,1,14,26,676,955.1123507178854,955.942234293092,"[55, 0, 199]",199,a,0.30650786287151277,colour,0.5
131,22,0,1,14,27,677,956.456164410105,957.0782062860671,"[61, 0, 193]",193,a,0.09880912955850363,colour,0.5
131,22,0,1,14,28,678,957.5966234842781,958.2862870495301,"[17, 0, 237]",237,a,0.16632290510460734,colour,0.5
131,22,0,1,14,29,679,958.8013853121083,959.4142423181329,"[87, 0, 167]",167,l,0.08960377960465848,colour,0.5
131,22,0,1,14,30,680,959.9263438105118,960.6302921506576,"[5, 0, 249]",249,a,0.18066242430359125,colour,0.5
131,22,0,1,14,31,681,961.1451029060408,961.7902268825565,"[56, 0, 198]",198,a,0.12179040559567511,colour,0.5
131,22,0,1,14,32,682,962.301392204361,962.8862657032441,"[28, 0, 226]",226,a,0.061632087687030435,colour,0.5
131,22,0,1,14,33,683,963.3951935889199,963.9662127860356,"[76, 0, 178]",178,l,0.04643910541199148,colour,0.5
131,22,0,1,14,34,684,964.4746798726264,965.1342481314205,"[29, 0, 225]",225,a,0.1364694198127836,colour,0.5
131,22,0,1,14,35,685,965.646511494182,966.3662987232674,"[21, 0, 233]",233,a,0.1964024582412094,colour,0.5
131,22,0,1,14,36,686,966.8809582418762,967.6302314985078,"[83, 0, 171]",171,l,0.22418234730139375,colour,0.5
131,22,0,1,14,37,687,968.148269029567,968.8862597953994,"[97, 0, 157]",157,l,0.21466782875359058,colour,0.5
131,22,0,1,14,38,688,969.3983219033107,970.0222290314268,"[47, 0, 207]",207,a,0.10060742776840925,colour,0.5
131,22,0,1,14,39,689,970.5388845587149,971.3342341892421,"[36, 0, 218]",218,a,0.27196643501520157,colour,0.5
131,22,0,1,14,40,690,971.8513493342325,972.5422196420841,"[8, 0, 246]",246,a,0.16753594926558435,colour,0.5
131,22,0,1,14,41,691,973.0559536239598,973.6622062355746,"[81, 0, 173]",173,a,0.08313920022919774,colour,0.5
131,22,0,1,14,42,692,974.1808888856322,974.9262154169846,"[70, 0, 184]",184,a,0.221960271243006,colour,0.5
131,22,0,1,14,43,693,975.4464584826492,976.1502028107643,"[91, 0, 163]",163,l,0.1803942157421261,colour,0.5
131,22,0,1,14,44,694,976.665281774709,977.3102938993834,"[50, 0, 204]",204,a,0.12162617221474648,colour,0.5
131,22,0,1,14,45,695,977.8214777319226,978.558192438446,"[96, 0, 158]",158,l,0.21337719727307558,colour,0.5
131,22,0,1,14,46,696,979.0728377785999,979.7742670832667,"[22, 0, 232]",232,a,0.17829895787872374,colour,0.5
131,22,0,1,14,47,697,980.2916480738204,981.0222077637445,"[99, 0, 155]",155,l,0.20791771146468818,colour,0.5
131,22,0,1,14,48,698,981.5417127630208,982.214173552813,"[53, 0, 201]",201,a,0.149267821572721,colour,0.5
131,22,0,1,14,49,699,982.7291642953642,983.4542731642723,"[13, 0, 241]",241,a,0.20186391309835017,colour,0.5
131,22,0,1,14,50,700,983.9634574432857,984.5822048019618,"[0, 0, 254]",254,a,0.09540512319654226,colour,0.5
131,22,0,1,15,1,701,992.4328196144197,993.1421746648848,"[68, 0, 186]",186,l,0.18519204086624086,colour,0.5
131,22,0,1,15,2,702,993.6524239021819,994.302506787004,"[62, 0, 192]",192,l,0.12680405844002962,colour,0.5
131,22,0,1,15,3,703,994.808656092966,995.5501489327289,"[52, 0, 202]",202,a,0.21824237005785108,colour,0.5
131,22,0,1,15,4,704,996.0586491022259,996.7101644028444,"[79, 0, 175]",175,l,0.12825262174010277,colour,0.5
131,22,0,1,15,5,705,997.2305118376389,998.3581713284366,"[64, 0, 190]",190,a,0.6043590027838945,colour,0.5
131,22,0,1,15,6,706,998.8711140747182,999.6783113640267,"[50, 0, 204]",204,a,0.2839279151521623,colour,0.5
131,22,0,1,15,7,707,1000.1849151677452,1000.8862097770907,"[35, 0, 219]",219,a,0.17799293994903564,colour,0.5
131,22,0,1,15,8,708,1001.4036758383736,1002.1181737228762,"[67, 0, 187]",187,a,0.19111232575960457,colour,0.5
131,22,0,1,15,9,709,1002.6380323953927,1003.2861795297358,"[7, 0, 247]",247,a,0.1247643327806145,colour,0.5
131,22,0,1,15,10,710,1003.796120386105,1004.5341253303923,"[86, 0, 168]",168,l,0.21463395818136632,colour,0.5
131,22,0,1,15,11,711,1005.0462512411177,1005.7662070358638,"[93, 0, 161]",161,l,0.19671792816370726,colour,0.5
131,22,0,1,15,12,712,1006.2804920074996,1006.9821111455094,"[29, 0, 225]",225,a,0.17831825627945364,colour,0.5
131,22,0,1,15,13,713,1007.4992814289872,1008.1101495155599,"[33, 0, 221]",221,a,0.08750182646326721,colour,0.5
131,22,0,1,15,14,714,1008.6243521734141,1009.7981612931471,"[41, 0, 213]",213,a,0.6505582563113421,colour,0.5
131,22,0,1,15,15,715,1010.3131709403824,1010.950166734634,"[81, 0, 173]",173,l,0.11366143566556275,colour,0.5
131,22,0,1,15,16,716,1011.4693259375636,1012.2541413835716,"[34, 0, 220]",220,a,0.26173826842568815,colour,0.5
131,22,0,1,15,17,717,1012.766186949797,1013.886144004995,"[12, 0, 242]",242,a,0.5973142890725285,colour,0.5
131,22,0,1,15,18,718,1014.4068781959359,1015.1581573074218,"[54, 0, 200]",200,a,0.22656708140857518,colour,0.5
131,22,0,1,15,19,719,1015.6738695749082,1016.4300985361915,"[47, 0, 207]",207,a,0.23291705176234245,colour,0.5
131,22,0,1,15,20,720,1016.9394076643512,1017.5820961007848,"[0, 0, 254]",254,a,0.11921032425016165,colour,0.5
131,22,0,1,15,21,721,1018.0946761153173,1019.0941408793442,"[24, 0, 230]",230,a,0.4763844357803464,colour,0.5
131,22,0,1,15,22,722,1019.6102867708541,1020.358095709933,"[65, 0, 189]",189,l,0.22282751882448792,colour,0.5
131,22,0,1,15,23,723,1020.8782021112274,1021.5101716497447,"[27, 0, 227]",227,a,0.10878326580859721,colour,0.5
131,22,0,1,15,24,724,1022.0185733579565,1022.6941337112803,"[94, 0, 160]",160,l,0.1522208747919649,colour,0.5
131,22,0,1,15,25,725,1023.2061414686032,1023.7821065769531,"[3, 0, 251]",251,a,0.053084459621459246,colour,0.5
131,22,0,1,15,26,726,1024.2998183979653,1024.9901755251922,"[5, 0, 249]",249,a,0.16702946391887963,colour,0.5
131,22,0,1,15,27,727,1025.502985545434,1026.166140948655,"[4, 0, 250]",250,a,0.13982773991301656,colour,0.5
131,22,0,1,15,28,728,1026.6767986037303,1027.2060957825743,"[92, 0, 162]",162,l,0.006003780290484428,colour,0.5
131,22,0,1,15,29,729,1027.723678815877,1028.4541487090755,"[53, 0, 201]",201,a,0.20710993465036154,colour,0.5
131,22,0,1,15,30,730,1028.973634409951,1029.694099053042,"[22, 0, 232]",232,a,0.19707042002119124,colour,0.5
131,22,0,1,15,31,731,1030.208052406786,1030.8301313042175,"[69, 0, 185]",185,l,0.09692694200202823,colour,0.5
131,22,0,1,15,32,732,1031.350500400411,1031.9661730076186,"[51, 0, 203]",203,a,0.09228192875161767,colour,0.5
131,22,0,1,15,33,733,1032.4755821726285,1033.0541257872246,"[91, 0, 163]",163,l,0.0552352499216795,colour,0.5
131,22,0,1,15,34,734,1033.5692866710015,1034.3420953445602,"[38, 0, 216]",216,a,0.24951291177421808,colour,0.5
131,22,0,1,15,35,735,1034.8384556218516,1035.4221074120142,"[13, 0, 241]",241,a,0.056836625561118126,colour,0.5
131,22,0,1,15,36,736,1035.9357980708592,1036.5181025157217,"[76, 0, 178]",178,l,0.05934975342825055,colour,0.5
131,22,0,1,15,37,737,1037.0295072954614,1038.0780861631501,"[70, 0, 184]",184,l,0.5253575427923352,colour,0.5
131,22,0,1,15,38,738,1038.592624771176,1039.2221481355373,"[48, 0, 206]",206,a,0.10682467208243906,colour,0.5
131,22,0,1,15,39,739,1039.732581692515,1040.4620787871536,"[77, 0, 177]",177,l,0.20610484085045755,colour,0.5
131,22,0,1,15,40,740,1040.9825632802676,1041.9020813552197,"[58, 0, 196]",196,a,0.39608840574510396,colour,0.5
131,22,0,1,15,41,741,1042.4222637685016,1043.1740879623685,"[99, 0, 155]",155,l,0.2284382414072752,colour,0.5
131,22,0,1,15,42,742,1043.6878491195384,1044.2300876660738,"[8, 0, 246]",246,a,0.019386254949495196,colour,0.5
131,22,0,1,15,43,743,1044.7504012300633,1045.374095681589,"[9, 0, 245]",245,a,0.10033212974667549,colour,0.5
131,22,0,1,15,44,744,1045.8909067779314,1046.4780633989722,"[44, 0, 210]",210,a,0.06380847771652043,colour,0.5
131,22,0,1,15,45,745,1046.9849964573514,1047.886047906708,"[43, 0, 211]",211,a,0.37804477009922266,colour,0.5
131,22,0,1,15,46,746,1048.393129444914,1049.1340874424204,"[20, 0, 234]",234,a,0.21787885087542236,colour,0.5
131,22,0,1,15,47,747,1049.6428451868705,1050.7180527336895,"[21, 0, 233]",233,a,0.5518440436571836,colour,0.5
131,22,0,1,15,48,748,1051.236428971868,1051.8540952247567,"[25, 0, 229]",229,a,0.09167658817023039,colour,0.5
131,22,0,1,15,49,749,1052.3640896440484,1053.15810335055,"[96, 0, 158]",158,l,0.2713256482966244,colour,0.5
131,22,0,1,15,50,750,1053.6765016440768,1054.494096847484,"[80, 0, 174]",174,l,0.2943018046207726,colour,0.5
131,22,0,1,16,1,751,1059.006075459998,1059.7980770103168,"[57, 0, 197]",197,a,0.26784090395085514,colour,0.5
131,22,0,1,16,2,752,1060.3189581055194,1061.718098025769,"[60, 0, 194]",194,a,0.8743148564826697,colour,0.5
131,22,0,1,16,3,753,1062.2266954751685,1062.8380720163696,"[45, 0, 209]",209,a,0.08814970240928233,colour,0.5
131,22,0,1,16,4,754,1063.351735893637,1064.0940676240716,"[40, 0, 214]",214,a,0.2190745654515922,colour,0.5
131,22,0,1,16,5,755,1064.6017466259655,1065.39808559604,"[59, 0, 195]",195,a,0.27388209919445217,colour,0.5
131,22,0,1,16,6,756,1065.915548900608,1066.6940387946088,"[14, 0, 240]",240,a,0.2551130000501871,colour,0.5
131,22,0,1,16,7,757,1067.212396128336,1067.9021660319995,"[51, 0, 203]",203,a,0.16642451751977205,colour,0.5
131,22,0,1,16,8,758,1068.4155404327903,1069.1020248776767,"[82, 0, 172]",172,l,0.16312645538710058,colour,0.5
131,22,0,1,16,9,759,1069.6186418081634,1070.3340305711608,"[6, 0, 248]",248,a,0.1919898136984557,colour,0.5
131,22,0,1,16,10,760,1070.8530850112438,1071.5901179448701,"[54, 0, 200]",200,a,0.2138565070927143,colour,0.5
131,22,0,1,16,11,761,1072.1034395706374,1072.8620646875352,"[43, 0, 211]",211,a,0.23537779808975756,colour,0.5
131,22,0,1,16,12,762,1073.3690036537591,1074.1260175490752,"[18, 0, 236]",236,a,0.2336941089015454,colour,0.5
131,22,0,1,16,13,763,1074.6346358722076,1075.406034578802,"[44, 0, 210]",210,a,0.24813327100127935,colour,0.5
131,22,0,1,16,14,764,1075.9159754351713,1076.6540260654874,"[93, 0, 161]",161,l,0.2147379331290722,colour,0.5
131,22,0,1,16,15,765,1077.165908185998,1077.8783179018646,"[52, 0, 202]",202,a,0.18912143702618778,colour,0.5
131,22,0,1,16,16,766,1078.384553853888,1078.9980272280518,"[17, 0, 237]",237,a,0.09008899703621864,colour,0.5
131,22,0,1,16,17,767,1079.5095828508493,1080.1980258889962,"[91, 0, 163]",163,l,0.16567266639322042,colour,0.5
131,22,0,1,16,18,768,1080.7146329735406,1081.4380526391324,"[22, 0, 232]",232,a,0.1998415165580809,colour,0.5
131,22,0,1,16,19,769,1081.9490868102293,1082.6380225492176,"[85, 0, 169]",169,l,0.16549779893830419,colour,0.5
131,22,0,1,16,20,770,1083.1522220564075,1083.8220145432279,"[86, 0, 168]",168,l,0.14656525407917798,colour,0.5
131,22,0,1,16,21,771,1084.3397499949206,1085.0619948194362,"[41, 0, 213]",213,a,0.1985737280920148,colour,0.5
131,22,0,1,16,22,772,1085.5744570742827,1086.2540299252141,"[34, 0, 220]",220,a,0.1561400310602039,colour,0.5
131,22,0,1,16,23,773,1086.7619259357452,1087.4620075011626,"[71, 0, 183]",183,l,0.1774584916420281,colour,0.5
131,22,0,1,16,24,774,1087.9806818803772,1088.638060358353,"[29, 0, 225]",225,a,0.13402875931933522,colour,0.5
131,22,0,1,16,25,775,1089.1525363451801,1089.7661003037356,"[72, 0, 182]",182,l,0.0893292692489922,colour,0.5
131,22,0,1,16,26,776,1090.27852435573,1091.0300500143785,"[4, 0, 250]",250,a,0.2281022910028696,colour,0.5
131,22,0,1,16,27,777,1091.54419517098,1092.2059677827638,"[96, 0, 158]",158,l,0.13878168631345034,colour,0.5
131,22,0,1,16,28,778,1092.7160130080301,1093.6780132229906,"[69, 0, 185]",185,l,0.43868554872460663,colour,0.5
131,22,0,1,16,29,779,1094.1860494425055,1095.0060345001984,"[88, 0, 166]",166,l,0.2967015050817281,colour,0.5
131,22,0,1,16,30,780,1095.5161187159829,1096.6219827991445,"[53, 0, 201]",201,a,0.5826360627543181,colour,0.5
131,22,0,1,16,31,781,1097.1410266053863,1097.9660190141294,"[95, 0, 159]",159,l,0.301592277828604,colour,0.5
131,22,0,1,16,32,782,1098.4848418731708,1099.229953364702,"[31, 0, 223]",223,a,0.21909031923860312,colour,0.5
131,22,0,1,16,33,783,1099.735730486922,1100.4140713892411,"[63, 0, 191]",191,a,0.15504395915195346,colour,0.5
131,22,0,1,16,34,784,1100.923082770314,1101.6380615399685,"[42, 0, 212]",212,a,0.19153570965863764,colour,0.5
131,22,0,1,16,35,785,1102.1574137271382,1102.9339765354525,"[68, 0, 186]",186,l,0.25305988383479416,colour,0.5
131,22,0,1,16,36,786,1103.4406634406187,1104.198015255155,"[83, 0, 171]",171,l,0.2339634990785271,colour,0.5
131,22,0,1,16,37,787,1104.705527660437,1105.6859830797184,"[28, 0, 226]",226,a,0.4570430791936815,colour,0.5
131,22,0,1,16,38,788,1106.2055054081138,1106.845937110018,"[24, 0, 230]",230,a,0.1173580689355731,colour,0.5
131,22,0,1,16,39,789,1107.3616379559971,1108.0699760976713,"[87, 0, 167]",167,l,0.1825418551452458,colour,0.5
131,22,0,1,16,40,790,1108.582990129944,1109.157960778568,"[36, 0, 218]",218,a,0.05183518189005554,colour,0.5
131,22,0,1,16,41,791,1109.6765973486472,1110.3899983735755,"[62, 0, 192]",192,a,0.19016158301383257,colour,0.5
131,22,0,1,16,42,792,1110.910985806957,1111.8140190865379,"[2, 0, 252]",252,a,0.3800002126954496,colour,0.5
131,22,0,1,16,43,793,1112.3342987799551,1113.0539371352643,"[38, 0, 216]",216,a,0.19637607038021088,colour,0.5
131,22,0,1,16,44,794,1113.5686021677684,1114.2540106268134,"[50, 0, 204]",204,a,0.1626483271829784,colour,0.5
131,22,0,1,16,45,795,1114.7716121710837,1115.3979201810434,"[8, 0, 246]",246,a,0.10293899313546717,colour,0.5
131,22,0,1,16,46,796,1115.9123729306739,1116.7019964421634,"[12, 0, 242]",242,a,0.2663257804233581,colour,0.5
131,22,0,1,16,47,797,1117.2106395775918,1117.8859423559625,"[9, 0, 245]",245,a,0.1522551393136382,colour,0.5
131,22,0,1,16,48,798,1118.3981245867908,1119.1179417478852,"[35, 0, 219]",219,a,0.19674707273952663,colour,0.5
131,22,0,1,16,49,799,1119.6325799988117,1120.3021070337854,"[58, 0, 196]",196,a,0.14626553771086037,colour,0.5
131,22,0,1,16,50,800,1120.8229337783996,1121.4939983859658,"[33, 0, 221]",221,a,0.14773970120586455,colour,0.5
