id,age,condition,counterbalance,block,trialinblock,trial,tstart,tend,trialstim,trialintensity,response,RT,trialtype,colourfreq
041,60,0,2,Practice,1,NA,5.907844752073288e-06,44.65928586293012,"[83, 0, 171]",171,l,44.12618429493159,colour,0.5
041,60,0,2,Practice,2,NA,45.17294286424294,47.64326224150136,"[25, 0, 229]",229,l,1.9381366516463459,colour,0.5
041,60,0,2,Practice,3,NA,48.16084628039971,55.03522124700248,"[39, 0, 215]",215,a,6.356577069498599,colour,0.5
041,60,0,2,Practice,4,NA,55.546367480419576,57.755340550560504,"[62, 0, 192]",192,a,1.6855100933462381,colour,0.5
041,60,0,2,Practice,5,NA,58.2684973673895,60.93120063142851,"[45, 0, 209]",209,a,2.1394848651252687,colour,0.5
041,60,0,2,Practice,6,NA,61.44293369539082,63.387301383540034,"[70, 0, 184]",184,a,1.4193592597730458,colour,0.5
041,60,0,2,Practice,7,NA,63.90166297508404,65.58725262526423,"[84, 0, 170]",170,l,1.161600889172405,colour,0.5
041,60,0,2,Practice,8,NA,66.0923868007958,68.02728052530438,"[5, 0, 249]",249,a,1.4173600976355374,colour,0.5
041,60,0,2,Practice,9,NA,68.5466959476471,70.16326291905716,"[21, 0, 233]",233,a,1.0932280556298792,colour,0.5
041,60,0,2,Practice,10,NA,70.67176526458934,72.15525721292943,"[87, 0, 167]",167,l,0.9602550389245152,colour,0.5
041,60,0,2,1,1,1,6.782609260641038,9.823935119435191,"[8, 0, 246]",246,a,2.5241258195601404,colour,0.5
041,60,0,2,1,2,2,10.33305186452344,11.94399235304445,"[67, 0, 187]",187,l,1.0785671412013471,colour,0.5
041,60,0,2,1,3,3,12.454965688288212,13.975931288208812,"[38, 0, 216]",216,a,0.998473453335464,colour,0.5
041,60,0,2,1,4,4,14.48756510252133,15.823907549958676,"[91, 0, 163]",163,l,0.8038678816519678,colour,0.5
041,60,0,2,1,5,5,16.343847969081253,17.623936615884304,"[41, 0, 213]",213,a,0.7622631802223623,colour,0.5
041,60,0,2,1,6,6,18.13983184332028,20.00794544769451,"[60, 0, 194]",194,a,1.3504720637574792,colour,0.5
041,60,0,2,1,7,7,20.52426405949518,21.695954493246973,"[98, 0, 156]",156,l,0.6522490177303553,colour,0.5
041,60,0,2,1,8,8,22.21686298586428,23.4639414367266,"[2, 0, 252]",252,a,0.7286893911659718,colour,0.5
041,60,0,2,1,9,9,23.983386791311204,26.37594562396407,"[52, 0, 202]",202,a,1.8786005391739309,colour,0.5
041,60,0,2,1,10,10,26.895971113815904,28.248244628775865,"[12, 0, 242]",242,a,0.8259898135438561,colour,0.5
041,60,0,2,1,11,11,28.758186087477952,30.247942548710853,"[29, 0, 225]",225,a,0.966486468911171,colour,0.5
041,60,0,2,1,12,12,30.75822507822886,32.11198929976672,"[75, 0, 179]",179,l,0.8305135276168585,colour,0.5
041,60,0,2,1,13,13,32.63247283222154,34.34393343375996,"[54, 0, 200]",200,a,1.186131188645959,colour,0.5
041,60,0,2,1,14,14,34.86215235199779,36.23996362416074,"[18, 0, 236]",236,a,0.8452606941573322,colour,0.5
041,60,0,2,1,15,15,36.76351285353303,38.191963258665055,"[69, 0, 185]",185,l,0.8963145473971963,colour,0.5
041,60,0,2,1,16,16,38.71337469248101,40.01595863653347,"[11, 0, 243]",243,a,0.7699565663933754,colour,0.5
041,60,0,2,1,17,17,40.538518524728715,41.92002052720636,"[27, 0, 227]",227,a,0.8637497914023697,colour,0.5
041,60,0,2,1,18,18,42.442696993704885,43.743903264869004,"[0, 0, 254]",254,a,0.7541633448563516,colour,0.5
041,60,0,2,1,19,19,44.260058037005365,45.767913294024765,"[21, 0, 233]",233,a,0.9846451291814446,colour,0.5
041,60,0,2,1,20,20,46.26666558999568,48.407896768301725,"[51, 0, 203]",203,a,1.6177142444066703,colour,0.5
041,60,0,2,1,21,21,48.92007251502946,50.13595876283944,"[7, 0, 247]",247,a,0.6926981755532324,colour,0.5
041,60,0,2,1,22,22,50.65444313315675,52.13601193204522,"[1, 0, 253]",253,a,0.9582854155451059,colour,0.5
041,60,0,2,1,23,23,52.63945887144655,53.84793569613248,"[88, 0, 166]",166,l,0.6905666813254356,colour,0.5
041,60,0,2,1,24,24,54.36273169936612,55.703947990201414,"[77, 0, 177]",177,l,0.8179470859467983,colour,0.5
041,60,0,2,1,25,25,56.22207277966663,57.55190416611731,"[9, 0, 245]",245,a,0.8065688773058355,colour,0.5
041,60,0,2,1,26,26,58.071224277839065,59.9439399712719,"[70, 0, 184]",184,l,1.349461454898119,colour,0.5
041,60,0,2,1,27,27,60.46178552415222,61.83990360237658,"[78, 0, 176]",176,l,0.8548012184910476,colour,0.5
041,60,0,2,1,28,28,62.3440251997672,63.53589196642861,"[15, 0, 239]",239,a,0.6727609070949256,colour,0.5
041,60,0,2,1,29,29,64.04992036428303,65.43988454015926,"[35, 0, 219]",219,a,0.8666819743812084,colour,0.5
041,60,0,2,1,30,30,65.95622048107907,67.37591726705432,"[62, 0, 192]",192,l,0.8964811442419887,colour,0.5
041,60,0,2,1,31,31,67.89739210996777,68.91193368891254,"[34, 0, 220]",220,a,0.49127434380352497,colour,0.5
041,60,0,2,1,32,32,69.42865520529449,70.56793605815619,"[89, 0, 165]",165,l,0.615976202301681,colour,0.5
041,60,0,2,1,33,33,71.08489427575842,72.28792893746868,"[82, 0, 172]",172,l,0.6797398566268384,colour,0.5
041,60,0,2,1,34,34,72.80339605454355,74.11189871514216,"[99, 0, 155]",155,l,0.7912955321371555,colour,0.5
041,60,0,2,1,35,35,74.62202134309337,76.30392105132341,"[65, 0, 189]",189,l,1.1585993897169828,colour,0.5
041,60,0,2,1,36,36,76.81550169643015,77.82392487954348,"[3, 0, 251]",251,a,0.48509844578802586,colour,0.5
041,60,0,2,1,37,37,78.33019175566733,79.53615859989077,"[84, 0, 170]",170,l,0.6825692458078265,colour,0.5
041,60,0,2,1,38,38,80.04915236495435,81.28793405741453,"[71, 0, 183]",183,l,0.7155061862431467,colour,0.5
041,60,0,2,1,39,39,81.79905547853559,82.92793210409582,"[45, 0, 209]",209,a,0.6034207884222269,colour,0.5
041,60,0,2,1,40,40,83.4503399678506,84.84789355425164,"[61, 0, 193]",193,a,0.8695121509954333,colour,0.5
041,60,0,2,1,41,41,85.36526215961203,86.4638669998385,"[4, 0, 250]",250,a,0.566756883636117,colour,0.5
041,60,0,2,1,42,42,86.98037859611213,87.95185706205666,"[36, 0, 218]",218,a,0.453610070515424,colour,0.5
041,60,0,2,1,43,43,88.46542781125754,89.83987051900476,"[6, 0, 248]",248,a,0.8547890088520944,colour,0.5
041,60,0,2,1,44,44,90.35622615274042,91.63991297595203,"[74, 0, 180]",180,l,0.7658570245839655,colour,0.5
041,60,0,2,1,45,45,92.15685347048566,93.1358949597925,"[66, 0, 188]",188,l,0.45336785539984703,colour,0.5
041,60,0,2,1,46,46,93.6599494931288,94.90388544742018,"[32, 0, 222]",222,a,0.7249490362592041,colour,0.5
041,60,0,2,1,47,47,95.4279573103413,96.44790009222925,"[33, 0, 221]",221,a,0.5030026813037694,colour,0.5
041,60,0,2,1,48,48,96.96495362045243,98.2238923474215,"[72, 0, 182]",182,l,0.7275881976820529,colour,0.5
041,60,0,2,1,49,49,98.74207227537408,99.77593829855323,"[30, 0, 224]",224,a,0.4996313601732254,colour,0.5
041,60,0,2,1,50,50,100.29015731764957,101.75989065272734,"[58, 0, 196]",196,a,0.9517633272334933,colour,0.5
041,60,0,2,2,1,51,107.15532140992582,109.30386866955087,"[54, 0, 200]",200,l,1.6307166735641658,colour,0.5
041,60,0,2,2,2,52,109.81958981743082,110.76789438957348,"[35, 0, 219]",219,a,0.43071895791217685,colour,0.5
041,60,0,2,2,3,53,111.27675946708769,112.4718990935944,"[88, 0, 166]",166,l,0.6776315998286009,colour,0.5
041,60,0,2,2,4,54,112.9843005137518,114.12788689043373,"[72, 0, 182]",182,l,0.6254387442022562,colour,0.5
041,60,0,2,2,5,55,114.6368197100237,115.73601334961131,"[9, 0, 245]",245,a,0.5761178135871887,colour,0.5
041,60,0,2,2,6,56,116.24624349735677,117.27190492255613,"[34, 0, 220]",220,a,0.5024761096574366,colour,0.5
041,60,0,2,2,7,57,117.79304538993165,119.12790815811604,"[82, 0, 172]",172,l,0.8179143965244293,colour,0.5
041,60,0,2,2,8,58,119.64634841820225,121.01590034738183,"[53, 0, 201]",201,a,0.8462602752260864,colour,0.5
041,60,0,2,2,9,59,121.53697819355875,122.71189461927861,"[10, 0, 244]",244,a,0.6516775470227003,colour,0.5
041,60,0,2,2,10,60,123.21577321412042,124.47986935311928,"[22, 0, 232]",232,a,0.7465349435806274,colour,0.5
041,60,0,2,2,11,61,124.99234048463404,126.23189017688856,"[4, 0, 250]",250,a,0.7162982109002769,colour,0.5
041,60,0,2,2,12,62,126.74232473038137,127.9038425181061,"[15, 0, 239]",239,a,0.6382111674174666,colour,0.5
041,60,0,2,2,13,63,128.42215399071574,129.59187007509172,"[55, 0, 199]",199,l,0.646443335339427,colour,0.5
041,60,0,2,2,14,64,130.10969829838723,131.4318819846958,"[85, 0, 169]",169,l,0.7990090046077967,colour,0.5
041,60,0,2,2,15,65,131.95340802753344,133.46390441525728,"[62, 0, 192]",192,l,0.9967594360932708,colour,0.5
041,60,0,2,2,16,66,133.97413535043597,135.2319240476936,"[78, 0, 176]",176,l,0.7391393049620092,colour,0.5
041,60,0,2,2,17,67,135.74115382647142,136.99988066451624,"[90, 0, 164]",164,l,0.7414035247638822,colour,0.5
041,60,0,2,2,18,68,137.51911373622715,138.67989030573517,"[5, 0, 249]",249,a,0.629049917217344,colour,0.5
041,60,0,2,2,19,69,139.18960766633973,140.41591940959916,"[49, 0, 205]",205,a,0.6943196388892829,colour,0.5
041,60,0,2,2,20,70,140.93711028946564,141.97585566947237,"[7, 0, 247]",247,a,0.5151705509051681,colour,0.5
041,60,0,2,2,21,71,142.4887738157995,143.78387311240658,"[45, 0, 209]",209,a,0.7718115812167525,colour,0.5
041,60,0,2,2,22,72,144.2937873955816,145.6238519391045,"[48, 0, 206]",206,a,0.8109760130755603,colour,0.5
041,60,0,2,2,23,73,146.13569803675637,147.39188063004985,"[0, 0, 254]",254,a,0.7304865103214979,colour,0.5
041,60,0,2,2,24,74,147.90921693947166,149.14394005015492,"[1, 0, 253]",253,a,0.7011918565258384,colour,0.5
041,60,0,2,2,25,75,149.6586537398398,150.8319160132669,"[71, 0, 183]",183,l,0.6413182183168828,colour,0.5
041,60,0,2,2,26,76,151.34823383716866,152.63183598360047,"[40, 0, 214]",214,a,0.7512106825597584,colour,0.5
041,60,0,2,2,27,77,153.13759243534878,154.1999575435184,"[27, 0, 227]",227,a,0.5441788788884878,colour,0.5
041,60,0,2,2,28,78,154.71838283725083,155.8798435172066,"[92, 0, 162]",162,l,0.6382359801791608,colour,0.5
041,60,0,2,2,29,79,156.3903135168366,157.40785738360137,"[74, 0, 180]",180,l,0.4942888403311372,colour,0.5
041,60,0,2,2,30,80,157.9215198988095,159.20784864015877,"[50, 0, 204]",204,a,0.7742711487226188,colour,0.5
041,60,0,2,2,31,81,159.7105929586105,160.85587011603639,"[21, 0, 233]",233,a,0.6224927771836519,colour,0.5
041,60,0,2,2,32,82,161.36171045713127,162.68786607962102,"[59, 0, 195]",195,l,0.8027202147059143,colour,0.5
041,60,0,2,2,33,83,163.20510038314387,164.4079007068649,"[75, 0, 179]",179,l,0.6770526464097202,colour,0.5
041,60,0,2,2,34,84,164.92964730318636,166.03984775487334,"[63, 0, 191]",191,l,0.579163424205035,colour,0.5
041,60,0,2,2,35,85,166.5491240080446,167.7119013145566,"[94, 0, 160]",160,l,0.6328595890663564,colour,0.5
041,60,0,2,2,36,86,168.2322832350619,169.25589469168335,"[73, 0, 181]",181,l,0.5067005003802478,colour,0.5
041,60,0,2,2,37,87,169.77846954623237,171.11188256787136,"[60, 0, 194]",194,a,0.8163417703472078,colour,0.5
041,60,0,2,2,38,88,171.62104893755168,172.72782568680122,"[44, 0, 210]",210,a,0.5889780642464757,colour,0.5
041,60,0,2,2,39,89,173.23846976691857,174.50383408972993,"[68, 0, 186]",186,l,0.7447413690388203,colour,0.5
041,60,0,2,2,40,90,175.02250199299306,176.23181810276583,"[25, 0, 229]",229,a,0.6860417854040861,colour,0.5
041,60,0,2,2,41,91,176.7436074865982,177.8878582813777,"[81, 0, 173]",173,l,0.6211135284975171,colour,0.5
041,60,0,2,2,42,92,178.38736400473863,179.5838521597907,"[33, 0, 221]",221,a,0.6730811041779816,colour,0.5
041,60,0,2,2,43,93,180.09053651243448,181.21592957060784,"[24, 0, 230]",230,a,0.6020907703787088,colour,0.5
041,60,0,2,2,44,94,181.73216074891388,182.80791267938912,"[95, 0, 159]",159,l,0.5524047440849245,colour,0.5
041,60,0,2,2,45,95,183.32474880479276,184.51982620358467,"[16, 0, 238]",238,a,0.6717873201705515,colour,0.5
041,60,0,2,2,46,96,185.0326655805111,186.31983833387494,"[51, 0, 203]",203,a,0.763922059442848,colour,0.5
041,60,0,2,2,47,97,186.82089384132996,187.999827101361,"[8, 0, 246]",246,a,0.655635304749012,colour,0.5
041,60,0,2,2,48,98,188.50707622943446,189.6398586248979,"[86, 0, 168]",168,l,0.6094856215640903,colour,0.5
041,60,0,2,2,49,99,190.13607415929437,191.31199213583022,"[36, 0, 218]",218,a,0.6526011163368821,colour,0.5
041,60,0,2,2,50,100,191.8191073560156,192.79987546568736,"[47, 0, 207]",207,a,0.45702668372541666,colour,0.5
041,60,0,2,3,1,101,198.07692480366677,199.7598548126407,"[93, 0, 161]",161,l,1.1651392010971904,colour,0.5
041,60,0,2,3,2,102,200.27636247035116,201.93586061615497,"[67, 0, 187]",187,l,1.1418979591690004,colour,0.5
041,60,0,2,3,3,103,202.44702181592584,203.40784438652918,"[47, 0, 207]",207,a,0.43868055287748575,colour,0.5
041,60,0,2,3,4,104,203.92451273370534,204.85581261431798,"[18, 0, 236]",236,a,0.40186226088553667,colour,0.5
041,60,0,2,3,5,105,205.355039101094,206.33616009680554,"[53, 0, 201]",201,a,0.45779468351975083,colour,0.5
041,60,0,2,3,6,106,206.85507651651278,208.22379388613626,"[58, 0, 196]",196,a,0.8453997219912708,colour,0.5
041,60,0,2,3,7,107,208.73159164143726,209.8958123936318,"[39, 0, 215]",215,a,0.6408463902771473,colour,0.5
041,60,0,2,3,8,108,210.40348372468725,211.52797330031171,"[80, 0, 174]",174,l,0.6012317924760282,colour,0.5
041,60,0,2,3,9,109,212.0460212896578,213.27985036978498,"[1, 0, 253]",253,a,0.7113975859247148,colour,0.5
041,60,0,2,3,10,110,213.78378134593368,214.79192647337914,"[37, 0, 217]",217,a,0.49002742720767856,colour,0.5
041,60,0,2,3,11,111,215.29168740892783,216.42385264812037,"[90, 0, 164]",164,l,0.6088787051849067,colour,0.5
041,60,0,2,3,12,112,216.93766364268959,217.9118635840714,"[74, 0, 180]",180,l,0.45090946881100535,colour,0.5
041,60,0,2,3,13,113,218.42201063083485,219.64783361088485,"[26, 0, 228]",228,a,0.7088218335993588,colour,0.5
041,60,0,2,3,14,114,220.1657721111551,221.64786590635777,"[69, 0, 185]",185,l,0.9588458579964936,colour,0.5
041,60,0,2,3,15,115,222.15753167308867,223.30379344522953,"[83, 0, 171]",171,l,0.6230091089382768,colour,0.5
041,60,0,2,3,16,116,223.81232848018408,224.9038385800086,"[13, 0, 241]",241,a,0.5712345181964338,colour,0.5
041,60,0,2,3,17,117,225.42458283854648,226.35984638426453,"[17, 0, 237]",237,a,0.41177103063091636,colour,0.5
041,60,0,2,3,18,118,226.87789870612323,228.03986075194553,"[44, 0, 210]",210,a,0.6388570750132203,colour,0.5
041,60,0,2,3,19,119,228.549791182857,229.71177370846272,"[81, 0, 173]",173,l,0.6504648956470191,colour,0.5
041,60,0,2,3,20,120,230.21649158885702,231.2557627535425,"[86, 0, 168]",168,l,0.5160854551941156,colour,0.5
041,60,0,2,3,21,121,231.76981438836083,232.87981831096113,"[21, 0, 233]",233,a,0.5866567366756499,colour,0.5
041,60,0,2,3,22,122,233.3948352620937,234.46381855662912,"[98, 0, 156]",156,l,0.5527005228213966,colour,0.5
041,60,0,2,3,23,123,234.98307525925338,235.93575861025602,"[96, 0, 158]",158,l,0.42070503160357475,colour,0.5
041,60,0,2,3,24,124,236.45689789624885,237.575796041172,"[50, 0, 204]",204,a,0.5866787917912006,colour,0.5
041,60,0,2,3,25,125,238.09638985060155,239.19181044679135,"[92, 0, 162]",162,l,0.5774785513058305,colour,0.5
041,60,0,2,3,26,126,239.70513937389478,240.84786047134548,"[56, 0, 198]",198,a,0.6253784857690334,colour,0.5
041,60,0,2,3,27,127,241.3605285254307,242.343967304565,"[34, 0, 220]",220,a,0.46454165782779455,colour,0.5
041,60,0,2,3,28,128,242.86063525779173,243.82379412231967,"[11, 0, 243]",243,a,0.4326385627500713,colour,0.5
041,60,0,2,3,29,129,244.33201250527054,245.32783458800986,"[15, 0, 239]",239,a,0.4786051083356142,colour,0.5
041,60,0,2,3,30,130,245.83898987947032,247.02409352408722,"[28, 0, 226]",226,a,0.6617765445262194,colour,0.5
041,60,0,2,3,31,131,247.53455210244283,249.11179710319266,"[40, 0, 214]",214,a,1.0539513775147498,colour,0.5
041,60,0,2,3,32,132,249.62443483108655,250.95978990662843,"[64, 0, 190]",190,a,0.812118954025209,colour,0.5
041,60,0,2,3,33,133,251.45743785891682,252.5198155697435,"[4, 0, 250]",250,a,0.5389722352847457,colour,0.5
041,60,0,2,3,34,134,253.03556664986536,254.45593021670356,"[77, 0, 177]",177,l,0.8977371188811958,colour,0.5
041,60,0,2,3,35,135,254.97961926134303,256.1357850767672,"[0, 0, 254]",254,a,0.637117063626647,colour,0.5
041,60,0,2,3,36,136,256.6444063638337,257.87179251853377,"[87, 0, 167]",167,l,0.6960119949653745,colour,0.5
041,60,0,2,3,37,137,258.39210984809324,259.5037868283689,"[5, 0, 249]",249,a,0.5774919418618083,colour,0.5
041,60,0,2,3,38,138,260.01564789237455,261.23981159972027,"[57, 0, 197]",197,a,0.6930242795497179,colour,0.5
041,60,0,2,3,39,139,261.76200639270246,263.26409141300246,"[60, 0, 194]",194,a,0.9702224913053215,colour,0.5
041,60,0,2,3,40,140,263.77721475297585,264.743783141952,"[8, 0, 246]",246,a,0.4546293434686959,colour,0.5
041,60,0,2,3,41,141,265.26682864222676,266.3038131375797,"[19, 0, 235]",235,a,0.5201704250648618,colour,0.5
041,60,0,2,3,42,142,266.82609300129116,268.0799456019886,"[49, 0, 205]",205,a,0.7352473195642233,colour,0.5
041,60,0,2,3,43,143,268.591017792467,269.7837726813741,"[51, 0, 203]",203,a,0.674443022813648,colour,0.5
041,60,0,2,3,44,144,270.29420841671526,271.42386406939477,"[45, 0, 209]",209,a,0.6114914785139263,colour,0.5
041,60,0,2,3,45,145,271.9353399518877,273.26381217641756,"[85, 0, 169]",169,l,0.8102206168696284,colour,0.5
041,60,0,2,3,46,146,273.7794907884672,274.78383057704195,"[99, 0, 155]",155,l,0.48103001760318875,colour,0.5
041,60,0,2,3,47,147,275.29442030610517,276.5038088839501,"[27, 0, 227]",227,a,0.6904886998236179,colour,0.5
041,60,0,2,3,48,148,277.01450534537435,278.1837752019055,"[97, 0, 157]",157,l,0.650740587618202,colour,0.5
041,60,0,2,3,49,149,278.70270383078605,279.7838226999156,"[9, 0, 245]",245,a,0.5493587399832904,colour,0.5
041,60,0,2,3,50,150,280.2946089580655,281.2718005529605,"[31, 0, 223]",223,a,0.4447217555716634,colour,0.5
041,60,0,2,4,1,151,286.49548731325194,287.59178145974874,"[55, 0, 199]",199,a,0.5703629371710122,colour,0.5
041,60,0,2,4,2,152,288.1094261505641,289.2638003611937,"[90, 0, 164]",164,l,0.6311625074595213,colour,0.5
041,60,0,2,4,3,153,289.7810019752942,290.7358180019073,"[44, 0, 210]",210,a,0.43142669880762696,colour,0.5
041,60,0,2,4,4,154,291.24977708328515,292.4798358762637,"[80, 0, 174]",174,l,0.70669427793473,colour,0.5
041,60,0,2,4,5,155,292.9998148921877,294.31176134198904,"[8, 0, 246]",246,a,0.7887182049453259,colour,0.5
041,60,0,2,4,6,156,294.82749272929505,295.7997856689617,"[15, 0, 239]",239,a,0.4544785008765757,colour,0.5
041,60,0,2,4,7,157,296.3196748881601,297.57582085346803,"[64, 0, 190]",190,a,0.7391731753014028,colour,0.5
041,60,0,2,4,8,158,298.0946742580272,299.12777031213045,"[35, 0, 219]",219,a,0.5100682773627341,colour,0.5
041,60,0,2,4,9,159,299.6358398213051,300.7598000681028,"[97, 0, 157]",157,l,0.6007705992087722,colour,0.5
041,60,0,2,4,10,160,301.276418002788,302.4158386713825,"[48, 0, 206]",206,a,0.6209611101076007,colour,0.5
041,60,0,2,4,11,161,302.9278690884821,303.9997869292274,"[99, 0, 155]",155,l,0.5488148387521505,colour,0.5
041,60,0,2,4,12,162,304.5019259066321,305.6238909298554,"[27, 0, 227]",227,a,0.6035464252345264,colour,0.5
041,60,0,2,4,13,163,306.1477741403505,307.11976224323735,"[21, 0, 233]",233,a,0.45321937557309866,colour,0.5
041,60,0,2,4,14,164,307.62773959198967,308.61575486091897,"[19, 0, 235]",235,a,0.464936685282737,colour,0.5
041,60,0,2,4,15,165,309.1277277767658,310.1278018197045,"[6, 0, 248]",248,a,0.48647926934063435,colour,0.5
041,60,0,2,4,16,166,310.649468859192,311.6797532476485,"[7, 0, 247]",247,a,0.5070092757232487,colour,0.5
041,60,0,2,4,17,167,312.19621403794736,313.20780492341146,"[39, 0, 215]",215,a,0.48836736707016826,colour,0.5
041,60,0,2,4,18,168,313.7274861917831,314.8797450554557,"[92, 0, 162]",162,l,0.6291751605458558,colour,0.5
041,60,0,2,4,19,169,315.39420668408275,316.5917338039726,"[57, 0, 197]",197,a,0.6675219684839249,colour,0.5
041,60,0,2,4,20,170,317.10933989845216,318.11180813098326,"[30, 0, 224]",224,a,0.4693217659369111,colour,0.5
041,60,0,2,4,21,171,318.62699916167185,319.6717778677121,"[0, 0, 254]",254,a,0.513164693955332,colour,0.5
041,60,0,2,4,22,172,320.1862686406821,321.3757538208738,"[91, 0, 163]",163,l,0.6729156882502139,colour,0.5
041,60,0,2,4,23,173,321.8890480902046,322.83172578550875,"[95, 0, 159]",159,l,0.42504127509891987,colour,0.5
041,60,0,2,4,24,174,323.3430334958248,324.3758255010471,"[53, 0, 201]",201,a,0.515469086356461,colour,0.5
041,60,0,2,4,25,175,324.883138038218,326.24781218590215,"[71, 0, 183]",183,l,0.8477423177100718,colour,0.5
041,60,0,2,4,26,176,326.76594367064536,327.88778226915747,"[78, 0, 176]",176,l,0.5898961191996932,colour,0.5
041,60,0,2,4,27,177,328.4021596144885,329.2877666731365,"[33, 0, 221]",221,a,0.3682853211648762,colour,0.5
041,60,0,2,4,28,178,329.8088713004254,330.7677569370717,"[36, 0, 218]",218,a,0.44195735128596425,colour,0.5
041,60,0,2,4,29,179,331.2793879946694,332.3437684122473,"[83, 0, 171]",171,l,0.5472276397049427,colour,0.5
041,60,0,2,4,30,180,332.85713239200413,333.9677664684132,"[79, 0, 175]",175,l,0.5935025666840374,colour,0.5
041,60,0,2,4,31,181,334.48249394260347,335.47173682879657,"[98, 0, 156]",156,l,0.47495258087292314,colour,0.5
041,60,0,2,4,32,182,335.98788963165134,337.34374478133395,"[65, 0, 189]",189,a,0.8234688057564199,colour,0.5
041,60,0,2,4,33,183,337.8581981388852,339.3117570094764,"[52, 0, 202]",202,a,0.93555459799245,colour,0.5
041,60,0,2,4,34,184,339.82286661537364,341.16775867016986,"[47, 0, 207]",207,a,0.8264135918579996,colour,0.5
041,60,0,2,4,35,185,341.6832179101184,342.79987822286785,"[93, 0, 161]",161,l,0.5984299727715552,colour,0.5
041,60,0,2,4,36,186,343.3101426353678,344.43983924761415,"[11, 0, 243]",243,a,0.6099787163548172,colour,0.5
041,60,0,2,4,37,187,344.95693609910086,346.42383453110233,"[77, 0, 177]",177,l,0.948997741099447,colour,0.5
041,60,0,2,4,38,188,346.9397128233686,348.0077465553768,"[25, 0, 229]",229,a,0.5447066319175065,colour,0.5
041,60,0,2,4,39,189,348.51788296783343,349.48774193925783,"[20, 0, 234]",234,a,0.4466382097452879,colour,0.5
041,60,0,2,4,40,190,349.99487370159477,351.03176249191165,"[49, 0, 205]",205,a,0.5136191919445992,colour,0.5
041,60,0,2,4,41,191,351.53073258465156,352.67177550448105,"[76, 0, 178]",178,l,0.6177658378146589,colour,0.5
041,60,0,2,4,42,192,353.1869988311082,354.1757683143951,"[23, 0, 231]",231,a,0.46545734954997897,colour,0.5
041,60,0,2,4,43,193,354.68699607392773,356.2557320334017,"[61, 0, 193]",193,l,1.0489018787629902,colour,0.5
041,60,0,2,4,44,194,356.76060784608126,358.1757316868752,"[51, 0, 203]",203,l,0.892004691530019,colour,0.5
041,60,0,2,4,45,195,358.68256058124825,359.9837833940983,"[46, 0, 208]",208,a,0.7779098912142217,colour,0.5
041,60,0,2,4,46,196,360.49024167936295,361.71973569784313,"[68, 0, 186]",186,l,0.7062512012198567,colour,0.5
041,60,0,2,4,47,197,362.22540195891634,363.23170231236145,"[75, 0, 179]",179,l,0.4830669886432588,colour,0.5
041,60,0,2,4,48,198,363.74100534664467,364.8477340466343,"[37, 0, 217]",217,a,0.5834468919783831,colour,0.5
041,60,0,2,4,49,199,365.36783200409263,366.5117547251284,"[31, 0, 223]",223,a,0.6258518886752427,colour,0.5
041,60,0,2,4,50,200,367.01939848670736,368.1917367973365,"[3, 0, 251]",251,a,0.6490817088633776,colour,0.5
041,60,0,2,5,1,201,373.425911674276,374.72769256681204,"[86, 0, 168]",168,l,0.777837029658258,colour,0.5
041,60,0,2,5,2,202,375.2403818885796,376.4317476833239,"[56, 0, 198]",198,a,0.6740735955536366,colour,0.5
041,60,0,2,5,3,203,376.9456500504166,377.9357231641188,"[40, 0, 214]",214,a,0.46677830908447504,colour,0.5
041,60,0,2,5,4,204,378.4475783202797,379.43171460041776,"[42, 0, 212]",212,a,0.46124438010156155,colour,0.5
041,60,0,2,5,5,205,379.94759486149997,381.07171107130125,"[81, 0, 173]",173,l,0.5971889640204608,colour,0.5
041,60,0,2,5,6,206,381.58240792667493,382.57572554284707,"[82, 0, 172]",172,l,0.46998500218614936,colour,0.5
041,60,0,2,5,7,207,383.08337284903973,384.16771967941895,"[41, 0, 213]",213,a,0.5611311886459589,colour,0.5
041,60,0,2,5,8,208,384.67702192626894,385.6397069944069,"[53, 0, 201]",201,a,0.42433156492188573,colour,0.5
041,60,0,2,5,9,209,386.1531343832612,387.1597171239555,"[29, 0, 225]",225,a,0.4769993983209133,colour,0.5
041,60,0,2,5,10,210,387.6812845203094,388.93574246251956,"[69, 0, 185]",185,l,0.7232732218690217,colour,0.5
041,60,0,2,5,11,211,389.45776790194213,390.4237455218099,"[37, 0, 217]",217,a,0.4334006546996534,colour,0.5
041,60,0,2,5,12,212,390.94022718584165,392.00771819846705,"[95, 0, 159]",159,l,0.5487258299253881,colour,0.5
041,60,0,2,5,13,213,392.5200573913753,393.4958902178332,"[2, 0, 252]",252,a,0.4589210827834904,colour,0.5
041,60,0,2,5,14,214,394.0196540928446,395.0716862590052,"[96, 0, 158]",158,l,0.5332878571934998,colour,0.5
041,60,0,2,5,15,215,395.5914183338173,396.5277090296149,"[26, 0, 228]",228,a,0.39215514063835144,colour,0.5
041,60,0,2,5,16,216,397.04738872265443,398.06374593125656,"[76, 0, 178]",178,l,0.49299466237425804,colour,0.5
041,60,0,2,5,17,217,398.57868056884035,399.7757228645496,"[52, 0, 202]",202,a,0.6737112570554018,colour,0.5
041,60,0,2,5,18,218,400.2817896674387,402.47968345787376,"[64, 0, 190]",190,a,1.66827027592808,colour,0.5
041,60,0,2,5,19,219,402.985910161864,404.1597305149771,"[93, 0, 161]",161,l,0.6510493634268641,colour,0.5
041,60,0,2,5,20,220,404.6734690419398,405.647717426531,"[46, 0, 208]",208,a,0.4509382196702063,colour,0.5
041,60,0,2,5,21,221,406.1610270556994,407.1117199091241,"[54, 0, 200]",200,a,0.376779789570719,colour,0.5
041,60,0,2,5,22,222,407.62366722524166,408.6157091744244,"[49, 0, 205]",205,a,0.46054372750222683,colour,0.5
041,60,0,2,5,23,223,409.1357220611535,410.17575374245644,"[61, 0, 193]",193,a,0.50832235859707,colour,0.5
041,60,0,2,5,24,224,410.69722740352154,411.8477115975693,"[92, 0, 162]",162,l,0.6301901014521718,colour,0.5
041,60,0,2,5,25,225,412.3712261682376,413.41574808675796,"[39, 0, 215]",215,a,0.5274774483405054,colour,0.5
041,60,0,2,5,26,226,413.93263580603525,415.1037220801227,"[77, 0, 177]",177,l,0.6536518968641758,colour,0.5
041,60,0,2,5,27,227,415.6179292839952,416.71972073148936,"[79, 0, 175]",175,l,0.58321294747293,colour,0.5
041,60,0,2,5,28,228,417.2396020735614,418.2317578443326,"[23, 0, 231]",231,a,0.4688743567094207,colour,0.5
041,60,0,2,5,29,229,418.7395721413195,419.7277189544402,"[89, 0, 165]",165,l,0.46483231615275145,colour,0.5
041,60,0,2,5,30,230,420.2395705659874,421.22377458773553,"[20, 0, 234]",234,a,0.4659906169399619,colour,0.5
041,60,0,2,5,31,231,421.7359196143225,422.5357033140026,"[55, 0, 199]",199,a,0.27649401500821114,colour,0.5
041,60,0,2,5,32,232,423.0483890911564,424.10370160033926,"[88, 0, 166]",166,l,0.5318648922257125,colour,0.5
041,60,0,2,5,33,233,424.6109708142467,425.5917133241892,"[43, 0, 211]",211,a,0.45754459127783775,colour,0.5
041,60,0,2,5,34,234,426.107335222885,427.14378684433177,"[24, 0, 230]",230,a,0.5080884136259556,colour,0.5
041,60,0,2,5,35,235,427.6675026700832,429.1597482380457,"[59, 0, 195]",195,l,0.9603928849101067,colour,0.5
041,60,0,2,5,36,236,429.67881392501295,430.6716829505749,"[58, 0, 196]",196,a,0.46009119879454374,colour,0.5
041,60,0,2,5,37,237,431.1810155236162,432.08781188633293,"[22, 0, 232]",232,a,0.37460930459201336,colour,0.5
041,60,0,2,5,38,238,432.6044727503322,433.3276675972156,"[32, 0, 222]",222,a,0.2064099214039743,colour,0.5
041,60,0,2,5,39,239,433.8405400570482,435.80769842723384,"[65, 0, 189]",189,l,1.4490327928215265,colour,0.5
041,60,0,2,5,40,240,436.32102341623977,437.2956947912462,"[28, 0, 226]",226,a,0.4471750217489898,colour,0.5
041,60,0,2,5,41,241,437.81727282190695,438.711681548506,"[50, 0, 204]",204,a,0.37685855850577354,colour,0.5
041,60,0,2,5,42,242,439.2241723719053,440.19968815287575,"[10, 0, 244]",244,a,0.4583007753826678,colour,0.5
041,60,0,2,5,43,243,440.72325471090153,441.6397251114249,"[14, 0, 240]",240,a,0.39904547529295087,colour,0.5
041,60,0,2,5,44,244,442.1614335044287,443.4396982509643,"[36, 0, 218]",218,a,0.7458709194324911,colour,0.5
041,60,0,2,5,45,245,443.9557458967902,444.7036821441725,"[38, 0, 216]",216,a,0.23080079909414053,colour,0.5
041,60,0,2,5,46,246,445.21671529347077,446.45566791528836,"[84, 0, 170]",170,l,0.7016262686811388,colour,0.5
041,60,0,2,5,47,247,446.97833335446194,448.06369551923126,"[0, 0, 254]",254,a,0.5670774742029607,colour,0.5
041,60,0,2,5,48,248,448.587441671174,449.5516970031895,"[18, 0, 236]",236,a,0.4326350181363523,colour,0.5
041,60,0,2,5,49,249,450.07112857326865,451.3436849168502,"[45, 0, 209]",209,a,0.7547730188816786,colour,0.5
041,60,0,2,5,50,250,451.866337752901,453.0957931741141,"[3, 0, 251]",251,a,0.7120352224446833,colour,0.5
041,60,0,2,6,1,251,458.4496412849985,459.71969001181424,"[98, 0, 156]",156,l,0.7458370486274362,colour,0.5
041,60,0,2,6,2,252,460.23178777704015,461.52770666684955,"[5, 0, 249]",249,a,0.7726118760183454,colour,0.5
041,60,0,2,6,3,253,462.04870771290734,463.1356755872257,"[0, 0, 254]",254,a,0.5611134651117027,colour,0.5
041,60,0,2,6,4,254,463.64495184039697,464.86371946521103,"[74, 0, 180]",180,l,0.6954984199255705,colour,0.5
041,60,0,2,6,5,255,465.3792602312751,466.4478674028069,"[40, 0, 214]",214,a,0.5455203177407384,colour,0.5
041,60,0,2,6,6,256,466.96317619411275,468.22371472325176,"[78, 0, 176]",176,l,0.7288981294259429,colour,0.5
041,60,0,2,6,7,257,468.7421195367351,469.77564960950986,"[15, 0, 239]",239,a,0.5023103002458811,colour,0.5
041,60,0,2,6,8,258,470.28591126482934,471.48770413035527,"[67, 0, 187]",187,l,0.683816556353122,colour,0.5
041,60,0,2,6,9,259,472.0007546087727,473.1276478259824,"[91, 0, 163]",163,l,0.6093670739792287,colour,0.5
041,60,0,2,6,10,260,473.6403694432229,475.2796676256694,"[57, 0, 197]",197,l,1.1211989931762218,colour,0.5
041,60,0,2,6,11,261,475.7771084145643,476.89568951399997,"[70, 0, 184]",184,l,0.5907117743045092,colour,0.5
041,60,0,2,6,12,262,477.4076431314461,478.82365903351456,"[46, 0, 208]",208,a,0.892581676132977,colour,0.5
041,60,0,2,6,13,263,479.34522485453635,480.38366539776325,"[3, 0, 251]",251,a,0.5150992646813393,colour,0.5
041,60,0,2,6,14,264,480.89072232926264,482.3997102868743,"[55, 0, 199]",199,a,0.9917583800852299,colour,0.5
041,60,0,2,6,15,265,482.91619195090607,484.23977457825094,"[43, 0, 211]",211,a,0.8003177549690008,colour,0.5
041,60,0,2,6,16,266,484.7599150710739,486.07167089916766,"[44, 0, 210]",210,a,0.7885370356962085,colour,0.5
041,60,0,2,6,17,267,486.58637592429295,487.7836620109156,"[14, 0, 240]",240,a,0.6376440296880901,colour,0.5
041,60,0,2,6,18,268,488.3002724624239,489.49567635916173,"[25, 0, 229]",229,a,0.6784811252728105,colour,0.5
041,60,0,2,6,19,269,490.01619061175734,491.9916169894859,"[59, 0, 195]",195,l,1.4585666214115918,colour,0.5
041,60,0,2,6,20,270,492.50680486951023,494.0636061159894,"[58, 0, 196]",196,l,1.0389899583533406,colour,0.5
041,60,0,2,6,21,271,494.58205779781565,495.9276398704387,"[42, 0, 212]",212,a,0.8277861448004842,colour,0.5
041,60,0,2,6,22,272,496.4309190316126,497.95163453929126,"[62, 0, 192]",192,l,0.9933786625042558,colour,0.5
041,60,0,2,6,23,273,498.4661465799436,499.7436425392516,"[37, 0, 217]",217,a,0.7539853272028267,colour,0.5
041,60,0,2,6,24,274,500.2543823234737,501.2636692104861,"[9, 0, 245]",245,a,0.48611811315640807,colour,0.5
041,60,0,2,6,25,275,501.7827230822295,503.1356716491282,"[47, 0, 207]",207,a,0.8296293439343572,colour,0.5
041,60,0,2,6,26,276,503.6420747959055,504.8876523002982,"[81, 0, 173]",173,l,0.7231235606595874,colour,0.5
041,60,0,2,6,27,277,505.40767345763743,506.61568081751466,"[53, 0, 201]",201,l,0.6847271276637912,colour,0.5
041,60,0,2,6,28,278,507.1368067129515,508.35169889358804,"[22, 0, 232]",232,a,0.6891417466104031,colour,0.5
041,60,0,2,6,29,279,508.86232721991837,510.07163466513157,"[64, 0, 190]",190,l,0.6920101265423,colour,0.5
041,60,0,2,6,30,280,510.59490150678903,511.75164903281257,"[16, 0, 238]",238,a,0.6254517412744462,colour,0.5
041,60,0,2,6,31,281,512.2649137633853,513.4636637750082,"[75, 0, 179]",179,l,0.6816078680567443,colour,0.5
041,60,0,2,6,32,282,513.982655025553,515.0237398506142,"[97, 0, 157]",157,l,0.5232046139426529,colour,0.5
041,60,0,2,6,33,283,515.5326384054497,516.5836438150145,"[90, 0, 164]",164,l,0.5255582369863987,colour,0.5
041,60,0,2,6,34,284,517.095296534244,518.135651956778,"[87, 0, 167]",167,l,0.51989118847996,colour,0.5
041,60,0,2,6,35,285,518.6459600860253,519.8716763341799,"[18, 0, 236]",236,a,0.708497304469347,colour,0.5
041,60,0,2,6,36,286,520.3918562117033,521.5116834393702,"[77, 0, 177]",177,l,0.6027555824257433,colour,0.5
041,60,0,2,6,37,287,522.0297621483915,523.1036685169674,"[17, 0, 237]",237,a,0.555908003821969,colour,0.5
041,60,0,2,6,38,288,523.624255631119,525.1836724081077,"[51, 0, 203]",203,a,1.0407855017110705,colour,0.5
041,60,0,2,6,39,289,525.708024689462,527.1596277211793,"[72, 0, 182]",182,l,0.9289320791140199,colour,0.5
041,60,0,2,6,40,290,527.6806898131035,529.4876206349581,"[49, 0, 205]",205,a,1.2751383977010846,colour,0.5
041,60,0,2,6,41,291,530.0023382632062,531.0316014089622,"[41, 0, 213]",213,a,0.5116239683702588,colour,0.5
041,60,0,2,6,42,292,531.550857717637,532.9436827902682,"[56, 0, 198]",198,a,0.8756553595885634,colour,0.5
041,60,0,2,6,43,293,533.4549180325121,534.4796464364044,"[20, 0, 234]",234,a,0.506153448484838,colour,0.5
041,60,0,2,6,44,294,534.9887344310991,536.1436545117758,"[80, 0, 174]",174,l,0.6366708357818425,colour,0.5
041,60,0,2,6,45,295,536.6454870770685,537.6636729124002,"[76, 0, 178]",178,l,0.49945924943313,colour,0.5
041,60,0,2,6,46,296,538.1804869826883,539.2395863197744,"[26, 0, 228]",228,a,0.5358651848509908,colour,0.5
041,60,0,2,6,47,297,539.7585878102109,540.7596421358176,"[28, 0, 226]",226,a,0.48730673966929317,colour,0.5
041,60,0,2,6,48,298,541.2804092373699,542.4236383959651,"[7, 0, 247]",247,a,0.6225707586854696,colour,0.5
041,60,0,2,6,49,299,542.9341603834182,544.0796317066997,"[92, 0, 162]",162,l,0.6220772694796324,colour,0.5
041,60,0,2,6,50,300,544.5905085494742,545.7676127892919,"[30, 0, 224]",224,a,0.6538180997595191,colour,0.5
041,60,0,2,7,1,301,551.367242810782,553.3277077693492,"[9, 0, 245]",245,a,1.4426268893294036,colour,0.5
041,60,0,2,7,2,302,553.844774688594,554.8396164886653,"[39, 0, 215]",215,a,0.47709037689492106,colour,0.5
041,60,0,2,7,3,303,555.3625391088426,556.343608116731,"[40, 0, 214]",214,a,0.4626834928058088,colour,0.5
041,60,0,2,7,4,304,556.8488592645153,558.1436005551368,"[53, 0, 201]",201,l,0.7770446119830012,colour,0.5
041,60,0,2,7,5,305,558.6475075064227,559.799691145774,"[20, 0, 234]",234,a,0.628879776224494,colour,0.5
041,60,0,2,7,6,306,560.3193523283117,561.5036115669645,"[61, 0, 193]",193,l,0.6611948339268565,colour,0.5
041,60,0,2,7,7,307,562.0240458687767,563.0876574991271,"[88, 0, 166]",166,l,0.5403101304545999,colour,0.5
041,60,0,2,7,8,308,563.6021978966892,564.6156567931175,"[10, 0, 244]",244,a,0.49024798115715384,colour,0.5
041,60,0,2,7,9,309,565.133466899395,566.7996616074815,"[52, 0, 202]",202,l,1.1429684325121343,colour,0.5
041,60,0,2,7,10,310,567.3206528075971,568.4236935344525,"[73, 0, 181]",181,l,0.5576586490496993,colour,0.5
041,60,0,2,7,11,311,568.9429313321598,569.9996435693465,"[75, 0, 179]",179,l,0.5247918129898608,colour,0.5
041,60,0,2,7,12,312,570.5197982406244,571.5596873494796,"[7, 0, 247]",247,a,0.5212779198773205,colour,0.5
041,60,0,2,7,13,313,572.0831912863068,573.0476163658313,"[2, 0, 252]",252,a,0.4470844375900924,colour,0.5
041,60,0,2,7,14,314,573.5674441447482,574.967589631211,"[8, 0, 246]",246,a,0.8828048445284367,colour,0.5
041,60,0,2,7,15,315,575.486679343041,576.8236424918287,"[55, 0, 199]",199,l,0.8177363784052432,colour,0.5
041,60,0,2,7,16,316,577.332371299155,578.6157012977637,"[13, 0, 241]",241,a,0.7649050988256931,colour,0.5
041,60,0,2,7,17,317,579.1321026170626,580.3757605166174,"[44, 0, 210]",210,a,0.7262408509850502,colour,0.5
041,60,0,2,7,18,318,580.8946812683716,582.0396023886278,"[28, 0, 226]",226,a,0.6266750264912844,colour,0.5
041,60,0,2,7,19,319,582.5508069116622,583.9836581512354,"[59, 0, 195]",195,l,0.9150269548408687,colour,0.5
041,60,0,2,7,20,320,584.5024119121954,585.3596029873006,"[74, 0, 180]",180,l,0.3370580654591322,colour,0.5
041,60,0,2,7,21,321,585.8832120811567,587.1757450774312,"[25, 0, 229]",229,a,0.7690054285340011,colour,0.5
041,60,0,2,7,22,322,587.6856215517037,588.6796268229373,"[24, 0, 230]",230,a,0.47377419378608465,colour,0.5
041,60,0,2,7,23,323,589.189821918495,590.2955951485783,"[31, 0, 223]",223,a,0.5886184833943844,colour,0.5
041,60,0,2,7,24,324,590.8126427689567,591.8236196488142,"[83, 0, 171]",171,l,0.47939949529245496,colour,0.5
041,60,0,2,7,25,325,592.3415975333191,593.1196208521724,"[84, 0, 170]",170,l,0.26058894116431475,colour,0.5
041,60,0,2,7,26,326,593.6398101821542,595.1996121406555,"[33, 0, 221]",221,l,1.0427389778196812,colour,0.5
041,60,0,2,7,27,327,595.7158523770049,597.2075981539674,"[54, 0, 200]",200,l,0.9731223788112402,colour,0.5
041,60,0,2,7,28,328,597.7251317808405,598.9115678058006,"[70, 0, 184]",184,l,0.6579853831790388,colour,0.5
041,60,0,2,7,29,329,599.4227018300444,600.4476066771895,"[17, 0, 237]",237,a,0.4934653085656464,colour,0.5
041,60,0,2,7,30,330,600.9681662218645,601.8235889286734,"[16, 0, 238]",238,a,0.3386046984232962,colour,0.5
041,60,0,2,7,31,331,602.3443879317492,603.6715758247301,"[86, 0, 168]",168,l,0.8101418474689126,colour,0.5
041,60,0,2,7,32,332,604.1852978104725,605.3515905858949,"[87, 0, 167]",167,l,0.6489143241196871,colour,0.5
041,60,0,2,7,33,333,605.8738696621731,606.9595858943649,"[22, 0, 232]",232,a,0.5682322303764522,colour,0.5
041,60,0,2,7,34,334,607.4800430391915,608.5756002999842,"[89, 0, 165]",165,l,0.550291367340833,colour,0.5
041,60,0,2,7,35,335,609.0952969281934,610.2476207767613,"[36, 0, 218]",218,a,0.628863628488034,colour,0.5
041,60,0,2,7,36,336,610.7671102420427,611.8955693906173,"[71, 0, 183]",183,l,0.605092269834131,colour,0.5
041,60,0,2,7,37,337,612.3959782030433,613.5276164757088,"[57, 0, 197]",197,l,0.6083990004844964,colour,0.5
041,60,0,2,7,38,338,614.036643424537,615.1196133694611,"[30, 0, 224]",224,a,0.5596747463569045,colour,0.5
041,60,0,2,7,39,339,615.6303078616038,616.8635709849186,"[45, 0, 209]",209,a,0.7099041221663356,colour,0.5
041,60,0,2,7,40,340,617.3703998797573,618.5196221913211,"[85, 0, 169]",169,l,0.6309955161996186,colour,0.5
041,60,0,2,7,41,341,619.0298251640052,619.9115532338619,"[91, 0, 163]",163,l,0.3585431482642889,colour,0.5
041,60,0,2,7,42,342,620.4203832591884,621.3757459442131,"[99, 0, 155]",155,l,0.4323577508330345,colour,0.5
041,60,0,2,7,43,343,621.8766257958487,623.1518815592863,"[41, 0, 213]",213,a,0.7518908539786935,colour,0.5
041,60,0,2,7,44,344,623.6583323618397,624.7355876024812,"[79, 0, 175]",175,l,0.55416050972417,colour,0.5
041,60,0,2,7,45,345,625.252205143217,626.487625754904,"[48, 0, 206]",206,a,0.7124444283545017,colour,0.5
041,60,0,2,7,46,346,627.0072243157774,628.1995380972512,"[51, 0, 203]",203,a,0.6709952955134213,colour,0.5
041,60,0,2,7,47,347,628.7112888842821,629.7036447287537,"[6, 0, 248]",248,a,0.47914546448737383,colour,0.5
041,60,0,2,7,48,348,630.2187376921065,631.4396068784408,"[80, 0, 174]",174,l,0.6960643762722611,colour,0.5
041,60,0,2,7,49,349,631.9424220891669,633.0396374412812,"[27, 0, 227]",227,a,0.5819038040935993,colour,0.5
041,60,0,2,7,50,350,633.5595372938551,634.5915746903047,"[77, 0, 177]",177,l,0.5088130901567638,colour,0.5
041,60,0,2,8,1,351,639.9264551820233,641.2636136780493,"[80, 0, 174]",174,l,0.8131677657365799,colour,0.5
041,60,0,2,8,2,352,641.7710270397365,642.7595755755901,"[30, 0, 224]",224,a,0.4653057185932994,colour,0.5
041,60,0,2,8,3,353,643.2760568461381,644.2875843225047,"[75, 0, 179]",179,l,0.488148782402277,colour,0.5
041,60,0,2,8,4,354,644.8073349073529,645.9835998620838,"[50, 0, 204]",204,a,0.6529957498423755,colour,0.5
041,60,0,2,8,5,355,646.4947740584612,647.5915538165718,"[73, 0, 181]",181,l,0.5735180363990366,colour,0.5
041,60,0,2,8,6,356,648.1044695996679,649.1516062612645,"[6, 0, 248]",248,a,0.5192767889238894,colour,0.5
041,60,0,2,8,7,357,649.6624397807755,650.9595803809352,"[57, 0, 197]",197,l,0.766760507132858,colour,0.5
041,60,0,2,8,8,358,651.469625026919,652.3756203074008,"[66, 0, 188]",188,l,0.3884738627821207,colour,0.5
041,60,0,2,8,9,359,652.892061799299,654.1355653107166,"[54, 0, 200]",200,l,0.7265590787865222,colour,0.5
041,60,0,2,8,10,360,654.656388732139,655.8715814175084,"[63, 0, 191]",191,l,0.6962427888065577,colour,0.5
041,60,0,2,8,11,361,656.3912859223783,657.4639059905894,"[85, 0, 169]",169,l,0.5553999426774681,colour,0.5
041,60,0,2,8,12,362,657.9778760992922,659.0476447227411,"[81, 0, 173]",173,l,0.5513716866262257,colour,0.5
041,60,0,2,8,13,363,659.5603226227686,660.5755171985365,"[15, 0, 239]",239,a,0.4925956968218088,colour,0.5
041,60,0,2,8,14,364,661.0914931641892,661.8955453662202,"[33, 0, 221]",221,a,0.2807428250089288,colour,0.5
041,60,0,2,8,15,365,662.4040173860267,663.2876197686419,"[48, 0, 206]",206,a,0.37096504867076874,colour,0.5
041,60,0,2,8,16,366,663.7997580999509,664.9995856741443,"[39, 0, 215]",215,a,0.6766631328500807,colour,0.5
041,60,0,2,8,17,367,665.5183760630898,666.6555592925288,"[4, 0, 250]",250,a,0.6139404126442969,colour,0.5
041,60,0,2,8,18,368,667.1745859892108,668.3276290004142,"[71, 0, 183]",183,l,0.6298840832896531,colour,0.5
041,60,0,2,8,19,369,668.8503909315914,670.159574158024,"[26, 0, 228]",228,a,0.7781820390373468,colour,0.5
041,60,0,2,8,20,370,670.6730247838423,671.7035852582194,"[40, 0, 214]",214,a,0.49931628350168467,colour,0.5
041,60,0,2,8,21,371,672.2186289909296,673.3195480694994,"[24, 0, 230]",230,a,0.5824232865124941,colour,0.5
041,60,0,2,8,22,372,673.8294316329993,674.9355459334329,"[83, 0, 171]",171,l,0.5885184463113546,colour,0.5
041,60,0,2,8,23,373,675.4540503900498,676.2555764643475,"[95, 0, 159]",159,l,0.28452413948252797,colour,0.5
041,60,0,2,8,24,374,676.7682425491512,678.1915339669213,"[60, 0, 194]",194,l,0.8987508784048259,colour,0.5
041,60,0,2,8,25,375,678.70064204745,679.89579388313,"[32, 0, 222]",222,a,0.6782074025832117,colour,0.5
041,60,0,2,8,26,376,680.4132503159344,681.2155601433478,"[22, 0, 232]",232,a,0.27906070882454515,colour,0.5
041,60,0,2,8,27,377,681.7257386972196,682.7355080451816,"[0, 0, 254]",254,a,0.4915457032620907,colour,0.5
041,60,0,2,8,28,378,683.244486156851,684.2315542260185,"[14, 0, 240]",240,a,0.4639292270876467,colour,0.5
041,60,0,2,8,29,379,684.7444432280026,686.0715937050991,"[47, 0, 207]",207,a,0.816194077488035,colour,0.5
041,60,0,2,8,30,380,686.5914380257018,687.735574605409,"[44, 0, 210]",210,a,0.6311050057411194,colour,0.5
041,60,0,2,8,31,381,688.245029270649,689.2635388472117,"[78, 0, 176]",176,l,0.5007865102961659,colour,0.5
041,60,0,2,8,32,382,689.7819810765795,690.9915346754715,"[10, 0, 244]",244,a,0.6861339453607798,colour,0.5
041,60,0,2,8,33,383,691.5007077408955,692.4875398962758,"[46, 0, 208]",208,a,0.46012861421331763,colour,0.5
041,60,0,2,8,34,384,693.0055508641526,694.0395346474834,"[68, 0, 186]",186,l,0.5107106398791075,colour,0.5
041,60,0,2,8,35,385,694.5524984798394,695.5835355073214,"[28, 0, 226]",226,a,0.5078832199797034,colour,0.5
041,60,0,2,8,36,386,696.0992625625804,697.0395314963534,"[25, 0, 229]",229,a,0.4169315933249891,colour,0.5
041,60,0,2,8,37,387,697.5519959321246,698.6155508486554,"[69, 0, 185]",185,l,0.5494753187522292,colour,0.5
041,60,0,2,8,38,388,699.1352498400956,699.9515608903021,"[82, 0, 172]",172,l,0.29651477886363864,colour,0.5
041,60,0,2,8,39,389,700.4672777052037,701.3995354194194,"[84, 0, 170]",170,l,0.4020769074559212,colour,0.5
041,60,0,2,8,40,390,701.9193387799896,702.7915152986534,"[96, 0, 158]",158,l,0.33991384226828814,colour,0.5
041,60,0,2,8,41,391,703.3107794839889,704.7195706763305,"[58, 0, 196]",196,a,0.8907613200135529,colour,0.5
041,60,0,2,8,42,392,705.230610571336,706.1515267044306,"[7, 0, 247]",247,a,0.40388544788584113,colour,0.5
041,60,0,2,8,43,393,706.6695412164554,707.6160096791573,"[1, 0, 253]",253,a,0.4259683885611594,colour,0.5
041,60,0,2,8,44,394,708.1303787538782,709.1355783073232,"[11, 0, 243]",243,a,0.4862705310806632,colour,0.5
041,60,0,2,8,45,395,709.6488253152929,710.5355934309773,"[18, 0, 236]",236,a,0.36338351434096694,colour,0.5
041,60,0,2,8,46,396,711.0550352414139,712.287516974844,"[5, 0, 249]",249,a,0.7092763320542872,colour,0.5
041,60,0,2,8,47,397,712.7955931792967,713.9595299684443,"[53, 0, 201]",201,a,0.641745934728533,colour,0.5
041,60,0,2,8,48,398,714.4663482289761,716.143585588783,"[61, 0, 193]",193,l,1.1540319579653442,colour,0.5
041,60,0,2,8,49,399,716.6538322782144,717.4955310304649,"[77, 0, 177]",177,l,0.31627678545191884,colour,0.5
041,60,0,2,8,50,400,718.0016265837476,718.8715538480319,"[62, 0, 192]",192,l,0.35042755911126733,colour,0.5
041,60,0,2,9,1,401,724.1798237459734,725.4075399436988,"[27, 0, 227]",227,a,0.7104287249967456,colour,0.5
041,60,0,2,9,2,402,725.9278875994496,726.7915121475235,"[6, 0, 248]",248,a,0.34572149394080043,colour,0.5
041,60,0,2,9,3,403,727.3101465734653,728.2315199617296,"[10, 0, 244]",244,a,0.4052079822868109,colour,0.5
041,60,0,2,9,4,404,728.741095143836,729.9275863072835,"[85, 0, 169]",169,l,0.6248818463645875,colour,0.5
041,60,0,2,9,5,405,730.4493541712873,731.3115455145016,"[88, 0, 166]",166,l,0.33004327584058046,colour,0.5
041,60,0,2,9,6,406,731.8245432171971,733.6715242308564,"[55, 0, 199]",199,l,1.3212538161315024,colour,0.5
041,60,0,2,9,7,407,734.1844104756601,735.2475144383498,"[46, 0, 208]",208,a,0.5314517477527261,colour,0.5
041,60,0,2,9,8,408,735.7619169899262,737.1195535045117,"[66, 0, 188]",188,l,0.8256818260997534,colour,0.5
041,60,0,2,9,9,409,737.6410700948909,738.6315937684849,"[35, 0, 219]",219,a,0.46745651168748736,colour,0.5
041,60,0,2,9,10,410,739.178340128623,740.3515409613028,"[69, 0, 185]",185,l,0.6517472579143941,colour,0.5
041,60,0,2,9,11,411,740.8640038217418,741.9435299779288,"[64, 0, 190]",190,l,0.5554838320240378,colour,0.5
041,60,0,2,9,12,412,742.4441684023477,743.5275778789073,"[71, 0, 183]",183,l,0.5602399152703583,colour,0.5
041,60,0,2,9,13,413,744.041410535574,745.0795017373748,"[78, 0, 176]",176,l,0.5147357448004186,colour,0.5
041,60,0,2,9,14,414,745.5882297568023,746.7114759609103,"[25, 0, 229]",229,a,0.5999112268909812,colour,0.5
041,60,0,2,9,15,415,747.228863470722,748.3195082913153,"[89, 0, 165]",165,l,0.5673830988816917,colour,0.5
041,60,0,2,9,16,416,748.8235499379225,749.7596760066226,"[79, 0, 175]",175,l,0.41884726053103805,colour,0.5
041,60,0,2,9,17,417,750.2675816756673,751.3114903760143,"[52, 0, 202]",202,a,0.5205847509205341,colour,0.5
041,60,0,2,9,18,418,751.8301196820103,752.9275059625506,"[48, 0, 206]",206,a,0.5741556729190052,colour,0.5
041,60,0,2,9,19,419,753.4394469773397,754.543524700217,"[19, 0, 235]",235,a,0.5773974186740816,colour,0.5
041,60,0,2,9,20,420,755.0522842276841,756.0956127927639,"[97, 0, 157]",157,l,0.5201562466099858,colour,0.5
041,60,0,2,9,21,421,756.6146812369116,757.6474775741808,"[47, 0, 207]",207,a,0.5121824420057237,colour,0.5
041,60,0,2,9,22,422,758.1590200169012,759.1355141107924,"[20, 0, 234]",234,a,0.461366078350693,colour,0.5
041,60,0,2,9,23,423,759.6503164158203,760.7035352396779,"[95, 0, 159]",159,l,0.5356788956560194,colour,0.5
041,60,0,2,9,24,424,761.2126385942101,762.1995034390129,"[43, 0, 211]",211,a,0.4688389105722308,colour,0.5
041,60,0,2,9,25,425,762.7157019278966,763.7994674416259,"[98, 0, 156]",156,l,0.5666091917082667,colour,0.5
041,60,0,2,9,26,426,764.3094400139526,765.3435084740631,"[45, 0, 209]",209,a,0.5006399997510016,colour,0.5
041,60,0,2,9,27,427,765.8564274078235,766.8234924366698,"[1, 0, 253]",253,a,0.4491706392727792,colour,0.5
041,60,0,2,9,28,428,767.3453764850274,768.4715623552911,"[91, 0, 163]",163,l,0.6086888713762164,colour,0.5
041,60,0,2,9,29,429,768.9848747411743,770.0475305072032,"[5, 0, 249]",249,a,0.5454643913544714,colour,0.5
041,60,0,2,9,30,430,770.5554523239844,771.4955353625119,"[29, 0, 225]",225,a,0.41674727387726307,colour,0.5
041,60,0,2,9,31,431,772.0084795025177,773.0794792883098,"[94, 0, 160]",160,l,0.5475923409685493,colour,0.5
041,60,0,2,9,32,432,773.5867036040872,774.6474496112205,"[22, 0, 232]",232,a,0.5335442507639527,colour,0.5
041,60,0,2,9,33,433,775.1687409216538,776.207466609776,"[83, 0, 171]",171,l,0.5155108338221908,colour,0.5
041,60,0,2,9,34,434,776.7155581740662,778.4794766888954,"[67, 0, 187]",187,l,1.2405469100922346,colour,0.5
041,60,0,2,9,35,435,778.9959508702159,779.839463676326,"[15, 0, 239]",239,a,0.293593623675406,colour,0.5
041,60,0,2,9,36,436,780.3476194376126,781.3914997810498,"[96, 0, 158]",158,l,0.5205453662201762,colour,0.5
041,60,0,2,9,37,437,781.9100936409086,782.9034845121205,"[82, 0, 172]",172,l,0.4703701832331717,colour,0.5
041,60,0,2,9,38,438,783.4100534683093,784.295485265553,"[86, 0, 168]",168,l,0.3726763091981411,colour,0.5
041,60,0,2,9,39,439,784.8055586623959,785.8556684665382,"[37, 0, 217]",217,a,0.5267318980768323,colour,0.5
041,60,0,2,9,40,440,786.3680675239302,787.2634226628579,"[42, 0, 212]",212,a,0.3720048018731177,colour,0.5
041,60,0,2,9,41,441,787.7701239511371,788.9834974617697,"[74, 0, 180]",180,l,0.6901212413795292,colour,0.5
041,60,0,2,9,42,442,789.5061164270155,790.5355201759376,"[26, 0, 228]",228,a,0.49708987260237336,colour,0.5
041,60,0,2,9,43,443,791.0462386924773,792.1118368813768,"[80, 0, 174]",174,l,0.542260454967618,colour,0.5
041,60,0,2,9,44,444,792.6296320217662,793.6394458743744,"[39, 0, 215]",215,a,0.48647375544533134,colour,0.5
041,60,0,2,9,45,445,794.1598262195475,795.375476159621,"[72, 0, 182]",182,l,0.6922712465748191,colour,0.5
041,60,0,2,9,46,446,795.8942433116026,796.8874581339769,"[33, 0, 221]",221,a,0.47000233130529523,colour,0.5
041,60,0,2,9,47,447,797.3942492194474,798.399840649683,"[11, 0, 243]",243,a,0.48241399182006717,colour,0.5
041,60,0,2,9,48,448,798.9010647227988,799.8395058177412,"[7, 0, 247]",247,a,0.41956169670447707,colour,0.5
041,60,0,2,9,49,449,800.3504515835084,801.3034519804642,"[12, 0, 242]",242,a,0.43531198892742395,colour,0.5
041,60,0,2,9,50,450,801.8189320946112,802.9514836962335,"[81, 0, 173]",173,l,0.6155996853485703,colour,0.5
041,60,0,2,10,1,451,808.1508299908601,809.407461962197,"[25, 0, 229]",229,a,0.7331359116360545,colour,0.5
041,60,0,2,10,2,452,809.9198358133435,811.071499182377,"[67, 0, 187]",187,l,0.62478141579777,colour,0.5
041,60,0,2,10,3,453,811.5835678027943,812.5916829979979,"[75, 0, 179]",179,l,0.4907843992114067,colour,0.5
041,60,0,2,10,4,454,813.1138246217743,814.1595473764464,"[33, 0, 221]",221,a,0.5133056906051934,colour,0.5
041,60,0,2,10,5,455,814.6755426409654,815.6954901488498,"[91, 0, 163]",163,l,0.4868416073732078,colour,0.5
041,60,0,2,10,6,456,816.2074272250757,817.2074673972093,"[80, 0, 174]",174,l,0.4681697664782405,colour,0.5
041,60,0,2,10,7,457,817.7267497000284,819.1115127461962,"[70, 0, 184]",184,l,0.866724903229624,colour,0.5
041,60,0,2,10,8,458,819.6219894415699,820.5674441447482,"[4, 0, 250]",250,a,0.42552176723256707,colour,0.5
041,60,0,2,10,9,459,821.0774427112192,821.9994702772237,"[51, 0, 203]",203,a,0.3897412591613829,colour,0.5
041,60,0,2,10,10,460,822.5147660709918,823.4634605506435,"[87, 0, 167]",167,l,0.43027469934895635,colour,0.5
041,60,0,2,10,11,461,823.9827404902317,824.8634536191821,"[74, 0, 180]",180,l,0.36312909005209804,colour,0.5
041,60,0,2,10,12,462,825.3764221775346,826.4395040851086,"[17, 0, 237]",237,a,0.5300957364961505,colour,0.5
041,60,0,2,10,13,463,826.9554075831547,827.9914933219552,"[79, 0, 175]",175,l,0.5142481639049947,colour,0.5
041,60,0,2,10,14,464,828.5071061616763,829.5274951714091,"[73, 0, 181]",181,l,0.49975502770394087,colour,0.5
041,60,0,2,10,15,465,830.0500081917271,831.1034519020468,"[30, 0, 224]",224,a,0.5345595860853791,colour,0.5
041,60,0,2,10,16,466,831.6236057854258,832.8234853474423,"[55, 0, 199]",199,l,0.6765276496298611,colour,0.5
041,60,0,2,10,17,467,833.3423789236695,834.2475321614183,"[76, 0, 178]",178,l,0.38183677149936557,colour,0.5
041,60,0,2,10,18,468,834.7677411832847,835.9434925625101,"[6, 0, 248]",248,a,0.652601903770119,colour,0.5
041,60,0,2,10,19,469,836.455365835689,837.4154786961153,"[20, 0, 234]",234,a,0.4368420806713402,colour,0.5
041,60,0,2,10,20,470,837.9241559095681,838.9915075004101,"[36, 0, 218]",218,a,0.5563865266740322,colour,0.5
041,60,0,2,10,21,471,839.505724156741,840.4714524722658,"[38, 0, 216]",216,a,0.4477768186479807,colour,0.5
041,60,0,2,10,22,472,840.9792368370108,842.1594272535294,"[95, 0, 159]",159,l,0.6567561905831099,colour,0.5
041,60,0,2,10,23,473,842.6749562043697,843.7994355401024,"[21, 0, 233]",233,a,0.6011451464146376,colour,0.5
041,60,0,2,10,24,474,844.311874769628,845.2394350832328,"[24, 0, 230]",230,l,0.404416352044791,colour,0.5
041,60,0,2,10,25,475,845.7493911143392,846.855465636123,"[96, 0, 158]",158,l,0.5827474221587181,colour,0.5
041,60,0,2,10,26,476,847.3641869602725,848.4234615587629,"[98, 0, 156]",156,l,0.5360349323600531,colour,0.5
041,60,0,2,10,27,477,848.9421849939972,850.6554620126262,"[62, 0, 192]",192,l,1.1889499435201287,colour,0.5
041,60,0,2,10,28,478,851.1650368007831,851.9354691333137,"[31, 0, 223]",223,a,0.2472399277612567,colour,0.5
041,60,0,2,10,29,479,852.4462506654672,853.2554902122356,"[11, 0, 243]",243,a,0.28589708684012294,colour,0.5
041,60,0,2,10,30,480,853.7743388903327,854.5754352784716,"[18, 0, 236]",236,a,0.27790949726477265,colour,0.5
041,60,0,2,10,31,481,855.0908106295392,856.2234236709774,"[86, 0, 168]",168,l,0.609301695600152,colour,0.5
041,60,0,2,10,32,482,856.7314041708596,858.1994549958035,"[53, 0, 201]",201,l,0.9452632935717702,colour,0.5
041,60,0,2,10,33,483,858.7157484018244,860.1834605191834,"[64, 0, 190]",190,l,0.9443424819037318,colour,0.5
041,60,0,2,10,34,484,860.7070767022669,862.0474202302285,"[46, 0, 208]",208,l,0.8173248092643917,colour,0.5
041,60,0,2,10,35,485,862.5664524408057,863.8794039851055,"[58, 0, 196]",196,l,0.7896110536530614,colour,0.5
041,60,0,2,10,36,486,864.3946119514294,865.4554713862017,"[13, 0, 241]",241,a,0.5339266750961542,colour,0.5
041,60,0,2,10,37,487,865.9763401001692,866.9114405936562,"[28, 0, 226]",226,a,0.4117635474540293,colour,0.5
041,60,0,2,10,38,488,867.426456363406,868.3994015115313,"[12, 0, 242]",242,a,0.44964167894795537,colour,0.5
041,60,0,2,10,39,489,868.910811228212,870.1194290495478,"[16, 0, 238]",238,a,0.6854777983389795,colour,0.5
041,60,0,2,10,40,490,870.6306595657952,871.8554577589966,"[49, 0, 205]",205,a,0.692775369156152,colour,0.5
041,60,0,2,10,41,491,872.3788675670512,873.4154452192597,"[1, 0, 253]",253,a,0.5192941180430353,colour,0.5
041,60,0,2,10,42,492,873.9257438960485,875.0794367529452,"[71, 0, 183]",183,l,0.6208098731003702,colour,0.5
041,60,0,2,10,43,493,875.596950687468,876.8476430685259,"[54, 0, 200]",200,l,0.73299570241943,colour,0.5
041,60,0,2,10,44,494,877.3614217680879,878.9034510352649,"[41, 0, 213]",213,l,1.0228040725924075,colour,0.5
041,60,0,2,10,45,495,879.4198574749753,880.9834131789394,"[23, 0, 231]",231,a,1.0503394166007638,colour,0.5
041,60,0,2,10,46,496,881.5035536717623,882.5994260087609,"[47, 0, 207]",207,a,0.5726031325757504,colour,0.5
041,60,0,2,10,47,497,883.1128876623698,884.1354451877996,"[10, 0, 244]",244,a,0.49913984071463346,colour,0.5
041,60,0,2,10,48,498,884.6539957243949,885.823388854973,"[85, 0, 169]",169,l,0.646124713588506,colour,0.5
041,60,0,2,10,49,499,886.3414726844057,887.6793979983777,"[52, 0, 202]",202,l,0.814647444523871,colour,0.5
041,60,0,2,10,50,500,888.191537511535,889.2234654184431,"[81, 0, 173]",173,l,0.5079340259544551,colour,0.5
041,60,0,2,11,1,501,894.5282096080482,895.6556884739548,"[99, 0, 155]",155,l,0.6084076650440693,colour,0.5
041,60,0,2,11,2,502,896.1700323424302,896.9754630052485,"[83, 0, 171]",171,l,0.28757526399567723,colour,0.5
041,60,0,2,11,3,503,897.4857888575643,898.3754032980651,"[89, 0, 165]",165,l,0.37105327006429434,colour,0.5
041,60,0,2,11,4,504,898.8970872731879,900.1434166291729,"[8, 0, 246]",246,a,0.7189531261101365,colour,0.5
041,60,0,2,11,5,505,900.6625996823423,901.775398729369,"[67, 0, 187]",187,l,0.5942492978647351,colour,0.5
041,60,0,2,11,6,506,902.2827872792259,903.511425470002,"[43, 0, 211]",211,a,0.7051019589416683,colour,0.5
041,60,0,2,11,7,507,904.0327868852764,905.0634076176211,"[93, 0, 161]",161,l,0.5072495215572417,colour,0.5
041,60,0,2,11,8,508,905.5833756062202,906.6074258070439,"[29, 0, 225]",225,a,0.5008286517113447,colour,0.5
041,60,0,2,11,9,509,907.1145394523628,908.0474584335461,"[24, 0, 230]",230,a,0.41222552908584476,colour,0.5
041,60,0,2,11,10,510,908.5652586938813,909.7196266022511,"[71, 0, 183]",183,l,0.6310124518349767,colour,0.5
041,60,0,2,11,11,511,910.2257642974146,911.2634439305402,"[3, 0, 251]",251,a,0.5044851172715425,colour,0.5
041,60,0,2,11,12,512,911.7780753062107,912.6874285168014,"[44, 0, 210]",210,a,0.3860938516445458,colour,0.5
041,60,0,2,11,13,513,913.2070975759998,914.367395229172,"[77, 0, 177]",177,l,0.6375924358144403,colour,0.5
041,60,0,2,11,14,514,914.8789144344628,915.9114579227753,"[72, 0, 182]",182,l,0.5125345401465893,colour,0.5
041,60,0,2,11,15,515,916.4227120704018,917.4154089852236,"[9, 0, 245]",245,a,0.4694789103232324,colour,0.5
041,60,0,2,11,16,516,917.9268596614711,918.8074168274179,"[31, 0, 223]",223,a,0.35729308100417256,colour,0.5
041,60,0,2,11,17,517,919.317446901463,920.8634504680522,"[63, 0, 191]",191,l,1.0227512973360717,colour,0.5
041,60,0,2,11,18,518,921.382459835615,922.2074480988085,"[94, 0, 160]",160,l,0.3016717969439924,colour,0.5
041,60,0,2,11,19,519,922.7263274970464,923.8153756661341,"[42, 0, 212]",212,a,0.5658364659175277,colour,0.5
041,60,0,2,11,20,520,924.3355453033,926.5675749015063,"[66, 0, 188]",188,l,1.7088533411733806,colour,0.5
041,60,0,2,11,21,521,927.0887740519829,928.895418941509,"[56, 0, 198]",198,l,1.2831441033631563,colour,0.5
041,60,0,2,11,22,522,929.4169717659242,930.5194815886207,"[38, 0, 216]",216,a,0.5793000888079405,colour,0.5
041,60,0,2,11,23,523,931.0781839289702,932.2074138345197,"[96, 0, 158]",158,l,0.6116214483045042,colour,0.5
041,60,0,2,11,24,524,932.7170528192073,934.0153820463456,"[53, 0, 201]",201,l,0.7665694919414818,colour,0.5
041,60,0,2,11,25,525,934.5249922806397,935.4474251139909,"[36, 0, 218]",218,a,0.4049338651821017,colour,0.5
041,60,0,2,11,26,526,935.9649020265788,936.9033679338172,"[32, 0, 222]",222,a,0.4200362809933722,colour,0.5
041,60,0,2,11,27,527,937.4251417056657,939.4314416651614,"[90, 0, 164]",164,l,1.487708856817335,colour,0.5
041,60,0,2,11,28,528,939.9509460967965,941.2233964954503,"[80, 0, 174]",174,l,0.7560187531635165,colour,0.5
041,60,0,2,11,29,529,941.7325526257046,942.8794028032571,"[35, 0, 219]",219,a,0.6235037790611386,colour,0.5
041,60,0,2,11,30,530,943.3887475854717,944.3114171205088,"[41, 0, 213]",213,a,0.3993188040331006,colour,0.5
041,60,0,2,11,31,531,944.8262903178111,945.9033821122721,"[75, 0, 179]",179,l,0.551006197463721,colour,0.5
041,60,0,2,11,32,532,946.4227538178675,947.4554142784327,"[13, 0, 241]",241,a,0.5093912556767464,colour,0.5
041,60,0,2,11,33,533,947.9695218396373,948.8234219378792,"[47, 0, 207]",207,a,0.3305588196963072,colour,0.5
041,60,0,2,11,34,534,949.3453248911537,950.2714145840146,"[58, 0, 196]",196,a,0.40360699826851487,colour,0.5
041,60,0,2,11,35,535,950.7949441210367,952.111398531124,"[61, 0, 193]",193,a,0.785309468396008,colour,0.5
041,60,0,2,11,36,536,952.6229984750971,953.8313858965412,"[97, 0, 157]",157,l,0.6908451304771006,colour,0.5
041,60,0,2,11,37,537,954.3541923323646,955.2873826730065,"[84, 0, 170]",170,l,0.4157224865630269,colour,0.5
041,60,0,2,11,38,538,955.8089063526131,956.8874096912332,"[27, 0, 227]",227,a,0.5597472139634192,colour,0.5
041,60,0,2,11,39,539,957.4087529890239,958.4633987168781,"[26, 0, 228]",228,a,0.5330716357566416,colour,0.5
041,60,0,2,11,40,540,958.9750187471509,959.935425022617,"[17, 0, 237]",237,a,0.44293330144137144,colour,0.5
041,60,0,2,11,41,541,960.438839667011,961.5593722723424,"[91, 0, 163]",163,l,0.6030769604258239,colour,0.5
041,60,0,2,11,42,542,962.0725519326515,963.1433673980646,"[50, 0, 204]",204,a,0.5519789969548583,colour,0.5
041,60,0,2,11,43,543,963.6672344612889,964.5914159705862,"[34, 0, 220]",220,a,0.40674161817878485,colour,0.5
041,60,0,2,11,44,544,965.1046428917907,966.5273624453694,"[74, 0, 180]",180,l,0.9039472816511989,colour,0.5
041,60,0,2,11,45,545,967.0417334889062,968.0475801317953,"[19, 0, 235]",235,a,0.4875977919436991,colour,0.5
041,60,0,2,11,46,546,968.5598137737252,969.4873933857307,"[18, 0, 236]",236,a,0.40972578851506114,colour,0.5
041,60,0,2,11,47,547,970.0022563431412,970.655383637175,"[10, 0, 244]",244,a,0.1353270336985588,colour,0.5
041,60,0,2,11,48,548,971.1787950205617,972.079401306808,"[28, 0, 226]",226,a,0.31977531872689724,colour,0.5
041,60,0,2,11,49,549,972.5886409319937,973.8714187587611,"[51, 0, 203]",203,a,0.7652426245622337,colour,0.5
041,60,0,2,11,50,550,974.3834259393625,975.4393945955671,"[2, 0, 252]",252,a,0.524697289802134,colour,0.5
041,60,0,2,12,1,551,980.3896585511975,981.5753982570022,"[91, 0, 163]",163,l,0.6733823963440955,colour,0.5
041,60,0,2,12,2,552,982.0893522179686,983.1273855245672,"[29, 0, 225]",225,a,0.5133962752297521,colour,0.5
041,60,0,2,12,3,553,983.6438660072163,984.7754117264412,"[97, 0, 157]",157,l,0.6139534097164869,colour,0.5
041,60,0,2,12,4,554,985.2983473436907,986.367401136551,"[22, 0, 232]",232,a,0.551528831012547,colour,0.5
041,60,0,2,12,5,555,986.8767589158379,987.8153815735132,"[0, 0, 254]",254,a,0.41668977215886116,colour,0.5
041,60,0,2,12,6,556,988.3354858323,989.2153388019651,"[11, 0, 243]",243,a,0.3614946296438575,colour,0.5
041,60,0,2,12,7,557,989.7284129112959,990.5834220796824,"[20, 0, 234]",234,a,0.326517173089087,colour,0.5
041,60,0,2,12,8,558,991.1057484173216,992.0473544578999,"[28, 0, 226]",226,a,0.40937526570633054,colour,0.5
041,60,0,2,12,9,559,992.5623272983357,993.4393859310076,"[17, 0, 237]",237,a,0.34444582695141435,colour,0.5
041,60,0,2,12,10,560,993.954258734826,995.0153757445514,"[63, 0, 191]",191,l,0.5428657960146666,colour,0.5
041,60,0,2,12,11,561,995.5330716357566,996.4633963536471,"[87, 0, 167]",167,l,0.41246301773935556,colour,0.5
041,60,0,2,12,12,562,996.9730030433275,998.7193371257745,"[51, 0, 203]",203,l,1.2254362236708403,colour,0.5
041,60,0,2,12,13,563,999.2385304188356,1000.6154003995471,"[47, 0, 207]",207,a,0.8597235046327114,colour,0.5
041,60,0,2,12,14,564,1001.1327918474562,1002.1834175898694,"[83, 0, 171]",171,l,0.533449727576226,colour,0.5
041,60,0,2,12,15,565,1002.7062409613281,1004.1913874559104,"[59, 0, 195]",195,l,0.9529511663131416,colour,0.5
041,60,0,2,12,16,566,1004.7016144529916,1006.5193882468157,"[38, 0, 216]",216,l,1.3009849297814071,colour,0.5
041,60,0,2,12,17,567,1007.0381006542593,1008.1593898381107,"[70, 0, 184]",184,l,0.6023774901404977,colour,0.5
041,60,0,2,12,18,568,1008.6806165575981,1009.6553651266731,"[90, 0, 164]",164,l,0.45554424775764346,colour,0.5
041,60,0,2,12,19,569,1010.1660316558555,1011.0874014990404,"[88, 0, 166]",166,l,0.4015613626688719,colour,0.5
041,60,0,2,12,20,570,1011.6100291288458,1013.071351096034,"[60, 0, 194]",194,l,0.9435488823801279,colour,0.5
041,60,0,2,12,21,571,1013.5826375386678,1014.623366327025,"[24, 0, 230]",230,a,0.5173012572340667,colour,0.5
041,60,0,2,12,22,572,1015.129630446434,1015.9353718534112,"[26, 0, 228]",228,a,0.2824501469731331,colour,0.5
041,60,0,2,12,23,573,1016.452227671165,1017.5996008766815,"[39, 0, 215]",215,a,0.6241871020756662,colour,0.5
041,60,0,2,12,24,574,1018.1126927086152,1019.2313261893578,"[96, 0, 158]",158,l,0.5952382450923324,colour,0.5
041,60,0,2,12,25,575,1019.7376517485827,1020.8553762328811,"[45, 0, 209]",209,a,0.5944659132510424,colour,0.5
041,60,0,2,12,26,576,1021.3717834604904,1022.3753658826463,"[41, 0, 213]",213,a,0.47439292585477233,colour,0.5
041,60,0,2,12,27,577,1022.8842278099619,1023.9913570513017,"[56, 0, 198]",198,a,0.5745573961175978,colour,0.5
041,60,0,2,12,28,578,1024.508436967153,1025.559444739949,"[7, 0, 247]",247,a,0.5193780069239438,colour,0.5
041,60,0,2,12,29,579,1026.069942703005,1031.4874020502903,"[64, 0, 190]",190,l,4.898275112267584,colour,0.5
041,60,0,2,12,30,580,1031.9988992004655,1033.191430779174,"[99, 0, 155]",155,l,0.6612684833817184,colour,0.5
041,60,0,2,12,31,581,1033.7141860150732,1035.1033345358446,"[57, 0, 197]",197,a,0.8566326014697552,colour,0.5
041,60,0,2,12,32,582,1035.6182868960313,1036.8233719198033,"[54, 0, 200]",200,a,0.6866888743825257,colour,0.5
041,60,0,2,12,33,583,1037.3374849944375,1038.5754025890492,"[69, 0, 185]",185,l,0.7196455071680248,colour,0.5
041,60,0,2,12,34,584,1039.0871238377877,1040.4713461338542,"[50, 0, 204]",204,a,0.8652885472401977,colour,0.5
041,60,0,2,12,35,585,1040.9849456334487,1042.0953634884208,"[33, 0, 221]",221,a,0.5823653917759657,colour,0.5
041,60,0,2,12,36,586,1042.6048441473395,1043.5119402268901,"[27, 0, 227]",227,a,0.38454840052872896,colour,0.5
041,60,0,2,12,37,587,1044.0268725007772,1045.3115159757435,"[66, 0, 188]",188,l,0.7618957222439349,colour,0.5
041,60,0,2,12,38,588,1045.8165843789466,1047.0074984324165,"[43, 0, 211]",211,a,0.6713009201921523,colour,0.5
041,60,0,2,12,39,589,1047.516501356382,1048.4233607342467,"[5, 0, 249]",249,a,0.38385562552139163,colour,0.5
041,60,0,2,12,40,590,1048.939535986632,1049.543331715744,"[19, 0, 235]",235,a,0.08099205046892166,colour,0.5
041,60,0,2,12,41,591,1050.0519750583917,1051.1113378787413,"[85, 0, 169]",169,l,0.5363027476705611,colour,0.5
041,60,0,2,12,42,592,1051.6258609471843,1053.0713412500918,"[49, 0, 205]",205,a,0.9155767639167607,colour,0.5
041,60,0,2,12,43,593,1053.5856536109932,1054.751340651419,"[44, 0, 210]",210,a,0.6327784569002688,colour,0.5
041,60,0,2,12,44,594,1055.2693567392416,1056.3674184661359,"[75, 0, 179]",179,l,0.5809373063966632,colour,0.5
041,60,0,2,12,45,595,1056.8791700406,1058.0793505008332,"[2, 0, 252]",252,a,0.6824711784720421,colour,0.5
041,60,0,2,12,46,596,1058.6022707577795,1059.5113451257348,"[13, 0, 241]",241,a,0.38923516729846597,colour,0.5
041,60,0,2,12,47,597,1060.029051256366,1060.895414609462,"[36, 0, 218]",218,a,0.3480286435224116,colour,0.5
041,60,0,2,12,48,598,1061.4057648801245,1062.7353556272574,"[55, 0, 199]",199,a,0.8111567888408899,colour,0.5
041,60,0,2,12,49,599,1063.2528325398453,1064.823350652121,"[68, 0, 186]",186,l,1.0473879352211952,colour,0.5
041,60,0,2,12,50,600,1065.33340396313,1066.1994301835075,"[89, 0, 165]",165,l,0.35279260389506817,colour,0.5
041,60,0,2,13,1,601,1071.81644416973,1073.4953270182014,"[95, 0, 159]",159,l,1.1542280935682356,colour,0.5
041,60,0,2,13,2,602,1074.0056973751634,1074.8713143896312,"[90, 0, 164]",164,l,0.3484004340134561,colour,0.5
041,60,0,2,13,3,603,1075.3809726731852,1076.8073360892013,"[71, 0, 183]",183,l,0.895148369949311,colour,0.5
041,60,0,2,13,4,604,1077.3293355344795,1078.4553276323713,"[21, 0, 233]",233,a,0.6021585119888186,colour,0.5
041,60,0,2,13,5,605,1078.9760029679164,1079.90333248768,"[11, 0, 243]",243,a,0.4087132108397782,colour,0.5
041,60,0,2,13,6,606,1080.416053710971,1081.6233194591478,"[43, 0, 211]",211,a,0.676724178250879,colour,0.5
041,60,0,2,13,7,607,1082.1390559668653,1083.183397110086,"[26, 0, 228]",228,a,0.5172551777213812,colour,0.5
041,60,0,2,13,8,608,1083.6896951003,1085.2233728650026,"[59, 0, 195]",195,a,1.0103522399440408,colour,0.5
041,60,0,2,13,9,609,1085.7365375584923,1086.9673048807308,"[50, 0, 204]",204,a,0.707455581985414,colour,0.5
041,60,0,2,13,10,610,1087.4816176355816,1089.2393019632436,"[68, 0, 186]",186,l,1.243277050089091,colour,0.5
041,60,0,2,13,11,611,1089.7539955666289,1090.735320574604,"[99, 0, 155]",155,l,0.45858158729970455,colour,0.5
041,60,0,2,13,12,612,1091.254046766553,1092.3834464196116,"[37, 0, 217]",217,a,0.6118542109616101,colour,0.5
041,60,0,2,13,13,613,1092.895568603184,1094.1673069288954,"[74, 0, 180]",180,l,0.7485073241405189,colour,0.5
041,60,0,2,13,14,614,1094.676851390861,1095.879314975813,"[38, 0, 216]",216,a,0.6792325833812356,colour,0.5
041,60,0,2,13,15,615,1096.3955642706715,1098.0313710090704,"[62, 0, 192]",192,l,1.1101787905208766,colour,0.5
041,60,0,2,13,16,616,1098.5385543648154,1099.687265070621,"[16, 0, 238]",238,a,0.625439531635493,colour,0.5
041,60,0,2,13,17,617,1100.1947379033081,1101.4313601390459,"[70, 0, 184]",184,l,0.7135046618059278,colour,0.5
041,60,0,2,13,18,618,1101.9443732020445,1103.2393507999368,"[20, 0, 234]",234,a,0.7657916457392275,colour,0.5
041,60,0,2,13,19,619,1103.7509885532781,1104.9113062922843,"[88, 0, 166]",166,l,0.6437974781729281,colour,0.5
041,60,0,2,13,20,620,1105.4205837268382,1106.4633364891633,"[75, 0, 179]",179,l,0.5256641814485192,colour,0.5
041,60,0,2,13,21,621,1106.9822233705781,1107.9833371667191,"[29, 0, 225]",225,a,0.48312764056026936,colour,0.5
041,60,0,2,13,22,622,1108.503026705701,1109.4073059991933,"[13, 0, 241]",241,a,0.3860402889549732,colour,0.5
041,60,0,2,13,23,623,1109.9275595257059,1111.7833059742115,"[57, 0, 197]",197,a,1.3378752958960831,colour,0.5
041,60,0,2,13,24,624,1112.2967849569395,1113.4073268729262,"[46, 0, 208]",208,a,0.5810601855628192,colour,0.5
041,60,0,2,13,25,625,1113.918488860596,1115.0073247463442,"[1, 0, 253]",253,a,0.5566074741072953,colour,0.5
041,60,0,2,13,26,626,1115.528157620225,1116.7833792292513,"[86, 0, 168]",168,l,0.7229782310314476,colour,0.5
041,60,0,2,13,27,627,1117.2922836919315,1118.4233304080553,"[52, 0, 202]",202,l,0.6124335578642786,colour,0.5
041,60,0,2,13,28,628,1118.9338067099452,1120.1913405884989,"[47, 0, 207]",207,a,0.7404133966192603,colour,0.5
041,60,0,2,13,29,629,1120.7134853629395,1121.6633003340103,"[34, 0, 220]",220,a,0.4229105683043599,colour,0.5
041,60,0,2,13,30,630,1122.1827622302808,1123.3752867197618,"[91, 0, 163]",163,l,0.6724816705100238,colour,0.5
041,60,0,2,13,31,631,1123.898207764607,1125.1193605200388,"[49, 0, 205]",205,a,0.702819227706641,colour,0.5
041,60,0,2,13,32,632,1125.6315977065824,1126.5913190846331,"[7, 0, 247]",247,a,0.442594594322145,colour,0.5
041,60,0,2,13,33,633,1127.1021092813462,1128.0873211543076,"[27, 0, 227]",227,a,0.46715600695461035,colour,0.5
041,60,0,2,13,34,634,1128.604031642899,1129.7353217564523,"[93, 0, 161]",161,l,0.6131499642506242,colour,0.5
041,60,0,2,13,35,635,1130.2456208271906,1131.375235913787,"[17, 0, 237]",237,a,0.6118821739219129,colour,0.5
041,60,0,2,13,36,636,1131.888313173782,1132.8633185299113,"[53, 0, 201]",201,a,0.45697705913335085,colour,0.5
041,60,0,2,13,37,637,1133.3817075896077,1134.3672707737423,"[12, 0, 242]",242,a,0.4681618898175657,colour,0.5
041,60,0,2,13,38,638,1134.8811231222935,1135.951272200793,"[94, 0, 160]",160,l,0.5523921409621835,colour,0.5
041,60,0,2,13,39,639,1136.4730042251758,1137.583319679834,"[18, 0, 236]",236,a,0.5780271785333753,colour,0.5
041,60,0,2,13,40,640,1138.093276892323,1139.1272709155455,"[76, 0, 178]",178,l,0.5162240890786052,colour,0.5
041,60,0,2,13,41,641,1139.6360907009803,1140.6152983931825,"[36, 0, 218]",218,a,0.46149013936519623,colour,0.5
041,60,0,2,13,42,642,1141.1369819743559,1142.287337380927,"[80, 0, 174]",174,l,0.6272610696032643,colour,0.5
041,60,0,2,13,43,643,1142.7979247467592,1143.7672957433388,"[33, 0, 221]",221,a,0.44334487011656165,colour,0.5
041,60,0,2,13,44,644,1144.2913908432238,1145.4392476910725,"[61, 0, 193]",193,l,0.6303673321381211,colour,0.5
041,60,0,2,13,45,645,1145.9630359848961,1147.8155103609897,"[60, 0, 194]",194,l,1.3335118764080107,colour,0.5
041,60,0,2,13,46,646,1148.3260213211179,1150.063297341112,"[64, 0, 190]",190,l,1.2189078340306878,colour,0.5
041,60,0,2,13,47,647,1150.5731159197167,1151.6152700362727,"[97, 0, 157]",157,l,0.5239911242388189,colour,0.5
041,60,0,2,13,48,648,1152.1149203013629,1153.1112807709724,"[6, 0, 248]",248,a,0.47935538459569216,colour,0.5
041,60,0,2,13,49,649,1153.618077763822,1154.4152329359204,"[30, 0, 224]",224,a,0.27372252102941275,colour,0.5
041,60,0,2,13,50,650,1154.930626404006,1155.8313161856495,"[32, 0, 222]",222,a,0.37699207244440913,colour,0.5
041,60,0,2,14,1,651,1164.4096474130638,1165.9193100291304,"[8, 0, 246]",246,a,0.9856998482719064,colour,0.5
041,60,0,2,14,2,652,1166.4260491267778,1167.503246077802,"[92, 0, 162]",162,l,0.554090010933578,colour,0.5
041,60,0,2,14,3,653,1168.0168073745444,1168.9672844009474,"[7, 0, 247]",247,a,0.4271790706552565,colour,0.5
041,60,0,2,14,4,654,1169.4855608209036,1170.543247826863,"[99, 0, 155]",155,l,0.5345261092297733,colour,0.5
041,60,0,2,14,5,655,1171.063660073094,1172.2632879675366,"[91, 0, 163]",163,l,0.676304732915014,colour,0.5
041,60,0,2,14,6,656,1172.786028237082,1174.1192703293636,"[21, 0, 233]",233,a,0.8106361241079867,colour,0.5
041,60,0,2,14,7,657,1174.6337804007344,1175.54325215891,"[25, 0, 229]",229,a,0.39203619910404086,colour,0.5
041,60,0,2,14,8,658,1176.0560265514068,1177.4232496698387,"[47, 0, 207]",207,a,0.8353456235490739,colour,0.5
041,60,0,2,14,9,659,1177.9435457317159,1179.1352931628935,"[73, 0, 181]",181,l,0.6737372511997819,colour,0.5
041,60,0,2,14,10,660,1179.6471963683143,1180.7513130824082,"[42, 0, 212]",212,a,0.585099863819778,colour,0.5
041,60,0,2,14,11,661,1181.2735724658705,1182.2872700332664,"[40, 0, 214]",214,a,0.4873232813552022,colour,0.5
041,60,0,2,14,12,662,1182.797937349882,1183.903255294077,"[11, 0, 243]",243,a,0.5742186885327101,colour,0.5
041,60,0,2,14,13,663,1184.4208594188094,1185.6712658680044,"[81, 0, 173]",173,l,0.7316652908921242,colour,0.5
041,60,0,2,14,14,664,1186.185699139256,1187.2792706289329,"[76, 0, 178]",178,l,0.5752363866195083,colour,0.5
041,60,0,2,14,15,665,1187.7987116510049,1188.879264563322,"[83, 0, 171]",171,l,0.5615939572453499,colour,0.5
041,60,0,2,14,16,666,1189.3942236192524,1190.4392079128884,"[96, 0, 158]",158,l,0.5272537441924214,colour,0.5
041,60,0,2,14,17,667,1190.9575158404186,1191.999199311249,"[85, 0, 169]",169,l,0.5238706073723733,colour,0.5
041,60,0,2,14,18,668,1192.4994245911948,1193.607248576358,"[95, 0, 159]",159,l,0.5846772668883204,colour,0.5
041,60,0,2,14,19,669,1194.1283043674193,1195.207228332758,"[22, 0, 232]",232,a,0.5557835483923554,colour,0.5
041,60,0,2,14,20,670,1195.7220743549988,1196.6952345431782,"[0, 0, 254]",254,a,0.4498086697421968,colour,0.5
041,60,0,2,14,21,671,1197.1996857896447,1197.7672512391582,"[24, 0, 230]",230,a,0.049940844532102346,colour,0.5
041,60,0,2,14,22,672,1198.285484335851,1199.1512454980984,"[1, 0, 253]",253,a,0.3424710836261511,colour,0.5
041,60,0,2,14,23,673,1199.6605087541975,1200.7433172222227,"[74, 0, 180]",180,l,0.5595554108731449,colour,0.5
041,60,0,2,14,24,674,1201.2542208465748,1202.1592350564897,"[70, 0, 184]",184,l,0.38153508538380265,colour,0.5
041,60,0,2,14,25,675,1202.6665605907328,1203.783274072688,"[31, 0, 223]",223,a,0.589151750318706,colour,0.5
041,60,0,2,14,26,676,1204.295485265553,1205.5592304877937,"[65, 0, 189]",189,l,0.7404287559911609,colour,0.5
041,60,0,2,14,27,677,1206.0767778991722,1207.0712829609402,"[17, 0, 237]",237,a,0.4711838695220649,colour,0.5
041,60,0,2,14,28,678,1207.5826938585378,1208.711240047589,"[44, 0, 210]",210,a,0.6053596916608512,colour,0.5
041,60,0,2,14,29,679,1209.2231527050026,1210.4313554125838,"[82, 0, 172]",172,l,0.6849358659237623,colour,0.5
041,60,0,2,14,30,680,1210.9419337203726,1211.8712549190968,"[12, 0, 242]",242,a,0.4059992185793817,colour,0.5
041,60,0,2,14,31,681,1212.379492206499,1214.919188724365,"[50, 0, 204]",204,a,2.0158369382843375,colour,0.5
041,60,0,2,14,32,682,1215.431760680396,1216.6232150900178,"[30, 0, 224]",224,a,0.6594028347171843,colour,0.5
041,60,0,2,14,33,683,1217.1455406402238,1218.5592584512196,"[84, 0, 170]",170,l,0.8957048743031919,colour,0.5
041,60,0,2,14,34,684,1219.081810068339,1219.9672339884564,"[79, 0, 175]",175,l,0.3671041768975556,colour,0.5
041,60,0,2,14,35,685,1220.4911585529335,1221.6312656947412,"[10, 0, 244]",244,a,0.6213758299127221,colour,0.5
041,60,0,2,14,36,686,1222.1495826807804,1223.3592217448168,"[97, 0, 157]",157,l,0.6895816726610065,colour,0.5
041,60,0,2,14,37,687,1223.8742197910324,1224.9352655149996,"[34, 0, 220]",220,a,0.5297818407416344,colour,0.5
041,60,0,2,14,38,688,1225.44834828889,1226.4633412156254,"[23, 0, 231]",231,a,0.497695607598871,colour,0.5
041,60,0,2,14,39,689,1226.9791616122238,1228.7352611040697,"[55, 0, 199]",199,l,1.2241861568763852,colour,0.5
041,60,0,2,14,40,690,1229.2555118734017,1230.671247357037,"[49, 0, 205]",205,a,0.8970683682709932,colour,0.5
041,60,0,2,14,41,691,1231.1911413022317,1232.375242609065,"[62, 0, 192]",192,l,0.6517240214161575,colour,0.5
041,60,0,2,14,42,692,1232.8930724076927,1234.455304789357,"[54, 0, 200]",200,l,1.0281851892359555,colour,0.5
041,60,0,2,14,43,693,1234.9651879589073,1236.0152229326777,"[4, 0, 250]",250,a,0.5321441288106143,colour,0.5
041,60,0,2,14,44,694,1236.52693315316,1237.6391816036776,"[89, 0, 165]",165,l,0.5943127069622278,colour,0.5
041,60,0,2,14,45,695,1238.1551725361496,1239.0872400221415,"[15, 0, 239]",239,a,0.4144220072776079,colour,0.5
041,60,0,2,14,46,696,1239.608734950889,1240.463225030806,"[35, 0, 219]",219,a,0.33630660735070705,colour,0.5
041,60,0,2,14,47,697,1240.9857746791095,1242.0952075254172,"[98, 0, 156]",156,l,0.591274973936379,colour,0.5
041,60,0,2,14,48,698,1242.608875554055,1244.1672218581662,"[71, 0, 183]",183,l,1.0386354974471033,colour,0.5
041,60,0,2,14,49,699,1244.673561595846,1245.7912600864656,"[20, 0, 234]",234,a,0.5944383442401886,colour,0.5
041,60,0,2,14,50,700,1246.2985777435824,1247.5432757898234,"[69, 0, 185]",185,l,0.7214020602405071,colour,0.5
041,60,0,2,15,1,701,1252.9625917267986,1254.287206624169,"[85, 0, 169]",169,l,0.8058075732551515,colour,0.5
041,60,0,2,15,2,702,1254.7942923060618,1255.9112157076597,"[18, 0, 236]",236,a,0.593792830593884,colour,0.5
041,60,0,2,15,3,703,1256.4192474074662,1258.0712132500485,"[53, 0, 201]",201,l,1.1266155559569597,colour,0.5
041,60,0,2,15,4,704,1258.5801882110536,1259.7032437939197,"[12, 0, 242]",242,a,0.5997615656815469,colour,0.5
041,60,0,2,15,5,705,1260.2207742696628,1261.215232069604,"[43, 0, 211]",211,a,0.471088164485991,colour,0.5
041,60,0,2,15,6,706,1261.7364497310482,1262.743195917923,"[2, 0, 252]",252,a,0.48344744369387627,colour,0.5
041,60,0,2,15,7,707,1263.2534496961161,1264.0552372843958,"[56, 0, 198]",198,a,0.2836009650491178,colour,0.5
041,60,0,2,15,8,708,1264.5653520352207,1265.5032263859175,"[17, 0, 237]",237,a,0.4203604166395962,colour,0.5
041,60,0,2,15,9,709,1266.0187868443318,1267.4952407656237,"[65, 0, 189]",189,l,0.945310948882252,colour,0.5
041,60,0,2,15,10,710,1268.010310885962,1269.351234155707,"[62, 0, 192]",192,l,0.8068032157607377,colour,0.5
041,60,0,2,15,11,711,1269.868268779479,1270.9672363516875,"[84, 0, 170]",170,l,0.5812669550068676,colour,0.5
041,60,0,2,15,12,712,1271.479065513704,1272.5352645698003,"[86, 0, 168]",168,l,0.5380372451618314,colour,0.5
041,60,0,2,15,13,713,1273.0469803046435,1274.1751578534022,"[99, 0, 155]",155,l,0.607214312069118,colour,0.5
041,60,0,2,15,14,714,1274.687359987758,1275.7032189816236,"[81, 0, 173]",173,l,0.4835104593075812,colour,0.5
041,60,0,2,15,15,715,1276.218350541778,1277.4712059246376,"[20, 0, 234]",234,a,0.7215584167279303,colour,0.5
041,60,0,2,15,16,716,1277.9953963351436,1280.5832145232707,"[27, 0, 227]",227,a,2.069628414232284,colour,0.5
041,60,0,2,15,17,717,1281.0954836113378,1282.4631777694449,"[89, 0, 165]",165,l,0.8497560517862439,colour,0.5
041,60,0,2,15,18,718,1282.967106776312,1284.0152174187824,"[19, 0, 235]",235,a,0.5272722546942532,colour,0.5
041,60,0,2,15,19,719,1284.533038158901,1285.9993643327616,"[77, 0, 177]",177,l,0.9428950985893607,colour,0.5
041,60,0,2,15,20,720,1286.5175667093135,1287.5031866072677,"[26, 0, 228]",228,a,0.46245781891047955,colour,0.5
041,60,0,2,15,21,721,1288.0175631646998,1288.9111975906417,"[45, 0, 209]",209,a,0.36717349383980036,colour,0.5
041,60,0,2,15,22,722,1289.4269884494133,1290.3592016585171,"[30, 0, 224]",224,a,0.4089857521466911,colour,0.5
041,60,0,2,15,23,723,1290.8801282676868,1291.8552419315092,"[6, 0, 248]",248,a,0.45177041599527,colour,0.5
041,60,0,2,15,24,724,1292.3645008555613,1293.0391778228804,"[9, 0, 245]",245,a,0.1514684152789414,colour,0.5
041,60,0,2,15,25,725,1293.5550143672153,1294.6471900669858,"[98, 0, 156]",156,l,0.545165462885052,colour,0.5
041,60,0,2,15,26,726,1295.1693226322532,1296.1672431258485,"[46, 0, 208]",208,a,0.48055740259587765,colour,0.5
041,60,0,2,15,27,727,1296.684941379819,1297.5272131776437,"[8, 0, 246]",246,a,0.3096105493605137,colour,0.5
041,60,0,2,15,28,728,1298.0445900536142,1299.1592527795583,"[51, 0, 203]",203,a,0.5959341707639396,colour,0.5
041,60,0,2,15,29,729,1299.6703166994266,1300.9112515477464,"[66, 0, 188]",188,l,0.7235300093889236,colour,0.5
041,60,0,2,15,30,730,1301.435411632061,1302.4632293633185,"[7, 0, 247]",247,a,0.5103565724566579,colour,0.5
041,60,0,2,15,31,731,1302.9854883532971,1303.9351694164798,"[1, 0, 253]",253,a,0.4346759277395904,colour,0.5
041,60,0,2,15,32,732,1304.4487378024496,1305.6392237455584,"[78, 0, 176]",176,l,0.6727778427302837,colour,0.5
041,60,0,2,15,33,733,1306.1509615355171,1307.1191750187427,"[64, 0, 190]",190,l,0.4503907738253474,colour,0.5
041,60,0,2,15,34,734,1307.635867390316,1308.8391509624198,"[39, 0, 215]",215,a,0.6773779625073075,colour,0.5
041,60,0,2,15,35,735,1309.3629664317705,1310.4952821196057,"[72, 0, 182]",182,l,0.6140258773230016,colour,0.5
041,60,0,2,15,36,736,1311.0193082960322,1312.0391892446205,"[31, 0, 223]",223,a,0.4862760449759662,colour,0.5
041,60,0,2,15,37,737,1312.5507407453842,1313.6152019011788,"[73, 0, 181]",181,l,0.5439886511303484,colour,0.5
041,60,0,2,15,38,738,1314.1379661951214,1315.2312352107838,"[87, 0, 167]",167,l,0.5720808925107121,colour,0.5
041,60,0,2,15,39,739,1315.7498853909783,1316.7911702892743,"[92, 0, 162]",162,l,0.5239450442604721,colour,0.5
041,60,0,2,15,40,740,1317.3085499224253,1318.3192184204236,"[21, 0, 233]",233,a,0.4780816868878901,colour,0.5
041,60,0,2,15,41,741,1318.8364511486143,1319.7272416134365,"[4, 0, 250]",250,a,0.371690119151026,colour,0.5
041,60,0,2,15,42,742,1320.2461324329488,1321.1352069107816,"[25, 0, 229]",229,a,0.3702896027825773,colour,0.5
041,60,0,2,15,43,743,1321.6552804498933,1322.8391931043006,"[67, 0, 187]",187,l,0.6661242097616196,colour,0.5
041,60,0,2,15,44,744,1323.3594379662536,1324.367199093569,"[44, 0, 210]",210,a,0.4891259139403701,colour,0.5
041,60,0,2,15,45,745,1324.88835649658,1326.1111685251817,"[74, 0, 180]",180,l,0.6995975682511926,colour,0.5
041,60,0,2,15,46,746,1326.6226845798083,1327.7672709310427,"[68, 0, 186]",186,l,0.62132462952286,colour,0.5
041,60,0,2,15,47,747,1328.2789720934816,1329.679190441966,"[50, 0, 204]",204,a,0.8838355396874249,colour,0.5
041,60,0,2,15,48,748,1330.1939797499217,1331.1511789383367,"[24, 0, 230]",230,a,0.43401072220876813,colour,0.5
041,60,0,2,15,49,749,1331.6627198052593,1332.5751556479372,"[3, 0, 251]",251,a,0.3890236718580127,colour,0.5
041,60,0,2,15,50,750,1333.0769173204899,1334.535162169952,"[59, 0, 195]",195,l,0.9351339708082378,colour,0.5
041,60,0,2,16,1,751,1340.097205111757,1341.2632103799842,"[87, 0, 167]",167,l,0.6418680269271135,colour,0.5
041,60,0,2,16,2,752,1341.7697777603753,1342.7111474936828,"[78, 0, 176]",176,l,0.41814857767894864,colour,0.5
041,60,0,2,16,3,753,1343.223003437277,1344.159157074988,"[82, 0, 172]",172,l,0.42228120286017656,colour,0.5
041,60,0,2,16,4,754,1344.6739069987088,1345.6711760712788,"[98, 0, 156]",156,l,0.4678267268463969,colour,0.5
041,60,0,2,16,5,755,1346.1857192255557,1347.5031775487587,"[58, 0, 196]",196,a,0.7998191458173096,colour,0.5
041,60,0,2,16,6,756,1348.019474892877,1348.5431324299425,"[47, 0, 207]",207,a,0.006142815109342337,colour,0.5
041,60,0,2,16,7,757,1349.070787108969,1350.2471603709273,"[84, 0, 170]",170,l,0.6576092606410384,colour,0.5
041,60,0,2,16,8,758,1350.760286073666,1352.0711785918102,"[60, 0, 194]",194,a,0.793034362141043,colour,0.5
041,60,0,2,16,9,759,1352.5870643667877,1353.5671656955965,"[43, 0, 211]",211,a,0.4621825208887458,colour,0.5
041,60,0,2,16,10,760,1354.0818616622128,1355.4711618139409,"[59, 0, 195]",195,a,0.8263281271792948,colour,0.5
041,60,0,2,16,11,761,1355.9782014158554,1357.2391739632003,"[26, 0, 228]",228,a,0.7378589119762182,colour,0.5
041,60,0,2,16,12,762,1357.759430640377,1358.6391485207714,"[39, 0, 215]",215,a,0.35643370961770415,colour,0.5
041,60,0,2,16,13,763,1359.1535065677017,1360.2232385636307,"[1, 0, 253]",253,a,0.5464273449033499,colour,0.5
041,60,0,2,16,14,764,1360.7316148784012,1361.8631294840015,"[79, 0, 175]",175,l,0.6081603299826384,colour,0.5
041,60,0,2,16,15,765,1362.372267496772,1363.287190870382,"[96, 0, 158]",158,l,0.391526956576854,colour,0.5
041,60,0,2,16,16,766,1363.7941268905997,1365.1831261441112,"[44, 0, 210]",210,a,0.8660541838034987,colour,0.5
041,60,0,2,16,17,767,1365.6914173881523,1366.5032681333832,"[48, 0, 206]",206,a,0.28854412492364645,colour,0.5
041,60,0,2,16,18,768,1367.0196044682525,1368.2871688148007,"[83, 0, 171]",171,l,0.7442829324863851,colour,0.5
041,60,0,2,16,19,769,1368.8010152559727,1369.6871039876714,"[92, 0, 162]",162,l,0.359531307592988,colour,0.5
041,60,0,2,16,20,770,1370.19493167568,1371.1912929331884,"[55, 0, 199]",199,a,0.47324250219389796,colour,0.5
041,60,0,2,16,21,771,1371.7105795675889,1372.983141031582,"[67, 0, 187]",187,l,0.7494521606713533,colour,0.5
041,60,0,2,16,22,772,1373.4891259139404,1374.4791277414188,"[50, 0, 204]",204,a,0.47285023145377636,colour,0.5
041,60,0,2,16,23,773,1375.0167337255552,1375.9511134810746,"[10, 0, 244]",244,a,0.4099136530421674,colour,0.5
041,60,0,2,16,24,774,1376.4615448843688,1377.3511593248695,"[8, 0, 246]",246,a,0.35789015190675855,colour,0.5
041,60,0,2,16,25,775,1377.8660652111284,1379.039115989115,"[63, 0, 191]",191,l,0.6407735291868448,colour,0.5
041,60,0,2,16,26,776,1379.5514193419367,1380.5991526800208,"[95, 0, 159]",159,l,0.5287314541637897,colour,0.5
041,60,0,2,16,27,777,1381.1170403738506,1382.0711833178066,"[53, 0, 201]",201,a,0.43539705965667963,colour,0.5
041,60,0,2,16,28,778,1382.5887630241923,1383.4951749937609,"[12, 0, 242]",242,a,0.3890106752514839,colour,0.5
041,60,0,2,16,29,779,1384.0050656460226,1389.9031387157738,"[25, 0, 229]",229,a,5.375196529086679,colour,0.5
041,60,0,2,16,30,780,1390.422639996279,1391.7750868033618,"[65, 0, 189]",189,a,0.8292819713242352,colour,0.5
041,60,0,2,16,31,781,1392.2819598088972,1392.9351150658913,"[0, 0, 254]",254,a,0.12981200963258743,colour,0.5
041,60,0,2,16,32,782,1393.4538499224,1394.255145596806,"[7, 0, 247]",247,a,0.27795833395794034,colour,0.5
041,60,0,2,16,33,783,1394.7644915604033,1397.0711179394275,"[4, 0, 250]",250,a,1.7759016710333526,colour,0.5
041,60,0,2,16,34,784,1397.5931079327129,1398.4711232171394,"[45, 0, 209]",209,a,0.345373728312552,colour,0.5
041,60,0,2,16,35,785,1398.9836652404629,1399.9910982945003,"[6, 0, 248]",248,a,0.48931614169850945,colour,0.5
041,60,0,2,16,36,786,1400.5156494677067,1401.5511066280305,"[85, 0, 169]",169,l,0.5178876938298345,colour,0.5
041,60,0,2,16,37,787,1402.06330403639,1403.191115308553,"[9, 0, 245]",245,a,0.6098928581923246,colour,0.5
041,60,0,2,16,38,788,1403.7016884959303,1404.8871659003198,"[68, 0, 186]",186,l,0.6624535652808845,colour,0.5
041,60,0,2,16,39,789,1405.410091671627,1406.9031182355247,"[42, 0, 212]",212,a,0.9598170821554959,colour,0.5
041,60,0,2,16,40,790,1407.4207129082642,1408.335156971123,"[35, 0, 219]",219,a,0.39746182039380074,colour,0.5
041,60,0,2,16,41,791,1408.8472657641396,1410.5992731964216,"[32, 0, 222]",222,a,1.2348518981598318,colour,0.5
041,60,0,2,16,42,792,1411.1233580564149,1412.1351765845902,"[19, 0, 235]",235,a,0.49322073021903634,colour,0.5
041,60,0,2,16,43,793,1412.6556187635288,1413.4151128130034,"[27, 0, 227]",227,a,0.24062528554350138,colour,0.5
041,60,0,2,16,44,794,1413.9239845862612,1415.8871351806447,"[15, 0, 239]",239,a,1.4425666308961809,colour,0.5
041,60,0,2,16,45,795,1416.393367792014,1417.2790756751783,"[22, 0, 232]",232,a,0.3624225305393338,colour,0.5
041,60,0,2,16,46,796,1417.7995277000591,1418.8954295753501,"[76, 0, 178]",178,l,0.5724558341316879,colour,0.5
041,60,0,2,16,47,797,1419.3972806511447,1420.3511356939562,"[90, 0, 164]",164,l,0.43043066235259175,colour,0.5
041,60,0,2,16,48,798,1420.8660884480923,1422.9674714775756,"[88, 0, 166]",166,l,1.5780212706886232,colour,0.5
041,60,0,2,16,49,799,1423.4886659020558,1424.5671424586326,"[17, 0, 237]",237,a,0.5551466997712851,colour,0.5
041,60,0,2,16,50,800,1425.081980603747,1426.1671320609748,"[91, 0, 163]",163,l,0.5637179682962596,colour,0.5
