id,age,condition,counterbalance,block,trialinblock,trial,tstart,tend,trialstim,trialintensity,response,RT,trialtype,colourfreq
064,75,0,2,Practice,1,NA,4.491303116083145e-06,12.084086416522041,"[36, 0, 218]",218,l,11.559277823194861,colour,0.5
064,75,0,2,Practice,2,NA,12.59176930738613,13.364033137680963,"[39, 0, 215]",215,a,0.2392571377567947,colour,0.5
064,75,0,2,Practice,3,NA,13.875326656736434,18.395981503883377,"[52, 0, 202]",202,l,3.9878756031394005,colour,0.5
064,75,0,2,Practice,4,NA,18.908808457432315,23.420070538064465,"[26, 0, 228]",228,l,3.978637463413179,colour,0.5
064,75,0,2,Practice,5,NA,23.9295332392212,26.507972575258464,"[62, 0, 192]",192,l,2.049890830880031,colour,0.5
064,75,0,2,Practice,6,NA,27.0247280721087,40.636159664485604,"[97, 0, 157]",157,l,13.078098323196173,colour,0.5
064,75,0,2,Practice,7,NA,41.141842995537445,41.78817240940407,"[6, 0, 248]",248,a,0.11346323252655566,colour,0.5
064,75,0,2,Practice,8,NA,42.29242881247774,48.53996072104201,"[42, 0, 212]",212,l,5.71525728655979,colour,0.5
064,75,0,2,Practice,9,NA,49.04129910771735,56.772119148634374,"[69, 0, 185]",185,l,7.197426460916176,colour,0.5
064,75,0,2,Practice,10,NA,57.274604082107544,64.204094333807,"[56, 0, 198]",198,l,6.396076461300254,colour,0.5
064,75,0,2,1,1,1,49.621917652431875,54.93601600918919,"[89, 0, 165]",165,l,4.78175989491865,colour,0.5
064,75,0,2,1,2,2,55.43823628104292,58.39209979749285,"[1, 0, 253]",253,a,2.4212007238529623,colour,0.5
064,75,0,2,1,3,3,58.90552183915861,60.40801383019425,"[90, 0, 164]",164,l,0.9704663115553558,colour,0.5
064,75,0,2,1,4,4,60.92163027799688,61.6560798746068,"[99, 0, 155]",155,l,0.20186507981270552,colour,0.5
064,75,0,2,1,5,5,62.17165257362649,62.759974220301956,"[8, 0, 246]",246,a,0.05575188645161688,colour,0.5
064,75,0,2,1,6,6,63.270802576327696,63.904116404941306,"[39, 0, 215]",215,a,0.09990966226905584,colour,0.5
064,75,0,2,1,7,7,64.42100471374579,65.31207954860292,"[79, 0, 175]",175,a,0.35787726496346295,colour,0.5
064,75,0,2,1,8,8,65.82104083616287,69.28804152202792,"[0, 0, 254]",254,l,2.933848990825936,colour,0.5
064,75,0,2,1,9,9,69.80491282837465,70.37606225605123,"[42, 0, 212]",212,a,0.038547266740351915,colour,0.5
064,75,0,2,1,10,10,70.88829283835366,71.42399170272984,"[14, 0, 240]",240,a,0.003143219742923975,colour,0.5
064,75,0,2,1,11,11,71.93770663649775,72.60000750655308,"[98, 0, 156]",156,l,0.12915879883803427,colour,0.5
064,75,0,2,1,12,12,73.10436656628735,73.74406949081458,"[84, 0, 170]",170,l,0.10658266791142523,colour,0.5
064,75,0,2,1,13,13,74.2544140771497,74.80007866048254,"[66, 0, 188]",188,a,0.012585068587213755,colour,0.5
064,75,0,2,1,14,14,75.30453107366338,76.079980148701,"[58, 0, 196]",196,a,0.24248729459941387,colour,0.5
064,75,0,2,1,15,15,76.58831426803954,77.46416639862582,"[28, 0, 226]",226,a,0.34335615509189665,colour,0.5
064,75,0,2,1,16,16,77.97196285356767,88.64814002113417,"[64, 0, 190]",190,a,10.144005202222615,colour,0.5
064,75,0,2,1,17,17,89.15433823945932,89.70399135630578,"[3, 0, 251]",251,a,0.01654023863375187,colour,0.5
064,75,0,2,1,18,18,90.2213785124477,91.03211871208623,"[72, 0, 182]",182,l,0.27800394338555634,colour,0.5
064,75,0,2,1,19,19,91.5379140030127,92.21601470024325,"[2, 0, 252]",252,a,0.14524574391543865,colour,0.5
064,75,0,2,1,20,20,92.7210897905752,94.67201187205501,"[87, 0, 167]",167,l,1.4179070482496172,colour,0.5
064,75,0,2,1,21,21,95.18789831595495,100.1440244500991,"[52, 0, 202]",202,a,4.423262840136886,colour,0.5
064,75,0,2,1,22,22,100.65572955855168,102.07203195430338,"[62, 0, 192]",192,a,0.8845907815266401,colour,0.5
064,75,0,2,1,23,23,102.58783819759265,103.7680917980615,"[21, 0, 233]",233,a,0.6473614342976362,colour,0.5
064,75,0,2,1,24,24,104.27141947881319,105.27198280743323,"[18, 0, 236]",236,a,0.4679124054964632,colour,0.5
064,75,0,2,1,25,25,105.78839376266114,106.87209297087975,"[50, 0, 204]",204,a,0.5513617089018226,colour,0.5
064,75,0,2,1,26,26,107.38867010176182,108.44820584962144,"[29, 0, 225]",225,a,0.5274840833153576,colour,0.5
064,75,0,2,1,27,27,108.95421126601286,110.28010776382871,"[30, 0, 224]",224,a,0.7927223464939743,colour,0.5
064,75,0,2,1,28,28,110.7879273162689,111.95212701451965,"[4, 0, 250]",250,a,0.6314169254619628,colour,0.5
064,75,0,2,1,29,29,112.45474155200645,113.48013111809269,"[78, 0, 176]",176,l,0.4927607784047723,colour,0.5
064,75,0,2,1,30,30,113.98752689105459,115.02409609174356,"[38, 0, 216]",216,a,0.5034104478545487,colour,0.5
064,75,0,2,1,31,31,115.53769649914466,116.80004048510455,"[73, 0, 181]",181,l,0.729360711760819,colour,0.5
064,75,0,2,1,32,32,117.30491924425587,118.40002906462178,"[10, 0, 244]",244,a,0.5626667770557106,colour,0.5
064,75,0,2,1,33,33,118.9042408762034,119.88000459386967,"[86, 0, 168]",168,l,0.4426530853379518,colour,0.5
064,75,0,2,1,34,34,120.38769710878842,121.35999680473469,"[15, 0, 239]",239,a,0.43931610113941133,colour,0.5
064,75,0,2,1,35,35,121.87064037867822,123.65602148859762,"[45, 0, 209]",209,a,1.2520147981122136,colour,0.5
064,75,0,2,1,36,36,124.17166059371084,125.22404886968434,"[56, 0, 198]",198,a,0.5199862953741103,colour,0.5
064,75,0,2,1,37,37,125.73776604910381,126.78400871809572,"[80, 0, 174]",174,l,0.5133440867066383,colour,0.5
064,75,0,2,1,38,38,127.28819005331025,128.2639871344436,"[40, 0, 214]",214,a,0.44333671452477574,colour,0.5
064,75,0,2,1,39,39,128.77056454122066,129.80011811922304,"[43, 0, 211]",211,a,0.4961372211109847,colour,0.5
064,75,0,2,1,40,40,130.3041371286381,131.32001394825056,"[76, 0, 178]",178,l,0.4826907985843718,colour,0.5
064,75,0,2,1,41,41,131.83770522498526,133.1121379986871,"[12, 0, 242]",242,a,0.7414950535167009,colour,0.5
064,75,0,2,1,42,42,133.62119745160453,134.55206426559016,"[97, 0, 157]",157,l,0.3980920612812042,colour,0.5
064,75,0,2,1,43,43,135.05495533463545,136.1282024877146,"[70, 0, 184]",184,a,0.5409067666623741,colour,0.5
064,75,0,2,1,44,44,136.63908249279484,137.61605499312282,"[35, 0, 219]",219,a,0.4454248158726841,colour,0.5
064,75,0,2,1,45,45,138.12067775218748,139.04817518102936,"[94, 0, 160]",160,l,0.3942122799344361,colour,0.5
064,75,0,2,1,46,46,139.55387936416082,140.5841111179907,"[27, 0, 227]",227,a,0.49683207855559886,colour,0.5
064,75,0,2,1,47,47,141.08800405217335,142.14400520198978,"[48, 0, 206]",206,a,0.5233944973442703,colour,0.5
064,75,0,2,1,48,48,142.6546041846741,143.72806916222908,"[55, 0, 199]",199,a,0.5407864656299353,colour,0.5
064,75,0,2,1,49,49,144.23788217944093,147.40019812737592,"[67, 0, 187]",187,a,2.6295905988663435,colour,0.5
064,75,0,2,1,50,50,147.9043849161826,149.44019349501468,"[17, 0, 237]",237,a,1.0029443223029375,colour,0.5
064,75,0,2,2,1,51,156.18751174933277,159.0240675401874,"[72, 0, 182]",182,l,2.3034932787995785,colour,0.5
064,75,0,2,2,2,52,159.53810520120896,160.79204866173677,"[6, 0, 248]",248,a,0.7214603170286864,colour,0.5
064,75,0,2,2,3,53,161.30442745471373,162.4560420839116,"[40, 0, 214]",214,a,0.6188135708216578,colour,0.5
064,75,0,2,2,4,54,162.9713318357244,164.0800446299836,"[56, 0, 198]",198,a,0.576150412671268,colour,0.5
064,75,0,2,2,5,55,164.5876133153215,165.5520119748544,"[23, 0, 231]",231,a,0.4314641475211829,colour,0.5
064,75,0,2,2,6,56,166.05426945956424,167.04005920724012,"[17, 0, 237]",237,a,0.45285940589383245,colour,0.5
064,75,0,2,2,7,57,167.55444365506992,168.51222961978056,"[35, 0, 219]",219,a,0.4250272521749139,colour,0.5
064,75,0,2,2,8,58,169.0211941152811,170.01608469942585,"[18, 0, 236]",236,a,0.4621892950963229,colour,0.5
064,75,0,2,2,9,59,170.52228003065102,171.52007355331443,"[16, 0, 238]",238,a,0.46620862535201013,colour,0.5
064,75,0,2,2,10,60,172.03729196777567,172.99217178556137,"[34, 0, 220]",220,a,0.42164535564370453,colour,0.5
064,75,0,2,2,11,61,173.5054497870151,174.42410109611228,"[48, 0, 206]",206,a,0.3868874041363597,colour,0.5
064,75,0,2,2,12,62,174.9378991178237,175.8640661800746,"[42, 0, 212]",212,a,0.3935462946537882,colour,0.5
064,75,0,2,2,13,63,176.37085884506814,177.38415609463118,"[97, 0, 157]",157,l,0.4803136547561735,colour,0.5
064,75,0,2,2,14,64,177.88864155020565,178.9201799314469,"[81, 0, 173]",173,l,0.49966732831671834,colour,0.5
064,75,0,2,2,15,65,179.43888911325485,180.51212985021994,"[22, 0, 232]",232,a,0.5416237593162805,colour,0.5
064,75,0,2,2,16,66,181.02142348885536,182.02409288357012,"[98, 0, 156]",156,l,0.4702545821201056,colour,0.5
064,75,0,2,2,17,67,182.53730191267096,183.55213837092742,"[73, 0, 181]",181,l,0.481639530044049,colour,0.5
064,75,0,2,2,18,68,184.05470927944407,185.08017712109722,"[51, 0, 203]",203,a,0.49302768567577004,colour,0.5
064,75,0,2,2,19,69,185.58868543594144,186.70401926594786,"[9, 0, 245]",245,a,0.5835461856331676,colour,0.5
064,75,0,2,2,20,70,187.22152672312222,188.53605174645782,"[83, 0, 171]",171,l,0.7822507221717387,colour,0.5
064,75,0,2,2,21,71,189.0382065747399,192.0160622431431,"[58, 0, 196]",196,a,2.4455874625127763,colour,0.5
064,75,0,2,2,22,72,192.52040301728994,193.4722034551669,"[88, 0, 166]",166,l,0.41840910352766514,colour,0.5
064,75,0,2,2,23,73,193.987922440283,195.69607460056432,"[71, 0, 183]",183,l,1.1755573777481914,colour,0.5
064,75,0,2,2,24,74,196.203786684433,197.1600822021719,"[86, 0, 168]",168,l,0.42294749175198376,colour,0.5
064,75,0,2,2,25,75,197.6712730647996,198.68822296755388,"[66, 0, 188]",188,l,0.48439040849916637,colour,0.5
064,75,0,2,2,26,76,199.20409208815545,200.9761146751698,"[57, 0, 197]",197,a,1.2390069121029228,colour,0.5
064,75,0,2,2,27,77,201.48770301160403,202.73605007841252,"[2, 0, 252]",252,a,0.7156153018586338,colour,0.5
064,75,0,2,2,28,78,203.23792356299236,204.30410119891167,"[24, 0, 230]",230,a,0.5336402768734843,colour,0.5
064,75,0,2,2,29,79,204.8214517836459,205.79211763408966,"[10, 0, 244]",244,a,0.4383540153503418,colour,0.5
064,75,0,2,2,30,80,206.30462891841307,207.2400341203902,"[75, 0, 179]",179,l,0.40294194826856256,colour,0.5
064,75,0,2,2,31,81,207.7545164132025,208.65617098240182,"[64, 0, 190]",190,l,0.36907839332707226,colour,0.5
064,75,0,2,2,32,82,209.1710504279472,210.13614811562002,"[77, 0, 177]",177,l,0.4323810001369566,colour,0.5
064,75,0,2,2,33,83,210.63787210639566,211.78405138477683,"[1, 0, 253]",253,a,0.6135986112058163,colour,0.5
064,75,0,2,2,34,84,212.28746856935322,213.34405389986932,"[26, 0, 228]",228,a,0.5236543472856283,colour,0.5
064,75,0,2,2,35,85,213.8543202104047,214.9121425540652,"[29, 0, 225]",225,a,0.525070367846638,colour,0.5
064,75,0,2,2,36,86,215.42063322477043,216.4882201445289,"[19, 0, 235]",235,a,0.5344859112519771,colour,0.5
064,75,0,2,2,37,87,217.0044591499027,217.86413932288997,"[84, 0, 170]",170,l,0.32704176125116646,colour,0.5
064,75,0,2,2,38,88,218.37079436378554,219.40003804699518,"[27, 0, 227]",227,a,0.49631719128228724,colour,0.5
064,75,0,2,2,39,89,219.9039524749387,221.06412738910876,"[13, 0, 241]",241,a,0.627080000936985,colour,0.5
064,75,0,2,2,40,90,221.57103233481757,222.6001438475214,"[37, 0, 217]",217,a,0.49643364222720265,colour,0.5
064,75,0,2,2,41,91,223.1041253232397,224.5760894601699,"[5, 0, 249]",249,a,0.9389725220389664,colour,0.5
064,75,0,2,2,42,92,225.08802265883423,226.05607685889117,"[89, 0, 165]",165,l,0.43570098164491355,colour,0.5
064,75,0,2,2,43,93,226.57026433455758,228.0481302686967,"[65, 0, 189]",189,l,0.9443924746010453,colour,0.5
064,75,0,2,2,44,94,228.55435030162334,234.2401646869257,"[62, 0, 192]",192,l,5.153113096253946,colour,0.5
064,75,0,2,2,45,95,234.75554618798196,235.7281368514523,"[45, 0, 209]",209,a,0.4411174051929265,colour,0.5
064,75,0,2,2,46,96,236.23786325217225,237.20006987056695,"[20, 0, 234]",234,a,0.4297093595378101,colour,0.5
064,75,0,2,2,47,97,237.70406578225084,238.7280961095821,"[50, 0, 204]",204,a,0.49108619103208184,colour,0.5
064,75,0,2,2,48,98,239.23767365817912,240.08813878917135,"[94, 0, 160]",160,l,0.317787260748446,colour,0.5
064,75,0,2,2,49,99,240.60410864138976,243.0481511207763,"[54, 0, 200]",200,a,1.9110357868485153,colour,0.5
064,75,0,2,2,50,100,243.55441991589032,244.50414091418497,"[85, 0, 169]",169,l,0.41715637128800154,colour,0.5
064,75,0,2,3,1,101,350.3362622568384,351.4641920628492,"[48, 0, 206]",206,a,0.594211895018816,colour,0.5
064,75,0,2,3,2,102,351.97066745441407,353.07217182405293,"[5, 0, 249]",249,a,0.5688720531761646,colour,0.5
064,75,0,2,3,3,103,353.5874124930706,354.58412779984064,"[24, 0, 230]",230,a,0.46417602291330695,colour,0.5
064,75,0,2,3,4,104,355.08742821239866,357.4321378318127,"[77, 0, 177]",177,l,1.812179318163544,colour,0.5
064,75,0,2,3,5,105,357.93660436035134,361.05615673866123,"[65, 0, 189]",189,l,2.58623033715412,colour,0.5
064,75,0,2,3,6,106,361.5702322542202,362.4961215017829,"[96, 0, 158]",158,l,0.39286234439350665,colour,0.5
064,75,0,2,3,7,107,363.00349610182457,363.9601727325935,"[22, 0, 232]",232,a,0.42360096564516425,colour,0.5
064,75,0,2,3,8,108,364.4699764465913,365.4721639964264,"[2, 0, 252]",252,a,0.46891908277757466,colour,0.5
064,75,0,2,3,9,109,365.98711433960125,366.9601679206826,"[27, 0, 227]",227,a,0.4402220465708524,colour,0.5
064,75,0,2,3,10,110,367.47067130403593,368.7523404120002,"[53, 0, 201]",201,a,0.7490855534560978,colour,0.5
064,75,0,2,3,11,111,369.25402494426817,370.2082580248825,"[70, 0, 184]",184,a,0.4216947592794895,colour,0.5
064,75,0,2,3,12,112,370.72009337903,371.5522362154443,"[69, 0, 185]",185,a,0.2989975572563708,colour,0.5
064,75,0,2,3,13,113,372.0537645169534,372.9521273353603,"[39, 0, 215]",215,a,0.3655813289806247,colour,0.5
064,75,0,2,3,14,114,373.4535654913634,374.4002019769978,"[46, 0, 208]",208,a,0.41364936204627156,colour,0.5
064,75,0,2,3,15,115,374.9039508709684,375.8721141438,"[62, 0, 192]",192,a,0.43555726227350533,colour,0.5
064,75,0,2,3,16,116,376.3879710738547,378.62422935292125,"[71, 0, 183]",183,l,1.7043679780326784,colour,0.5
064,75,0,2,3,17,117,379.13702230132185,380.00812495616265,"[92, 0, 162]",162,l,0.3382611752022058,colour,0.5
064,75,0,2,3,18,118,380.5203792778775,381.5601654825732,"[59, 0, 195]",195,a,0.506995091214776,colour,0.5
064,75,0,2,3,19,119,382.06982611864805,383.0721657287795,"[12, 0, 242]",242,a,0.4689992831554264,colour,0.5
064,75,0,2,3,20,120,383.58719210210256,384.880153125152,"[78, 0, 176]",176,l,0.7603283859789371,colour,0.5
064,75,0,2,3,21,121,385.38711773999967,386.2482020640746,"[94, 0, 160]",160,l,0.3283663534093648,colour,0.5
064,75,0,2,3,22,122,386.7538452949375,389.1442608812358,"[63, 0, 191]",191,a,1.857762096915394,colour,0.5
064,75,0,2,3,23,123,389.65324975783005,390.63212301093154,"[31, 0, 223]",223,a,0.44563943264074624,colour,0.5
064,75,0,2,3,24,124,391.13710570987314,392.1762608967256,"[8, 0, 246]",246,a,0.5064105894416571,colour,0.5
064,75,0,2,3,25,125,392.6869262852706,393.6161470632069,"[98, 0, 156]",156,l,0.39634497254155576,colour,0.5
064,75,0,2,3,26,126,394.12031845375896,395.08826165646315,"[86, 0, 168]",168,l,0.4351196880452335,colour,0.5
064,75,0,2,3,27,127,395.60342244571075,396.6081462574657,"[17, 0, 237]",237,a,0.47168696392327547,colour,0.5
064,75,0,2,3,28,128,397.120454153046,399.0562045383267,"[82, 0, 172]",172,l,1.4030821388587356,colour,0.5
064,75,0,2,3,29,129,399.5699602139648,400.44027818669565,"[85, 0, 169]",169,l,0.3371730144135654,colour,0.5
064,75,0,2,3,30,130,400.95398349664174,401.95225886418484,"[55, 0, 199]",199,a,0.4657951113767922,colour,0.5
064,75,0,2,3,31,131,402.4538635164499,403.3681660317816,"[26, 0, 228]",228,a,0.38173403847031295,colour,0.5
064,75,0,2,3,32,132,403.8701912558172,404.7681883594487,"[44, 0, 210]",210,a,0.3650914637837559,colour,0.5
064,75,0,2,3,33,133,405.27121127815917,406.35213137743995,"[68, 0, 186]",186,a,0.5490551413968205,colour,0.5
064,75,0,2,3,34,134,406.85325707215816,407.85615295311436,"[51, 0, 203]",203,a,0.46974899782799184,colour,0.5
064,75,0,2,3,35,135,408.37037411285564,409.304246843094,"[10, 0, 244]",244,a,0.4011858773883432,colour,0.5
064,75,0,2,3,36,136,409.8196171161253,410.848146693781,"[52, 0, 202]",202,a,0.4950529099442065,colour,0.5
064,75,0,2,3,37,137,411.3538762202952,412.26427072356455,"[28, 0, 226]",226,a,0.37786195636726916,colour,0.5
064,75,0,2,3,38,138,412.77039900724776,413.720146311447,"[4, 0, 250]",250,a,0.4170739250257611,colour,0.5
064,75,0,2,3,39,139,414.23711738712154,415.29617802705616,"[66, 0, 188]",188,a,0.526415170636028,colour,0.5
064,75,0,2,3,40,140,415.8038907526061,416.8481582426466,"[6, 0, 248]",248,a,0.5117679857648909,colour,0.5
064,75,0,2,3,41,141,417.35372865130194,418.2962152401451,"[11, 0, 243]",243,a,0.40983887389302254,colour,0.5
064,75,0,2,3,42,142,418.80387695808895,419.464186609257,"[95, 0, 159]",159,l,0.1277941067237407,colour,0.5
064,75,0,2,3,43,143,419.97004445665516,421.0401708462741,"[23, 0, 231]",231,a,0.5371145643293858,colour,0.5
064,75,0,2,3,44,144,421.55337281757966,422.568184253294,"[97, 0, 157]",157,l,0.4818297657184303,colour,0.5
064,75,0,2,3,45,145,423.0703220788855,423.9923216002062,"[15, 0, 239]",239,a,0.38930593174882233,colour,0.5
064,75,0,2,3,46,146,424.503200963838,425.6402030547615,"[49, 0, 205]",205,a,0.6038459045812488,colour,0.5
064,75,0,2,3,47,147,426.1535917329602,427.20139189623296,"[13, 0, 241]",241,a,0.5150497916620225,colour,0.5
064,75,0,2,3,48,148,427.7030087392777,428.75222845212556,"[29, 0, 225]",225,a,0.5158527595922351,colour,0.5
064,75,0,2,3,49,149,429.2698161096778,430.22426188224927,"[42, 0, 212]",212,a,0.42125622276216745,colour,0.5
064,75,0,2,3,50,150,430.73644017381594,431.47216495894827,"[89, 0, 165]",165,l,0.20249481429345906,colour,0.5
064,75,0,2,4,1,151,437.85314992419444,439.9922086778097,"[27, 0, 227]",227,a,1.6058890935964882,colour,0.5
064,75,0,2,4,2,152,440.50370526476763,441.4883224805817,"[7, 0, 247]",247,a,0.45201890426687896,colour,0.5
064,75,0,2,4,3,153,442.0042746886611,442.97618011874147,"[24, 0, 230]",230,a,0.43988103372976184,colour,0.5
064,75,0,2,4,4,154,443.487004945986,444.4401986277662,"[33, 0, 221]",221,a,0.42058125510811806,colour,0.5
064,75,0,2,4,5,155,444.9535796067212,446.13708357466385,"[61, 0, 193]",193,a,0.6507535963319242,colour,0.5
064,75,0,2,4,6,156,446.65364498621784,447.6962895379402,"[91, 0, 163]",163,l,0.5100186513736844,colour,0.5
064,75,0,2,4,7,157,448.20308220293373,449.0641771135852,"[82, 0, 172]",172,l,0.327892208006233,colour,0.5
064,75,0,2,4,8,158,449.5695861587301,450.51221357961185,"[77, 0, 177]",177,l,0.4092842068057507,colour,0.5
064,75,0,2,4,9,159,451.0204713481944,452.0243042923976,"[26, 0, 228]",228,a,0.47137289866805077,colour,0.5
064,75,0,2,4,10,160,452.53640045854263,454.2642142623663,"[65, 0, 189]",189,a,1.1946146299596876,colour,0.5
064,75,0,2,4,11,161,454.769552731188,455.8401795721147,"[59, 0, 195]",195,a,0.5372470554430038,colour,0.5
064,75,0,2,4,12,162,456.35353264119476,457.27217753441073,"[21, 0, 233]",233,a,0.38591409055516124,colour,0.5
064,75,0,2,4,13,163,457.7866813207511,458.784229750745,"[52, 0, 202]",202,a,0.4646415067836642,colour,0.5
064,75,0,2,4,14,164,459.2869540026877,460.2082593080122,"[66, 0, 188]",188,a,0.38869448262266815,colour,0.5
064,75,0,2,4,15,165,460.7197507622186,461.3281620023772,"[83, 0, 171]",171,l,0.07525537442415953,colour,0.5
064,75,0,2,4,16,166,461.8370652247686,462.9043066406157,"[11, 0, 243]",243,a,0.5347027736715972,colour,0.5
064,75,0,2,4,17,167,463.4199909789022,464.4082518655341,"[23, 0, 231]",231,a,0.4553510763216764,colour,0.5
064,75,0,2,4,18,168,464.91994317946956,465.9602648029104,"[43, 0, 211]",211,a,0.5073681841604412,colour,0.5
064,75,0,2,4,19,169,466.4695427219849,467.52823315630667,"[38, 0, 216]",216,a,0.5253379170317203,colour,0.5
064,75,0,2,4,20,170,468.03690508031286,469.03227590513416,"[49, 0, 205]",205,a,0.46272503468208015,colour,0.5
064,75,0,2,4,21,171,469.53691053390503,470.60819822736084,"[6, 0, 248]",248,a,0.5386435072869062,colour,0.5
064,75,0,2,4,22,172,471.11976442835294,472.1121588507667,"[89, 0, 165]",165,l,0.4592780154198408,colour,0.5
064,75,0,2,4,23,173,472.61964733572677,473.64022101974115,"[44, 0, 210]",210,a,0.4873424300458282,colour,0.5
064,75,0,2,4,24,174,474.15370080573484,475.20022674277425,"[46, 0, 208]",208,a,0.514043114380911,colour,0.5
064,75,0,2,4,25,175,475.70369814313017,476.69622890627943,"[75, 0, 179]",179,l,0.46003895811736584,colour,0.5
064,75,0,2,4,26,176,477.2035390250385,479.85630501341075,"[68, 0, 186]",186,a,2.120115706929937,colour,0.5
064,75,0,2,4,27,177,480.3705319475848,481.31225406494923,"[97, 0, 157]",157,l,0.40939488378353417,colour,0.5
064,75,0,2,4,28,178,481.8202266402077,482.76821659016423,"[18, 0, 236]",236,a,0.4153662952594459,colour,0.5
064,75,0,2,4,29,179,483.27019369392656,484.2242051002104,"[56, 0, 198]",198,a,0.42135984171181917,colour,0.5
064,75,0,2,4,30,180,484.7369451164268,485.7442324582953,"[12, 0, 242]",242,a,0.4747294515836984,colour,0.5
064,75,0,2,4,31,181,486.253375319764,487.2082150373608,"[72, 0, 182]",182,l,0.42206400260329247,colour,0.5
064,75,0,2,4,32,182,487.7200086871162,488.6963671720587,"[29, 0, 225]",225,a,0.4435516521334648,colour,0.5
064,75,0,2,4,33,183,489.2032095612958,490.20028512878343,"[9, 0, 245]",245,a,0.4641234113369137,colour,0.5
064,75,0,2,4,34,184,490.70291987690143,491.63216311112046,"[80, 0, 174]",174,l,0.396012942539528,colour,0.5
064,75,0,2,4,35,185,492.13636144902557,493.1682604115922,"[54, 0, 200]",200,a,0.4987543250899762,colour,0.5
064,75,0,2,4,36,186,493.6700411844067,494.70420051924884,"[85, 0, 169]",169,l,0.5013852238189429,colour,0.5
064,75,0,2,4,37,187,495.21959004038945,496.1443237585481,"[79, 0, 175]",175,l,0.39150663441978395,colour,0.5
064,75,0,2,4,38,188,496.65357954241335,497.79226552392356,"[87, 0, 167]",167,l,0.6061454145237803,colour,0.5
064,75,0,2,4,39,189,498.3035494191572,499.28829848440364,"[20, 0, 234]",234,a,0.4521616611164063,colour,0.5
064,75,0,2,4,40,190,499.8031317347195,501.0481860882137,"[51, 0, 203]",203,a,0.7120547185186297,colour,0.5
064,75,0,2,4,41,191,501.55317263701,502.71231424738653,"[1, 0, 253]",253,a,0.6261971534695476,colour,0.5
064,75,0,2,4,42,192,503.2197581406217,504.20823492715135,"[10, 0, 244]",244,a,0.4554588657338172,colour,0.5
064,75,0,2,4,43,193,504.71987715829164,505.7842868533917,"[45, 0, 209]",209,a,0.5315242656506598,colour,0.5
064,75,0,2,4,44,194,506.28687091497704,507.7282366210129,"[55, 0, 199]",199,a,0.9087962668854743,colour,0.5
064,75,0,2,4,45,195,508.23688127682544,509.39235034398735,"[5, 0, 249]",249,a,0.6228941744193435,colour,0.5
064,75,0,2,4,46,196,509.9036108206492,510.8722883395385,"[57, 0, 197]",197,a,0.4361979041714221,colour,0.5
064,75,0,2,4,47,197,511.3868290181272,512.2242070250213,"[16, 0, 238]",238,a,0.3047793747391552,colour,0.5
064,75,0,2,4,48,198,512.7361870608293,513.8321909566876,"[81, 0, 173]",173,l,0.562764621572569,colour,0.5
064,75,0,2,4,49,199,514.3362542369869,515.3202933671419,"[36, 0, 218]",218,a,0.4508855103049427,colour,0.5
064,75,0,2,4,50,200,515.8365391092375,516.8402119730599,"[69, 0, 185]",185,a,0.47080828668549657,colour,0.5
064,75,0,2,5,1,201,522.7026622728445,523.5682169750798,"[8, 0, 246]",246,a,0.33215246070176363,colour,0.5
064,75,0,2,5,2,202,524.0700545299333,525.0802037478425,"[35, 0, 219]",219,a,0.4774893126450479,colour,0.5
064,75,0,2,5,3,203,525.5861180564389,526.4563208611216,"[59, 0, 195]",195,a,0.3369606432970613,colour,0.5
064,75,0,2,5,4,204,526.970121769933,527.9923639460467,"[43, 0, 211]",211,a,0.4896557342726737,colour,0.5
064,75,0,2,5,5,205,528.5035666783806,529.4722329690121,"[86, 0, 168]",168,l,0.4362043202854693,colour,0.5
064,75,0,2,5,6,206,529.9868997228332,530.9042861091439,"[84, 0, 170]",170,l,0.38490484678186476,colour,0.5
064,75,0,2,5,7,207,531.4195530840661,532.3601880026981,"[34, 0, 220]",220,a,0.40747712831944227,colour,0.5
064,75,0,2,5,8,208,532.8693934206385,533.8886761970352,"[57, 0, 197]",197,a,0.48597805853933096,colour,0.5
064,75,0,2,5,9,209,534.4032759033144,535.42431410891,"[32, 0, 222]",222,a,0.48822752316482365,colour,0.5
064,75,0,2,5,10,210,535.936068299925,536.9522364079021,"[79, 0, 175]",175,l,0.4828852047212422,colour,0.5
064,75,0,2,5,11,211,537.4711589233484,538.4723144527525,"[19, 0, 235]",235,a,0.4696363965049386,colour,0.5
064,75,0,2,5,12,212,538.9867133367807,540.0083530466072,"[37, 0, 217]",217,a,0.4890070725232363,colour,0.5
064,75,0,2,5,13,213,540.5201543956064,541.5523218696471,"[10, 0, 244]",244,a,0.49964326806366444,colour,0.5
064,75,0,2,5,14,214,542.0697221788578,543.3282717168331,"[58, 0, 196]",196,a,0.7255967401433736,colour,0.5
064,75,0,2,5,15,215,543.8367011141963,544.8003359439317,"[63, 0, 191]",191,a,0.43099705944769084,colour,0.5
064,75,0,2,5,16,216,545.3034191734623,546.2641828237101,"[80, 0, 174]",174,l,0.4281823413912207,colour,0.5
064,75,0,2,5,17,217,546.7702661950607,547.5602739136666,"[48, 0, 206]",206,a,0.25762947741895914,colour,0.5
064,75,0,2,5,18,218,548.070173868211,549.2962521323934,"[96, 0, 158]",158,l,0.6935883839614689,colour,0.5
064,75,0,2,5,19,219,549.8033402562141,550.8962865865324,"[75, 0, 179]",179,l,0.560301823541522,colour,0.5
064,75,0,2,5,20,220,551.402577196015,552.480311088264,"[97, 0, 157]",157,l,0.5443261968903244,colour,0.5
064,75,0,2,5,21,221,552.9857820481993,554.0402346858755,"[22, 0, 232]",232,a,0.5209419648163021,colour,0.5
064,75,0,2,5,22,222,554.5535515043885,555.5522535387427,"[88, 0, 166]",166,l,0.4662910713814199,colour,0.5
064,75,0,2,5,23,223,556.0697382187936,557.6243005709257,"[40, 0, 214]",214,a,1.0216698651202023,colour,0.5
064,75,0,2,5,24,224,558.1367165769916,560.3522491117474,"[73, 0, 181]",181,a,1.6829723988194019,colour,0.5
064,75,0,2,5,25,225,560.8696388343815,561.9521870044991,"[41, 0, 213]",213,a,0.5495693872217089,colour,0.5
064,75,0,2,5,26,226,562.4694769575726,563.8482785434462,"[47, 0, 207]",207,a,0.8456377002876252,colour,0.5
064,75,0,2,5,27,227,564.3531300344039,565.4403128332924,"[56, 0, 198]",198,a,0.5543669834733009,colour,0.5
064,75,0,2,5,28,228,565.9528302128892,567.0244069490582,"[33, 0, 221]",221,a,0.5384635373484343,colour,0.5
064,75,0,2,5,29,229,567.5359163680114,568.5122507927008,"[91, 0, 163]",163,l,0.4429860778618604,colour,0.5
064,75,0,2,5,30,230,569.0194329114165,570.6242024055682,"[64, 0, 190]",190,a,1.0716222901828587,colour,0.5
064,75,0,2,5,31,231,571.1368599755224,572.2083735137712,"[44, 0, 210]",210,a,0.5391224650666118,colour,0.5
064,75,0,2,5,32,232,572.7201309127267,574.6242068966385,"[76, 0, 178]",178,l,1.3716136924922466,colour,0.5
064,75,0,2,5,33,233,575.136669739848,576.0963054497261,"[20, 0, 234]",234,a,0.4270659498870373,colour,0.5
064,75,0,2,5,34,234,576.6031837689225,577.624254696304,"[14, 0, 240]",240,a,0.4883115733973682,colour,0.5
064,75,0,2,5,35,235,578.13699888275,579.1202998473309,"[11, 0, 243]",243,a,0.45105713955126703,colour,0.5
064,75,0,2,5,36,236,579.6370450784452,584.5042730846908,"[67, 0, 187]",187,l,4.335037113633007,colour,0.5
064,75,0,2,5,37,237,585.0201338641346,586.032278792467,"[15, 0, 239]",239,a,0.47972434130497277,colour,0.5
064,75,0,2,5,38,238,586.5367132406682,587.5043468691874,"[36, 0, 218]",218,a,0.43512546247802675,colour,0.5
064,75,0,2,5,39,239,588.0197780947201,589.0723245260306,"[12, 0, 242]",242,a,0.519776170141995,colour,0.5
064,75,0,2,5,40,240,589.5865488937125,590.2722211633809,"[87, 0, 167]",167,l,0.15300530660897493,colour,0.5
064,75,0,2,5,41,241,590.7865815514233,591.8163349891547,"[83, 0, 171]",171,l,0.4971233669202775,colour,0.5
064,75,0,2,5,42,242,592.3193906298839,593.2403443360236,"[92, 0, 162]",162,l,0.38780810637399554,colour,0.5
064,75,0,2,5,43,243,593.7536643624771,595.0723039945588,"[62, 0, 192]",192,a,0.7864394360221922,colour,0.5
064,75,0,2,5,44,244,595.5857645324431,596.7283274079673,"[65, 0, 189]",189,a,0.6091253457125276,colour,0.5
064,75,0,2,5,45,245,597.2366390712559,599.3362568032462,"[30, 0, 224]",224,a,1.5670717114116997,colour,0.5
064,75,0,2,5,46,246,599.8531906660646,600.848220157437,"[38, 0, 216]",216,a,0.46238755085505545,colour,0.5
064,75,0,2,5,47,247,601.3534928616136,603.8724384747911,"[74, 0, 180]",180,a,1.9866026602685452,colour,0.5
064,75,0,2,5,48,248,604.3866885066964,605.4322613407858,"[9, 0, 245]",245,a,0.5130928985308856,colour,0.5
064,75,0,2,5,49,249,605.9365260845516,606.976387036033,"[26, 0, 228]",228,a,0.507219010964036,colour,0.5
064,75,0,2,5,50,250,607.4865192514844,608.4723051495384,"[93, 0, 161]",161,l,0.45314909028820693,colour,0.5
064,75,0,2,6,1,251,616.3521804600023,618.2242538621649,"[64, 0, 190]",190,a,1.3384658470749855,colour,0.5
064,75,0,2,6,2,252,618.7359628202394,619.7524328031577,"[40, 0, 214]",214,a,0.4833093052729964,colour,0.5
064,75,0,2,6,3,253,620.2693541545887,621.280355743831,"[41, 0, 213]",213,a,0.47789512714371085,colour,0.5
064,75,0,2,6,4,254,621.7863072655164,622.7524712993763,"[99, 0, 155]",155,l,0.4333488601259887,colour,0.5
064,75,0,2,6,5,255,623.2692207009532,624.2482816232368,"[21, 0, 233]",233,a,0.44584089634008706,colour,0.5
064,75,0,2,6,6,256,624.753119640518,626.160235545598,"[65, 0, 189]",189,a,0.8744470172096044,colour,0.5
064,75,0,2,6,7,257,626.6699443021789,628.0802480184939,"[76, 0, 178]",178,a,0.8778035703580827,colour,0.5
064,75,0,2,6,8,258,628.5865931643639,629.9524041875266,"[9, 0, 245]",245,a,0.8333137643057853,colour,0.5
064,75,0,2,6,9,259,630.4693046868779,631.4322610199451,"[88, 0, 166]",166,l,0.4298251692671329,colour,0.5
064,75,0,2,6,10,260,631.9360702247359,632.9122798573226,"[52, 0, 202]",202,a,0.44315321557223797,colour,0.5
064,75,0,2,6,11,261,633.4193419960793,634.4162844307721,"[6, 0, 248]",248,a,0.4638590703252703,colour,0.5
064,75,0,2,6,12,262,634.9196336052846,635.8322461347561,"[80, 0, 174]",174,l,0.379837455926463,colour,0.5
064,75,0,2,6,13,263,636.3363963521551,637.3203645851463,"[90, 0, 164]",164,l,0.451283304952085,colour,0.5
064,75,0,2,6,14,264,637.8363912194036,638.9443664893042,"[77, 0, 177]",177,l,0.5752820009365678,colour,0.5
064,75,0,2,6,15,265,639.4531741125975,640.5523103207815,"[10, 0, 244]",244,a,0.5665760720148683,colour,0.5
064,75,0,2,6,16,266,641.0697892263997,642.2803470820654,"[49, 0, 205]",205,a,0.6779518448747694,colour,0.5
064,75,0,2,6,17,267,642.7863739922177,644.1442891119514,"[7, 0, 247]",247,a,0.8252362869679928,colour,0.5
064,75,0,2,6,18,268,644.6536844447255,645.7764041027986,"[4, 0, 250]",250,a,0.5906638230662793,colour,0.5
064,75,0,2,6,19,269,646.2862620323431,647.272254526848,"[19, 0, 235]",235,a,0.453213571337983,colour,0.5
064,75,0,2,6,20,270,647.7863175312523,648.8083454114385,"[46, 0, 208]",208,a,0.48929900233633816,colour,0.5
064,75,0,2,6,21,271,649.3193787601776,650.3923846699763,"[16, 0, 238]",238,a,0.5400197487324476,colour,0.5
064,75,0,2,6,22,272,650.9033923544921,652.2244363985956,"[62, 0, 192]",192,a,0.7887395876459777,colour,0.5
064,75,0,2,6,23,273,652.7356250155717,653.8642958744895,"[3, 0, 251]",251,a,0.5952615595888346,colour,0.5
064,75,0,2,6,24,274,654.3691881073173,655.4882884754334,"[47, 0, 207]",207,a,0.5859300664160401,colour,0.5
064,75,0,2,6,25,275,656.0028852946125,657.048260193551,"[27, 0, 227]",227,a,0.5125632542185485,colour,0.5
064,75,0,2,6,26,276,657.5525242958684,658.5684732960071,"[57, 0, 197]",197,a,0.48278736020438373,colour,0.5
064,75,0,2,6,27,277,659.0855973944999,659.8643189722206,"[93, 0, 161]",161,l,0.2452875766903162,colour,0.5
064,75,0,2,6,28,278,660.3695778818801,661.504366758978,"[39, 0, 215]",215,a,0.6020144452340901,colour,0.5
064,75,0,2,6,29,279,662.0195423050318,663.3124795889016,"[60, 0, 194]",194,a,0.7601278845686466,colour,0.5
064,75,0,2,6,30,280,663.8196815974079,664.8563293945044,"[81, 0, 173]",173,l,0.5040036109276116,colour,0.5
064,75,0,2,6,31,281,665.3694919070695,666.4243885348551,"[75, 0, 179]",179,l,0.5220593188423663,colour,0.5
064,75,0,2,6,32,282,666.9360689416062,667.9603604017757,"[83, 0, 171]",171,l,0.49137202580459416,colour,0.5
064,75,0,2,6,33,283,668.4691834235564,669.4163716889452,"[91, 0, 163]",163,l,0.4140529311262071,colour,0.5
064,75,0,2,6,34,284,669.9195210037287,671.080325973453,"[42, 0, 212]",212,a,0.6280039113480598,colour,0.5
064,75,0,2,6,35,285,671.5855139859486,672.5922729666345,"[78, 0, 176]",176,l,0.47329418268054724,colour,0.5
064,75,0,2,6,36,286,673.1029608112294,674.1843319581822,"[1, 0, 253]",253,a,0.5486798027995974,colour,0.5
064,75,0,2,6,37,287,674.6862150670495,675.8644084760454,"[32, 0, 222]",222,a,0.645443037385121,colour,0.5
064,75,0,2,6,38,288,676.369762984803,677.4883949817158,"[38, 0, 216]",216,a,0.5860747480764985,colour,0.5
064,75,0,2,6,39,289,678.0030469787307,679.0802486599423,"[36, 0, 218]",218,a,0.5446165225002915,colour,0.5
064,75,0,2,6,40,290,679.5861741967965,680.6163671335671,"[11, 0, 243]",243,a,0.49740150244906545,colour,0.5
064,75,0,2,6,41,291,681.1189037163276,682.3683132799342,"[55, 0, 199]",199,a,0.7160191917791963,colour,0.5
064,75,0,2,6,42,292,682.8856041955296,683.9762811714318,"[2, 0, 252]",252,a,0.5573145137168467,colour,0.5
064,75,0,2,6,43,293,684.4856043236796,685.5284166552592,"[84, 0, 170]",170,l,0.5094363957177848,colour,0.5
064,75,0,2,6,44,294,686.0361027540639,687.2642723275349,"[69, 0, 185]",185,a,0.6953223196323961,colour,0.5
064,75,0,2,6,45,295,687.7697618941311,688.8003660992254,"[63, 0, 191]",191,a,0.49810662562958896,colour,0.5
064,75,0,2,6,46,296,689.3024323859718,690.2803801246919,"[79, 0, 175]",175,l,0.4447719834279269,colour,0.5
064,75,0,2,6,47,297,690.7856752851512,691.9443228603341,"[29, 0, 225]",225,a,0.6253835991956294,colour,0.5
064,75,0,2,6,48,298,692.4527785636019,693.2722904568072,"[85, 0, 169]",169,l,0.2866896619088948,colour,0.5
064,75,0,2,6,49,299,693.7859556663316,695.4404376253951,"[67, 0, 187]",187,l,1.1215060635004193,colour,0.5
064,75,0,2,6,50,300,695.9524487790186,696.9443786798511,"[18, 0, 236]",236,a,0.4587942457292229,colour,0.5
064,75,0,2,7,1,301,703.3185921532568,704.6323722740635,"[34, 0, 220]",220,a,0.7801475431770086,colour,0.5
064,75,0,2,7,2,302,705.135858110385,706.0404319793452,"[95, 0, 159]",159,l,0.37152162240818143,colour,0.5
064,75,0,2,7,3,303,706.5526551830117,707.6002917373553,"[48, 0, 206]",206,a,0.5147305936552584,colour,0.5
064,75,0,2,7,4,304,708.1025485806167,709.128402988892,"[52, 0, 202]",202,a,0.4928499613888562,colour,0.5
064,75,0,2,7,5,305,709.6356130174827,710.6323902390432,"[19, 0, 235]",235,a,0.4635129247326404,colour,0.5
064,75,0,2,7,6,306,711.1357811179478,712.0243087834679,"[81, 0, 173]",173,l,0.355434998171404,colour,0.5
064,75,0,2,7,7,307,712.5362939522602,713.4488493788522,"[92, 0, 162]",162,l,0.3799677016213536,colour,0.5
064,75,0,2,7,8,308,713.9525770999026,715.0003259349614,"[50, 0, 204]",204,a,0.5147726186551154,colour,0.5
064,75,0,2,7,9,309,715.5035878513008,716.4483970478177,"[83, 0, 171]",171,l,0.4128662839066237,colour,0.5
064,75,0,2,7,10,310,716.9531853408553,717.9524337013718,"[18, 0, 236]",236,a,0.46690765325911343,colour,0.5
064,75,0,2,7,11,311,718.4693216893356,719.5044504881371,"[20, 0, 234]",234,a,0.5022539559286088,colour,0.5
064,75,0,2,7,12,312,720.0196969315875,721.0643189081457,"[24, 0, 230]",230,a,0.5121215097606182,colour,0.5
064,75,0,2,7,13,313,721.5695245647803,722.712321304949,"[64, 0, 190]",190,a,0.6101300979498774,colour,0.5
064,75,0,2,7,14,314,723.2192766165826,724.2882927099708,"[7, 0, 247]",247,a,0.5361213607247919,colour,0.5
064,75,0,2,7,15,315,724.8029273836873,725.9444659380242,"[0, 0, 254]",254,a,0.6089626990724355,colour,0.5
064,75,0,2,7,16,316,726.4528308543377,727.6484133445192,"[68, 0, 186]",186,a,0.6628949956502765,colour,0.5
064,75,0,2,7,17,317,728.153013647534,729.3763086320832,"[4, 0, 250]",250,a,0.6908051043283194,colour,0.5
064,75,0,2,7,18,318,729.8858261904679,731.2404774690513,"[51, 0, 203]",203,a,0.8216468314640224,colour,0.5
064,75,0,2,7,19,319,731.7527099761646,732.872333572479,"[15, 0, 239]",239,a,0.5868459565099329,colour,0.5
064,75,0,2,7,20,320,733.3854046564084,734.608320773812,"[55, 0, 199]",199,a,0.6894715297967196,colour,0.5
064,75,0,2,7,21,321,735.1188995458651,736.1442939238623,"[84, 0, 170]",170,l,0.4921477255411446,colour,0.5
064,75,0,2,7,22,322,736.6524275420234,738.496365953004,"[62, 0, 192]",192,a,1.3108999591786414,colour,0.5
064,75,0,2,7,23,323,739.0020284319762,740.0243382973131,"[90, 0, 164]",164,l,0.48886367375962436,colour,0.5
064,75,0,2,7,24,324,740.5357774607837,741.5683270101435,"[82, 0, 172]",172,l,0.4995232878718525,colour,0.5
064,75,0,2,7,25,325,742.0858915699646,743.048305747332,"[47, 0, 207]",207,a,0.42952393600717187,colour,0.5
064,75,0,2,7,26,326,743.5527944113128,744.5123938706238,"[77, 0, 177]",177,l,0.4269344210624695,colour,0.5
064,75,0,2,7,27,327,745.0200389067177,746.0884371350985,"[31, 0, 223]",223,a,0.5363225035835057,colour,0.5
064,75,0,2,7,28,328,746.6027263049036,747.9444470107555,"[73, 0, 181]",181,l,0.8090113967191428,colour,0.5
064,75,0,2,7,29,329,748.4536594862584,749.896351067815,"[67, 0, 187]",187,a,0.9109142026863992,colour,0.5
064,75,0,2,7,30,330,750.4028537275735,751.4963775018696,"[45, 0, 209]",209,a,0.560946315061301,colour,0.5
064,75,0,2,7,31,331,752.0024974446278,753.0325116948225,"[85, 0, 169]",169,l,0.49706658511422575,colour,0.5
064,75,0,2,7,32,332,753.5355952451937,754.5524132982828,"[76, 0, 178]",178,l,0.4836519218515605,colour,0.5
064,75,0,2,7,33,333,755.0691142587457,755.9682864607312,"[32, 0, 222]",222,a,0.3661895697005093,colour,0.5
064,75,0,2,7,34,334,756.4855757723562,757.5523138495628,"[38, 0, 216]",216,a,0.5335161264520139,colour,0.5
064,75,0,2,7,35,335,758.0690565144178,759.2724579153582,"[12, 0, 242]",242,a,0.6703667987603694,colour,0.5
064,75,0,2,7,36,336,759.786009240197,760.8244163163472,"[37, 0, 217]",217,a,0.505671140505001,colour,0.5
064,75,0,2,7,37,337,761.3356629984919,762.3843094380572,"[22, 0, 232]",232,a,0.5155637168791145,colour,0.5
064,75,0,2,7,38,338,762.8857443861198,764.7363808255177,"[26, 0, 228]",228,a,1.3176454661879689,colour,0.5
064,75,0,2,7,39,339,765.2524802817497,766.2643310343847,"[11, 0, 243]",243,a,0.4789345262106508,colour,0.5
064,75,0,2,7,40,340,766.7696162499487,767.8643080648035,"[49, 0, 205]",205,a,0.5622462052851915,colour,0.5
064,75,0,2,7,41,341,768.3701424938627,769.6163036148064,"[96, 0, 158]",158,l,0.7142477221786976,colour,0.5
064,75,0,2,7,42,342,770.1184715956915,771.1204907244537,"[35, 0, 219]",219,a,0.46843595476821065,colour,0.5
064,75,0,2,7,43,343,771.6359537094831,772.6644168810453,"[80, 0, 174]",174,l,0.49568392778746784,colour,0.5
064,75,0,2,7,44,344,773.1693411942106,774.2003678958863,"[27, 0, 227]",227,a,0.4982788965571672,colour,0.5
064,75,0,2,7,45,345,774.7031296815258,775.8723338933196,"[41, 0, 213]",213,a,0.6369523666799068,colour,0.5
064,75,0,2,7,46,346,776.3857459900901,777.3603297972586,"[86, 0, 168]",168,l,0.4416290845256299,colour,0.5
064,75,0,2,7,47,347,777.8694562979508,779.080337201478,"[56, 0, 198]",198,a,0.67829799070023,colour,0.5
064,75,0,2,7,48,348,779.5853587177116,780.4403741066344,"[97, 0, 157]",157,l,0.32168372371234,colour,0.5
064,75,0,2,7,49,349,780.9520176209044,781.8963584462181,"[16, 0, 238]",238,a,0.4110120474360883,colour,0.5
064,75,0,2,7,50,350,782.4021062585525,783.6323921638541,"[71, 0, 183]",183,a,0.6970408568158746,colour,0.5
064,75,0,2,8,1,351,791.7355935769156,793.0323528975714,"[49, 0, 205]",205,a,0.7636919964570552,colour,0.5
064,75,0,2,8,2,352,793.5352843878791,794.2563209251966,"[74, 0, 180]",180,l,0.18765546870417893,colour,0.5
064,75,0,2,8,3,353,794.7691125904676,795.4963922589086,"[32, 0, 222]",222,a,0.19440322136506438,colour,0.5
064,75,0,2,8,4,354,796.0027088532224,796.8084358775523,"[26, 0, 228]",228,a,0.2730719307437539,colour,0.5
064,75,0,2,8,5,355,797.3193222989794,798.3523764701094,"[65, 0, 189]",189,a,0.500384962419048,colour,0.5
064,75,0,2,8,6,356,798.8697597768623,800.1523948200047,"[75, 0, 179]",179,a,0.7504098247736692,colour,0.5
064,75,0,2,8,7,357,800.6696218959987,801.4563689813949,"[23, 0, 231]",231,a,0.254391300259158,colour,0.5
064,75,0,2,8,8,358,801.9686316440348,802.784440838499,"[45, 0, 209]",209,a,0.2824784917756915,colour,0.5
064,75,0,2,8,9,359,803.2860422828235,804.2323589287698,"[21, 0, 233]",233,a,0.4137212217319757,colour,0.5
064,75,0,2,8,10,360,804.7353224991821,805.7683558182325,"[33, 0, 221]",221,a,0.499724430963397,colour,0.5
064,75,0,2,8,11,361,806.286117029842,807.0244476909284,"[36, 0, 218]",218,a,0.20582409901544452,colour,0.5
064,75,0,2,8,12,362,807.5355375006329,808.320456976071,"[14, 0, 240]",240,a,0.25183771504089236,colour,0.5
064,75,0,2,8,13,363,808.8357739960775,809.5844068976585,"[53, 0, 201]",201,a,0.21579013904556632,colour,0.5
064,75,0,2,8,14,364,810.0865152094048,811.3923198678531,"[73, 0, 181]",181,a,0.7737103272229433,colour,0.5
064,75,0,2,8,15,365,811.9022150104865,812.9204426682554,"[52, 0, 202]",202,a,0.485162258381024,colour,0.5
064,75,0,2,8,16,366,813.4359685303643,814.376360922819,"[43, 0, 211]",211,a,0.4077600759919733,colour,0.5
064,75,0,2,8,17,367,814.8855961754452,816.0003798296675,"[69, 0, 185]",185,a,0.5817897936794907,colour,0.5
064,75,0,2,8,18,368,816.5023896552157,817.4403580664657,"[68, 0, 186]",186,a,0.4051015884615481,colour,0.5
064,75,0,2,8,19,369,817.9526216913946,818.8563560210168,"[62, 0, 192]",192,a,0.3710818027611822,colour,0.5
064,75,0,2,8,20,370,819.3691261925269,820.5763345528394,"[24, 0, 230]",230,a,0.6744137180503458,colour,0.5
064,75,0,2,8,21,371,821.0854167828802,822.0884448343422,"[85, 0, 169]",169,l,0.4698317649308592,colour,0.5
064,75,0,2,8,22,372,822.6023743848782,823.9284874240402,"[59, 0, 195]",195,a,0.7932330633047968,colour,0.5
064,75,0,2,8,23,373,824.4357426858041,825.6324726850726,"[12, 0, 242]",242,a,0.6638814623001963,colour,0.5
064,75,0,2,8,24,374,826.1352245260496,827.0803426550701,"[86, 0, 168]",168,l,0.4117761980742216,colour,0.5
064,75,0,2,8,25,375,827.5851145870984,828.7203634944744,"[63, 0, 191]",191,a,0.6018007909879088,colour,0.5
064,75,0,2,8,26,376,829.2359272111207,830.304364898242,"[1, 0, 253]",253,a,0.5357938217930496,colour,0.5
064,75,0,2,8,27,377,830.818724965211,831.6004014518112,"[84, 0, 170]",170,l,0.248512921622023,colour,0.5
064,75,0,2,8,28,378,832.1021539939102,833.0643699155189,"[4, 0, 250]",250,a,0.4291450686287135,colour,0.5
064,75,0,2,8,29,379,833.5685727447271,834.7445372203365,"[16, 0, 238]",238,a,0.6426219032146037,colour,0.5
064,75,0,2,8,30,380,835.251953845378,836.2884428454563,"[50, 0, 204]",204,a,0.5032362521160394,colour,0.5
064,75,0,2,8,31,381,836.8034300806466,838.5123935497832,"[66, 0, 188]",188,a,1.177187052788213,colour,0.5
064,75,0,2,8,32,382,839.0191621545237,839.920489505399,"[83, 0, 171]",171,l,0.36862349556759,colour,0.5
064,75,0,2,8,33,383,840.4353320589289,841.936367608374,"[48, 0, 206]",206,a,0.9678209770936519,colour,0.5
064,75,0,2,8,34,384,842.4523801272735,843.456422876101,"[93, 0, 161]",161,l,0.4712253294419497,colour,0.5
064,75,0,2,8,35,385,843.969256245764,845.216400625417,"[37, 0, 217]",217,a,0.7145463889464736,colour,0.5
064,75,0,2,8,36,386,845.7187434434891,846.6883577045519,"[70, 0, 184]",184,l,0.436515819048509,colour,0.5
064,75,0,2,8,37,387,847.2024332201108,848.1925265286118,"[35, 0, 219]",219,a,0.4573410120792687,colour,0.5
064,75,0,2,8,38,388,848.7020415207371,849.8324504857883,"[6, 0, 248]",248,a,0.5972470042761415,colour,0.5
064,75,0,2,8,39,389,850.3354474194348,851.2404540504795,"[96, 0, 158]",158,l,0.3719393068458885,colour,0.5
064,75,0,2,8,40,390,851.7521341361571,852.8003693073988,"[34, 0, 220]",220,a,0.5152105137240142,colour,0.5
064,75,0,2,8,41,391,853.3021282656118,854.6003732210957,"[8, 0, 246]",246,a,0.7651949545834213,colour,0.5
064,75,0,2,8,42,392,855.1026666357648,856.6323664996307,"[44, 0, 210]",210,a,0.9972234573215246,colour,0.5
064,75,0,2,8,43,393,857.1356948220637,858.2084700751584,"[42, 0, 212]",212,a,0.5399921596981585,colour,0.5
064,75,0,2,8,44,394,858.7192872031592,859.7124143377878,"[76, 0, 178]",178,l,0.46060774056240916,colour,0.5
064,75,0,2,8,45,395,860.2192329876125,861.3283993960358,"[25, 0, 229]",229,a,0.5765629641246051,colour,0.5
064,75,0,2,8,46,396,861.8365869086701,863.4803912886418,"[67, 0, 187]",187,l,1.1119169660378247,colour,0.5
064,75,0,2,8,47,397,863.9857695368119,867.9204494052101,"[64, 0, 190]",190,l,3.4019695969764143,colour,0.5
064,75,0,2,8,48,398,868.4358004301321,869.3444404664915,"[81, 0, 173]",173,l,0.3759891134686768,colour,0.5
064,75,0,2,8,49,399,869.8525346256793,870.8803606841248,"[5, 0, 249]",249,a,0.4952450704295188,colour,0.5
064,75,0,2,8,50,400,871.3860716042109,872.3204329160508,"[98, 0, 156]",156,l,0.4019894867669791,colour,0.5
064,75,0,2,9,1,401,881.2681864346378,882.5923547712155,"[71, 0, 183]",183,a,0.7905947864055634,colour,0.5
064,75,0,2,9,2,402,883.1018210011534,884.1049780154135,"[62, 0, 192]",192,a,0.4699020206462592,colour,0.5
064,75,0,2,9,3,403,884.6192995861638,885.6325798330363,"[1, 0, 253]",253,a,0.4808015946764499,colour,0.5
064,75,0,2,9,4,404,886.1351032629609,887.03241096274,"[24, 0, 230]",230,a,0.3639885459560901,colour,0.5
064,75,0,2,9,5,405,887.5352561571635,888.4964269055054,"[28, 0, 226]",226,a,0.42801231634803116,colour,0.5
064,75,0,2,9,6,406,889.0026257655118,889.9603918404318,"[53, 0, 201]",201,a,0.4252989715896547,colour,0.5
064,75,0,2,9,7,407,890.4687336590141,891.520430926932,"[8, 0, 246]",246,a,0.5186588158831,colour,0.5
064,75,0,2,9,8,408,892.0360212703235,892.9604338656645,"[74, 0, 180]",180,l,0.3920058028306812,colour,0.5
064,75,0,2,9,9,409,893.4691423610784,894.416423979681,"[63, 0, 191]",191,l,0.4147089715115726,colour,0.5
064,75,0,2,9,10,410,894.9191222467925,895.7924920103978,"[98, 0, 156]",156,l,0.34071691590361297,colour,0.5
064,75,0,2,9,11,411,896.3025825214572,897.2244607796893,"[50, 0, 204]",204,a,0.3894143628422171,colour,0.5
064,75,0,2,9,12,412,897.7359916924033,898.6644342043437,"[90, 0, 164]",164,l,0.3960212832316756,colour,0.5
064,75,0,2,9,13,413,899.1689992190804,900.1685071084648,"[10, 0, 244]",244,a,0.4668008261360228,colour,0.5
064,75,0,2,9,14,414,900.6854589362629,901.7283790572546,"[34, 0, 220]",220,a,0.5099981201346964,colour,0.5
064,75,0,2,9,15,415,902.2356590204872,903.2483855630271,"[44, 0, 210]",210,a,0.48000953416340053,colour,0.5
064,75,0,2,9,16,416,903.7523920612875,904.9283911834937,"[75, 0, 179]",179,l,0.643365201773122,colour,0.5
064,75,0,2,9,17,417,905.4367346060462,906.4003758516628,"[9, 0, 245]",245,a,0.4320265136193484,colour,0.5
064,75,0,2,9,18,418,906.902168173343,907.8244708527345,"[92, 0, 162]",162,l,0.389430723618716,colour,0.5
064,75,0,2,9,19,419,908.335614557378,909.3523893023375,"[43, 0, 211]",211,a,0.4840343182440847,colour,0.5
064,75,0,2,9,20,420,909.8699602782726,911.1124456480611,"[64, 0, 190]",190,a,0.7107593195978552,colour,0.5
064,75,0,2,9,21,421,911.6190426235553,912.6165070033167,"[36, 0, 218]",218,a,0.46483623376116157,colour,0.5
064,75,0,2,9,22,422,913.119657280622,914.1124106806237,"[57, 0, 197]",197,a,0.4607370237354189,colour,0.5
064,75,0,2,9,23,423,914.6190416612662,915.7043936420232,"[39, 0, 215]",215,a,0.5526981705334038,colour,0.5
064,75,0,2,9,24,424,916.2189654386602,917.3684618112165,"[96, 0, 158]",158,l,0.6168018204625696,colour,0.5
064,75,0,2,9,25,425,917.8862826919649,919.2243561979849,"[60, 0, 194]",194,a,0.8060272950679064,colour,0.5
064,75,0,2,9,26,426,919.7357318426948,920.7525040211622,"[7, 0, 247]",247,a,0.48420306015759706,colour,0.5
064,75,0,2,9,27,427,921.2687276280485,922.2084421652835,"[77, 0, 177]",177,l,0.40678932843729854,colour,0.5
064,75,0,2,9,28,428,922.7190562256146,923.712435510708,"[76, 0, 178]",178,l,0.46078065293841064,colour,0.5
064,75,0,2,9,29,429,924.2181496387348,925.2325036104303,"[66, 0, 188]",188,l,0.48085677274502814,colour,0.5
064,75,0,2,9,30,430,925.735444403952,926.6244362702128,"[67, 0, 187]",187,l,0.35613787546753883,colour,0.5
064,75,0,2,9,31,431,927.1352145811543,928.2885108555201,"[33, 0, 221]",221,a,0.6202125891577452,colour,0.5
064,75,0,2,9,32,432,928.8031910830177,929.7604153230786,"[6, 0, 248]",248,a,0.4254503899719566,colour,0.5
064,75,0,2,9,33,433,930.2681909259409,931.07248685183,"[22, 0, 232]",232,a,0.27086417051032186,colour,0.5
064,75,0,2,9,34,434,931.5852130735293,932.3364062970504,"[31, 0, 223]",223,a,0.21812493703328073,colour,0.5
064,75,0,2,9,35,435,932.8519424248952,933.7924900855869,"[2, 0, 252]",252,a,0.4075393641833216,colour,0.5
064,75,0,2,9,36,436,934.3031548324507,935.3044791037682,"[35, 0, 219]",219,a,0.4695250780787319,colour,0.5
064,75,0,2,9,37,437,935.8198904395103,936.6484021164943,"[19, 0, 235]",235,a,0.2967795312870294,colour,0.5
064,75,0,2,9,38,438,937.152074659476,938.472454322502,"[61, 0, 193]",193,a,0.7875121985562146,colour,0.5
064,75,0,2,9,39,439,938.9862196224276,939.8483933906537,"[93, 0, 161]",161,l,0.33013621903955936,colour,0.5
064,75,0,2,9,40,440,940.3525214728434,941.6244372327346,"[80, 0, 174]",174,l,0.7395083256997168,colour,0.5
064,75,0,2,9,41,441,942.1349030823912,943.1684583465103,"[55, 0, 199]",199,a,0.5002021051477641,colour,0.5
064,75,0,2,9,42,442,943.6850162292831,944.7044247598387,"[26, 0, 228]",228,a,0.4861840133089572,colour,0.5
064,75,0,2,9,43,443,945.2189696091227,946.2404200453311,"[51, 0, 203]",203,a,0.4888498792424798,colour,0.5
064,75,0,2,9,44,444,946.7525113995653,947.9524144532625,"[3, 0, 251]",251,a,0.6674975443165749,colour,0.5
064,75,0,2,9,45,445,948.4686316440348,949.4643726744689,"[45, 0, 209]",209,a,0.4627991400193423,colour,0.5
064,75,0,2,9,46,446,949.9686666114721,951.304413339356,"[95, 0, 159]",159,l,0.8028279352001846,colour,0.5
064,75,0,2,9,47,447,951.819254930364,952.8244913842063,"[46, 0, 208]",208,a,0.47292718500830233,colour,0.5
064,75,0,2,9,48,448,953.334922907874,954.6243624857161,"[18, 0, 236]",236,a,0.7561409552581608,colour,0.5
064,75,0,2,9,49,449,955.1358982105739,956.3364762319252,"[38, 0, 216]",216,a,0.6681689831893891,colour,0.5
064,75,0,2,9,50,450,956.8521554374602,958.0324391934555,"[89, 0, 165]",165,l,0.6475561612751335,colour,0.5
064,75,0,2,10,1,451,964.5678400325123,965.7924012232106,"[68, 0, 186]",186,a,0.6908529037609696,colour,0.5
064,75,0,2,10,2,452,966.3024833935779,968.2084274084773,"[71, 0, 183]",183,l,1.373564169742167,colour,0.5
064,75,0,2,10,3,453,968.7184803856071,969.5844720203895,"[96, 0, 158]",158,l,0.33294901228509843,colour,0.5
064,75,0,2,10,4,454,970.1017597280443,971.0725580698345,"[95, 0, 159]",159,l,0.43769957893528044,colour,0.5
064,75,0,2,10,5,455,971.5856262666639,972.584391499171,"[2, 0, 252]",252,a,0.4662111918441951,colour,0.5
064,75,0,2,10,6,456,973.1022434977349,974.5443922819104,"[79, 0, 175]",175,l,0.9095232046674937,colour,0.5
064,75,0,2,10,7,457,975.052215042524,975.9604252038989,"[22, 0, 232]",232,a,0.3755855441559106,colour,0.5
064,75,0,2,10,8,458,976.4690547820646,977.4324371402618,"[1, 0, 253]",253,a,0.43094541039317846,colour,0.5
064,75,0,2,10,9,459,977.9351116679609,979.0965171791613,"[62, 0, 192]",192,a,0.6283221470657736,colour,0.5
064,75,0,2,10,10,460,979.6021299336571,980.576527355006,"[39, 0, 215]",215,a,0.4416974156629294,colour,0.5
064,75,0,2,10,11,461,981.0851684820373,981.8724420035724,"[33, 0, 221]",221,a,0.2542809443548322,colour,0.5
064,75,0,2,10,12,462,982.3854386615567,983.3444520153571,"[43, 0, 211]",211,a,0.4262963456567377,colour,0.5
064,75,0,2,10,13,463,983.8525452122558,987.0645627176855,"[69, 0, 185]",185,a,2.6797650188673288,colour,0.5
064,75,0,2,10,14,464,987.5688556921668,988.5925347411539,"[38, 0, 216]",216,a,0.4910438454244286,colour,0.5
064,75,0,2,10,15,465,989.1018976729829,990.104457994923,"[57, 0, 197]",197,a,0.46965789003297687,colour,0.5
064,75,0,2,10,16,466,990.6188376310747,991.5605363298673,"[55, 0, 199]",199,a,0.409071515314281,colour,0.5
064,75,0,2,10,17,467,992.0678916815668,993.0244608437642,"[42, 0, 212]",212,a,0.42299625370651484,colour,0.5
064,75,0,2,10,18,468,993.5355185733642,994.4966222739313,"[76, 0, 178]",178,l,0.4285018602386117,colour,0.5
064,75,0,2,10,19,469,995.0026604121085,995.9124989653938,"[73, 0, 181]",181,l,0.37771085859276354,colour,0.5
064,75,0,2,10,20,470,996.4182701960672,997.2484115480911,"[94, 0, 160]",160,l,0.29697489994578063,colour,0.5
064,75,0,2,10,21,471,997.752163970843,1002.2325283123646,"[66, 0, 188]",188,l,3.9477589724119753,colour,0.5
064,75,0,2,10,22,472,1002.7350908799563,1003.7925677197054,"[53, 0, 201]",201,a,0.5244736759923398,colour,0.5
064,75,0,2,10,23,473,1004.3021301904228,1005.4324233457446,"[48, 0, 206]",206,a,0.597664688481018,colour,0.5
064,75,0,2,10,24,474,1005.9353641392663,1007.048525176011,"[86, 0, 168]",168,l,0.5804523695260286,colour,0.5
064,75,0,2,10,25,475,1007.552314491244,1008.6004797273781,"[50, 0, 204]",204,a,0.5157064737286419,colour,0.5
064,75,0,2,10,26,476,1009.1031353278086,1010.4005442727357,"[41, 0, 213]",213,a,0.7658009498845786,colour,0.5
064,75,0,2,10,27,477,1010.9021447547711,1012.3524730317295,"[18, 0, 236]",236,a,0.917721624718979,colour,0.5
064,75,0,2,10,28,478,1012.8681175906677,1014.3524723900482,"[9, 0, 245]",245,a,0.9510718963574618,colour,0.5
064,75,0,2,10,29,479,1014.8686558965128,1016.0244701469783,"[34, 0, 220]",220,a,0.6230812021531165,colour,0.5
064,75,0,2,10,30,480,1016.535644327756,1017.6165464620572,"[36, 0, 218]",218,a,0.548487963154912,colour,0.5
064,75,0,2,10,31,481,1018.1190310746897,1019.1444665156305,"[15, 0, 239]",239,a,0.4930738816037774,colour,0.5
064,75,0,2,10,32,482,1019.6520926244557,1020.5205887616612,"[72, 0, 182]",182,l,0.33578362013213336,colour,0.5
064,75,0,2,10,33,483,1021.0365223633125,1022.104549102718,"[29, 0, 225]",225,a,0.5365056816954166,colour,0.5
064,75,0,2,10,34,484,1022.6182880969718,1023.8325525007676,"[52, 0, 202]",202,a,0.6811861724127084,colour,0.5
064,75,0,2,10,35,485,1024.3353630485944,1025.3444860202726,"[93, 0, 161]",161,l,0.476449592737481,colour,0.5
064,75,0,2,10,36,486,1025.851819878444,1026.8564622064587,"[16, 0, 238]",238,a,0.4717581819277257,colour,0.5
064,75,0,2,10,37,487,1027.368483625818,1028.4564504651353,"[30, 0, 224]",224,a,0.5550826932303607,colour,0.5
064,75,0,2,10,38,488,1028.9687403959688,1030.2084242005367,"[20, 0, 234]",234,a,0.7070633578114212,colour,0.5
064,75,0,2,10,39,489,1030.7187043055892,1031.7524395398796,"[6, 0, 248]",248,a,0.501085915369913,colour,0.5
064,75,0,2,10,40,490,1032.2686438986566,1033.6804605177604,"[7, 0, 247]",247,a,0.8791118015069515,colour,0.5
064,75,0,2,10,41,491,1034.186112410156,1036.1525898678228,"[63, 0, 191]",191,a,1.4345817028079182,colour,0.5
064,75,0,2,10,42,492,1036.6691711689346,1037.6084632100537,"[74, 0, 180]",180,l,0.4071200757753104,colour,0.5
064,75,0,2,10,43,493,1038.1184212297667,1039.13653211575,"[92, 0, 162]",162,l,0.4851997923105955,colour,0.5
064,75,0,2,10,44,494,1039.651499140542,1040.8164305882528,"[27, 0, 227]",227,a,0.6317601837217808,colour,0.5
064,75,0,2,10,45,495,1041.319272574503,1042.4325025838334,"[37, 0, 217]",217,a,0.5811847606673837,colour,0.5
064,75,0,2,10,46,496,1042.93487170781,1043.8885327982716,"[10, 0, 244]",244,a,0.4205543075222522,colour,0.5
064,75,0,2,10,47,497,1044.4019872408826,1045.2404947923496,"[75, 0, 179]",179,l,0.30579888401553035,colour,0.5
064,75,0,2,10,48,498,1045.7513712686487,1047.000466767,"[54, 0, 200]",200,a,0.7158180486876518,colour,0.5
064,75,0,2,10,49,499,1047.5187672469765,1048.4245444447733,"[81, 0, 173]",173,l,0.3732042296323925,colour,0.5
064,75,0,2,10,50,500,1048.9352524999995,1049.9125859027263,"[46, 0, 208]",208,a,0.44459233433008194,colour,0.5
064,75,0,2,11,1,501,1056.5509876534343,1057.3525397584308,"[42, 0, 212]",212,a,0.26791279041208327,colour,0.5
064,75,0,2,11,2,502,1057.868396367645,1058.4724864026066,"[82, 0, 172]",172,l,0.07121455040760338,colour,0.5
064,75,0,2,11,3,503,1058.9854795318097,1059.7606164661702,"[31, 0, 223]",223,a,0.24265924468636513,colour,0.5
064,75,0,2,11,4,504,1060.2687192871235,1061.1284649039153,"[4, 0, 250]",250,a,0.32718965131789446,colour,0.5
064,75,0,2,11,5,505,1061.6351241150405,1062.2164763347246,"[32, 0, 222]",222,a,0.048533517168834805,colour,0.5
064,75,0,2,11,6,506,1062.7183748418465,1063.9445368354209,"[66, 0, 188]",188,l,0.693268544273451,colour,0.5
064,75,0,2,11,7,507,1064.4516621720977,1065.4164409821387,"[80, 0, 174]",174,l,0.43185263872146606,colour,0.5
064,75,0,2,11,8,508,1065.918271158589,1066.5765568688512,"[93, 0, 161]",161,l,0.12530051148496568,colour,0.5
064,75,0,2,11,9,509,1067.0849490533583,1068.2564726646524,"[96, 0, 158]",158,l,0.6385499613825232,colour,0.5
064,75,0,2,11,10,510,1068.7684854222462,1069.9124710555188,"[51, 0, 203]",203,a,0.6112140885088593,colour,0.5
064,75,0,2,11,11,511,1070.4186028679833,1071.6164877552073,"[19, 0, 235]",235,a,0.665239738766104,colour,0.5
064,75,0,2,11,12,512,1072.118613390252,1073.1284462972544,"[43, 0, 211]",211,a,0.47721278108656406,colour,0.5
064,75,0,2,11,13,513,1073.6353820399381,1074.7764637719374,"[61, 0, 193]",193,a,0.6085495057050139,colour,0.5
064,75,0,2,11,14,514,1075.2851668137591,1076.02457633242,"[62, 0, 192]",192,a,0.20666363812051713,colour,0.5
064,75,0,2,11,15,515,1076.5353427738883,1077.2724992989097,"[40, 0, 214]",214,a,0.20456623379141092,colour,0.5
064,75,0,2,11,16,516,1077.7848848286085,1078.4566801595502,"[95, 0, 159]",159,l,0.13878158060833812,colour,0.5
064,75,0,2,11,17,517,1078.9686666114721,1079.776559050195,"[8, 0, 246]",246,a,0.27533839805983007,colour,0.5
064,75,0,2,11,18,518,1080.2850564578548,1081.6884943663608,"[57, 0, 197]",197,a,0.8706022035330534,colour,0.5
064,75,0,2,11,19,519,1082.2018965180032,1083.2564588701352,"[7, 0, 247]",247,a,0.5219034089241177,colour,0.5
064,75,0,2,11,20,520,1083.7680051815696,1084.8564634898212,"[89, 0, 165]",165,l,0.5552475855220109,colour,0.5
064,75,0,2,11,21,521,1085.367819886189,1086.3604488149285,"[92, 0, 162]",162,l,0.4592369527090341,colour,0.5
064,75,0,2,11,22,522,1086.8684823426884,1087.9045661694836,"[26, 0, 228]",228,a,0.5033719514030963,colour,0.5
064,75,0,2,11,23,523,1088.4183147875592,1089.6244728418533,"[68, 0, 186]",186,a,0.6732517727650702,colour,0.5
064,75,0,2,11,24,524,1090.1357175989542,1091.4805953188334,"[69, 0, 185]",185,a,0.8127272482961416,colour,0.5
064,75,0,2,11,25,525,1091.9845264286269,1093.0565830848645,"[88, 0, 166]",166,l,0.5387089510913938,colour,0.5
064,75,0,2,11,26,526,1093.568182328483,1094.5445607029833,"[37, 0, 217]",217,a,0.44336558668874204,colour,0.5
064,75,0,2,11,27,527,1095.0517165160272,1096.1684583465103,"[46, 0, 208]",208,a,0.5839696442708373,colour,0.5
064,75,0,2,11,28,528,1096.6847794773057,1097.680611294927,"[56, 0, 198]",198,a,0.46276160632260144,colour,0.5
064,75,0,2,11,29,529,1098.1849196678959,1099.4565521595068,"[99, 0, 155]",155,l,0.7387021500617266,colour,0.5
064,75,0,2,11,30,530,1099.9683352226857,1101.0404887611512,"[41, 0, 213]",213,a,0.5393011516425759,colour,0.5
064,75,0,2,11,31,531,1101.5519516640343,1102.9925224224571,"[18, 0, 236]",236,a,0.9080237753223628,colour,0.5
064,75,0,2,11,32,532,1103.5017352188006,1104.6885838701855,"[78, 0, 176]",176,l,0.6540931470226496,colour,0.5
064,75,0,2,11,33,533,1105.201921861386,1106.7365896676201,"[34, 0, 220]",220,a,1.0020916301291436,colour,0.5
064,75,0,2,11,34,534,1107.2524700160138,1108.2565387499053,"[52, 0, 202]",202,a,0.47204979113303125,colour,0.5
064,75,0,2,11,35,535,1108.7683837281074,1110.0085044652224,"[76, 0, 178]",178,l,0.7073488717433065,colour,0.5
064,75,0,2,11,36,536,1110.5180820135865,1111.6325695675332,"[38, 0, 216]",216,a,0.5813705055043101,colour,0.5
064,75,0,2,11,37,537,1112.1344276536256,1113.9125143638812,"[23, 0, 231]",231,a,1.2447200778406113,colour,0.5
064,75,0,2,11,38,538,1114.417997835204,1115.5364957368001,"[33, 0, 221]",221,a,0.5853782866615802,colour,0.5
064,75,0,2,11,39,539,1116.0514207363594,1118.1525048553012,"[71, 0, 183]",183,l,1.5680427795741707,colour,0.5
064,75,0,2,11,40,540,1118.6683835997246,1119.8885706530418,"[60, 0, 194]",194,a,0.6874774235766381,colour,0.5
064,75,0,2,11,41,541,1120.401531381067,1121.5366461928934,"[28, 0, 226]",226,a,0.6021963397506624,colour,0.5
064,75,0,2,11,42,542,1122.0513421399519,1123.1525978879072,"[25, 0, 229]",229,a,0.5681508900597692,colour,0.5
064,75,0,2,11,43,543,1123.6677317298017,1126.264548217412,"[70, 0, 184]",184,l,2.063443759921938,colour,0.5
064,75,0,2,11,44,544,1126.768462324515,1127.7765779776964,"[30, 0, 224]",224,a,0.475485582370311,colour,0.5
064,75,0,2,11,45,545,1128.2844061919022,1130.584556070622,"[17, 0, 237]",237,a,1.7667854917235672,colour,0.5
064,75,0,2,11,46,546,1131.1010359984357,1132.0164985342417,"[49, 0, 205]",205,a,0.38209301605820656,colour,0.5
064,75,0,2,11,47,547,1132.51837266027,1133.6406630850397,"[84, 0, 170]",170,l,0.5895856069400907,colour,0.5
064,75,0,2,11,48,548,1134.1516268197447,1135.1766959044617,"[44, 0, 210]",210,a,0.49227540474385023,colour,0.5
064,75,0,2,11,49,549,1135.6846039984375,1137.1925194710493,"[58, 0, 196]",196,a,0.9747782135382295,colour,0.5
064,75,0,2,11,50,550,1137.7013238861691,1138.8804780978244,"[15, 0, 239]",239,a,0.6460730929393321,colour,0.5
064,75,0,2,12,1,551,1148.4517375605647,1149.8644684660248,"[7, 0, 247]",247,a,0.8800703582819551,colour,0.5
064,75,0,2,12,2,552,1150.3684066333808,1151.472607665928,"[48, 0, 206]",206,a,0.5715626208111644,colour,0.5
064,75,0,2,12,3,553,1151.984642558964,1153.0565032050945,"[42, 0, 212]",212,a,0.5388048707973212,colour,0.5
064,75,0,2,12,4,554,1153.568411060376,1154.6325544896536,"[83, 0, 171]",171,l,0.5315249073319137,colour,0.5
064,75,0,2,12,5,555,1155.1350050973706,1156.5605876580812,"[2, 0, 252]",252,a,0.8929024445824325,colour,0.5
064,75,0,2,12,6,556,1157.0683831505012,1158.3525282095652,"[88, 0, 166]",166,l,0.7515137048903853,colour,0.5
064,75,0,2,12,7,557,1158.8680046682712,1160.0005732732825,"[50, 0, 204]",204,a,0.5995567797217518,colour,0.5
064,75,0,2,12,8,558,1160.5183928709012,1161.7845232847612,"[40, 0, 214]",214,a,0.733521515969187,colour,0.5
064,75,0,2,12,9,559,1162.3020708418917,1163.472673751181,"[95, 0, 159]",159,l,0.6383324575144798,colour,0.5
064,75,0,2,12,10,560,1163.9856774667278,1165.0885157317389,"[56, 0, 198]",198,a,0.5708626306150109,colour,0.5
064,75,0,2,12,11,561,1165.6024757584091,1166.680608728435,"[64, 0, 190]",190,a,0.5462853356730193,colour,0.5
064,75,0,2,12,12,562,1167.1853354275227,1168.9687230726704,"[13, 0, 241]",241,a,1.2510636197403073,colour,0.5
064,75,0,2,12,13,563,1169.4851208748296,1172.9445448555052,"[69, 0, 185]",185,a,2.926895604003221,colour,0.5
064,75,0,2,12,14,564,1173.4517821520567,1174.4085081864614,"[86, 0, 168]",168,l,0.42417038953863084,colour,0.5
064,75,0,2,12,15,565,1174.918337243842,1175.9045838136226,"[77, 0, 177]",177,l,0.45362227340228856,colour,0.5
064,75,0,2,12,16,566,1176.4183789480012,1177.3766531737056,"[90, 0, 164]",164,l,0.42569933272898197,colour,0.5
064,75,0,2,12,17,567,1177.8849802352488,1179.0486384192482,"[26, 0, 228]",228,a,0.6309341180603951,colour,0.5
064,75,0,2,12,18,568,1179.5513642751612,1180.7285157188307,"[23, 0, 231]",231,a,0.6442146860063076,colour,0.5
064,75,0,2,12,19,569,1181.2344123832881,1182.3925261436962,"[97, 0, 157]",157,l,0.6249226066283882,colour,0.5
064,75,0,2,12,20,570,1182.9012936665677,1184.4486280253623,"[61, 0, 193]",193,a,1.0143642376642674,colour,0.5
064,75,0,2,12,21,571,1184.9514103424735,1186.440622728318,"[45, 0, 209]",209,a,0.9563519791699946,colour,0.5
064,75,0,2,12,22,572,1186.951634903904,1190.72867355356,"[67, 0, 187]",187,a,3.244405370671302,colour,0.5
064,75,0,2,12,23,573,1191.2342853457667,1192.3926483693067,"[55, 0, 199]",199,a,0.6250493233092129,colour,0.5
064,75,0,2,12,24,574,1192.901179781882,1193.8805027995259,"[80, 0, 174]",174,l,0.4462473525200039,colour,0.5
064,75,0,2,12,25,575,1194.3840861597564,1195.4645173563622,"[19, 0, 235]",235,a,0.5469561330974102,colour,0.5
064,75,0,2,12,26,576,1195.9679255583324,1197.144536771113,"[33, 0, 221]",221,a,0.6436327507253736,colour,0.5
064,75,0,2,12,27,577,1197.6517211354803,1198.792637975188,"[32, 0, 222]",222,a,0.6083984079305083,colour,0.5
064,75,0,2,12,28,578,1199.3012005058117,1200.3846421097405,"[28, 0, 226]",226,a,0.5504076431971043,colour,0.5
064,75,0,2,12,29,579,1200.9022948902566,1201.8805364838336,"[70, 0, 184]",184,l,0.4463018891401589,colour,0.5
064,75,0,2,12,30,580,1202.384528225055,1203.5685502884444,"[29, 0, 225]",225,a,0.6509415863547474,colour,0.5
064,75,0,2,12,31,581,1204.0847716496792,1205.248571628239,"[14, 0, 240]",240,a,0.6309957120101899,colour,0.5
064,75,0,2,12,32,582,1205.7515101761092,1206.6645413523074,"[73, 0, 181]",181,l,0.38032475439831614,colour,0.5
064,75,0,2,12,33,583,1207.1690463770647,1208.2485183752142,"[96, 0, 158]",158,l,0.5476503488607705,colour,0.5
064,75,0,2,12,34,584,1208.7517527025193,1209.825182392029,"[16, 0, 238]",238,a,0.540969964582473,colour,0.5
064,75,0,2,12,35,585,1210.3349020557944,1211.712624142412,"[44, 0, 210]",210,a,0.8450621811207384,colour,0.5
064,75,0,2,12,36,586,1212.2183517441154,1213.2726369230077,"[47, 0, 207]",207,a,0.5217795793432742,colour,0.5
064,75,0,2,12,37,587,1213.7846432647202,1215.0246356809512,"[63, 0, 191]",191,a,0.7070996083784848,colour,0.5
064,75,0,2,12,38,588,1215.5349459415302,1216.3046237856615,"[82, 0, 172]",172,l,0.23711674567312002,colour,0.5
064,75,0,2,12,39,589,1216.8177952806,1217.8726004799828,"[91, 0, 163]",163,l,0.5217478200793266,colour,0.5
064,75,0,2,12,40,590,1218.3848615384195,1219.4565768612083,"[78, 0, 176]",176,l,0.5390733822714537,colour,0.5
064,75,0,2,12,41,591,1219.9682489270344,1221.104534987593,"[79, 0, 175]",175,l,0.6036421952303499,colour,0.5
064,75,0,2,12,42,592,1221.618008036632,1222.7286196588539,"[5, 0, 249]",249,a,0.5777759172488004,colour,0.5
064,75,0,2,12,43,593,1223.2348470701836,1224.3286906844005,"[60, 0, 194]",194,a,0.5611785757355392,colour,0.5
064,75,0,2,12,44,594,1224.834614296211,1225.664619948715,"[66, 0, 188]",188,a,0.2971115615218878,colour,0.5
064,75,0,2,12,45,595,1226.1681122011505,1227.3205336479004,"[11, 0, 243]",243,a,0.6196970602031797,colour,0.5
064,75,0,2,12,46,596,1227.8356893041637,1228.7605288871564,"[18, 0, 236]",236,a,0.39301408384926617,colour,0.5
064,75,0,2,12,47,597,1229.2680533018429,1230.128539650701,"[49, 0, 205]",205,a,0.3277125586755574,colour,0.5
064,75,0,2,12,48,598,1230.634410650935,1231.76853386336,"[34, 0, 220]",220,a,0.6010555673856288,colour,0.5
064,75,0,2,12,49,599,1232.285715385573,1233.2726311485749,"[9, 0, 245]",245,a,0.4551521788816899,colour,0.5
064,75,0,2,12,50,600,1233.784714161884,1234.7686615427956,"[39, 0, 215]",215,a,0.4511784026399255,colour,0.5
064,75,0,2,13,1,601,1249.3509575622156,1254.2485934428405,"[31, 0, 223]",223,a,4.3644456891343,colour,0.5
064,75,0,2,13,2,602,1254.7514665469062,1256.6565107118804,"[24, 0, 230]",230,a,1.372432379750535,colour,0.5
064,75,0,2,13,3,603,1257.1683329129592,1259.4245880739763,"[56, 0, 198]",198,a,1.7237232555635273,colour,0.5
064,75,0,2,13,4,604,1259.9343003593385,1261.0805428356398,"[26, 0, 228]",228,a,0.6131414680276066,colour,0.5
064,75,0,2,13,5,605,1261.5847315494902,1262.648561234353,"[16, 0, 238]",238,a,0.5311258295550942,colour,0.5
064,75,0,2,13,6,606,1263.1511465788353,1264.3126611628104,"[37, 0, 217]",217,a,0.6285993200726807,colour,0.5
064,75,0,2,13,7,607,1264.8184064086527,1265.536635285709,"[73, 0, 181]",181,l,0.18590998416766524,colour,0.5
064,75,0,2,13,8,608,1266.0511419593822,1267.104555518832,"[29, 0, 225]",225,a,0.5204941250849515,colour,0.5
064,75,0,2,13,9,609,1267.6189171900041,1268.9205472499598,"[34, 0, 220]",220,a,0.7698173930402845,colour,0.5
064,75,0,2,13,10,610,1269.4338538027368,1270.5526189324446,"[25, 0, 229]",229,a,0.5852422665338963,colour,0.5
064,75,0,2,13,11,611,1271.0680488748476,1272.1126506405417,"[28, 0, 226]",226,a,0.5119405770674348,colour,0.5
064,75,0,2,13,12,612,1272.6178450691514,1275.9527480874676,"[62, 0, 192]",192,a,2.8020480652339756,colour,0.5
064,75,0,2,13,13,613,1276.4677356434986,1277.3925527702086,"[98, 0, 156]",156,l,0.3918559879530221,colour,0.5
064,75,0,2,13,14,614,1277.9016452657524,1278.7605709121563,"[87, 0, 167]",167,l,0.32654868834652007,colour,0.5
064,75,0,2,13,15,615,1279.2679670059588,1280.2885515973903,"[40, 0, 214]",214,a,0.4878701495472342,colour,0.5
064,75,0,2,13,16,616,1280.801411272725,1281.7285503654275,"[58, 0, 196]",196,a,0.39452955313026905,colour,0.5
064,75,0,2,13,17,617,1282.2344091753475,1283.312581603881,"[97, 0, 157]",157,l,0.5452507485169917,colour,0.5
064,75,0,2,13,18,618,1283.8174109596293,1285.8645829923917,"[72, 0, 182]",182,l,1.513908377615735,colour,0.5
064,75,0,2,13,19,619,1286.3681445380207,1287.272590085864,"[74, 0, 180]",180,l,0.3719168505631387,colour,0.5
064,75,0,2,13,20,620,1287.7842133897357,1288.7846551344264,"[11, 0, 243]",243,a,0.4673243754077703,colour,0.5
064,75,0,2,13,21,621,1289.30172084691,1290.7765969049651,"[66, 0, 188]",188,l,0.9426059273537248,colour,0.5
064,75,0,2,13,22,622,1291.2846208084375,1292.4885804054793,"[81, 0, 173]",173,l,0.6712589496746659,colour,0.5
064,75,0,2,13,23,623,1293.001016301103,1293.9766112768557,"[5, 0, 249]",249,a,0.44262934592552483,colour,0.5
064,75,0,2,13,24,624,1294.4847843535244,1295.4325808596332,"[44, 0, 210]",210,a,0.4152703753206879,colour,0.5
064,75,0,2,13,25,625,1295.9345117679331,1297.6005531910341,"[46, 0, 208]",208,a,1.1332487056497484,colour,0.5
064,75,0,2,13,26,626,1298.1179544627666,1299.0405519593041,"[61, 0, 193]",193,a,0.38991898461245,colour,0.5
064,75,0,2,13,27,627,1299.5513905810658,1300.3127304562367,"[27, 0, 227]",227,a,0.22876466158777475,colour,0.5
064,75,0,2,13,28,628,1300.8176906991284,1302.2646781422663,"[39, 0, 215]",215,a,0.9140388157684356,colour,0.5
064,75,0,2,13,29,629,1302.767677642405,1303.8326474581845,"[99, 0, 155]",155,l,0.5320183010771871,colour,0.5
064,75,0,2,13,30,630,1304.3342899652198,1306.2245785139967,"[65, 0, 189]",189,a,1.3572841018904,colour,0.5
064,75,0,2,13,31,631,1306.7343633007258,1307.8805884537287,"[47, 0, 207]",207,a,0.6133037938270718,colour,0.5
064,75,0,2,13,32,632,1308.3846209368203,1309.488553778734,"[30, 0, 224]",224,a,0.5712726155761629,colour,0.5
064,75,0,2,13,33,633,1310.000783719588,1311.0086988711264,"[15, 0, 239]",239,a,0.4747660227585584,colour,0.5
064,75,0,2,13,34,634,1311.5181991064455,1312.3605976670515,"[75, 0, 179]",179,l,0.309988880995661,colour,0.5
064,75,0,2,13,35,635,1312.8675330891274,1313.9686788017862,"[68, 0, 186]",186,l,0.568068764405325,colour,0.5
064,75,0,2,13,36,636,1314.485423391452,1315.3286351854913,"[91, 0, 163]",163,l,0.31134844035841525,colour,0.5
064,75,0,2,13,37,637,1315.8342829076573,1316.6405700524338,"[17, 0, 237]",237,a,0.27331157005392015,colour,0.5
064,75,0,2,13,38,638,1317.1508485537488,1318.2087109975982,"[82, 0, 172]",172,l,0.5247931948397309,colour,0.5
064,75,0,2,13,39,639,1318.718255503336,1320.5765828536823,"[63, 0, 191]",191,a,1.3259943423327059,colour,0.5
064,75,0,2,13,40,640,1321.0844367323443,1322.1527380784974,"[59, 0, 195]",195,a,0.5354903428815305,colour,0.5
064,75,0,2,13,41,641,1322.667836632114,1323.9846820174716,"[36, 0, 218]",218,a,0.7841190740000457,colour,0.5
064,75,0,2,13,42,642,1324.5011728524696,1325.4886686259415,"[89, 0, 165]",165,l,0.4547736323438585,colour,0.5
064,75,0,2,13,43,643,1326.000849804841,1328.1446057436988,"[69, 0, 185]",185,l,1.610725827747956,colour,0.5
064,75,0,2,13,44,644,1328.6507333857007,1329.7367186301854,"[52, 0, 202]",202,a,0.5528450983110815,colour,0.5
064,75,0,2,13,45,645,1330.2512009227648,1331.264615264954,"[92, 0, 162]",162,l,0.48072813102044165,colour,0.5
064,75,0,2,13,46,646,1331.767610594863,1332.8565889233723,"[35, 0, 219]",219,a,0.5560447787865996,colour,0.5
064,75,0,2,13,47,647,1333.367933129426,1334.4966492212843,"[8, 0, 246]",246,a,0.596072226529941,colour,0.5
064,75,0,2,13,48,648,1335.001249524299,1336.0966666729655,"[80, 0, 174]",174,l,0.5627970227506012,colour,0.5
064,75,0,2,13,49,649,1336.600855386816,1337.6326988507062,"[33, 0, 221]",221,a,0.4988460745662451,colour,0.5
064,75,0,2,13,50,650,1338.1346714631654,1339.2407219202723,"[49, 0, 205]",205,a,0.5735198350157589,colour,0.5
064,75,0,2,14,1,651,1345.3678834049497,1349.8647607166786,"[60, 0, 194]",194,l,3.964243712136522,colour,0.5
064,75,0,2,14,2,652,1350.3678686481435,1351.3606781885028,"[21, 0, 233]",233,a,0.46015701349824667,colour,0.5
064,75,0,2,14,3,653,1351.8670916652773,1353.0406514080241,"[3, 0, 251]",251,a,0.6401626339647919,colour,0.5
064,75,0,2,14,4,654,1353.5508561246097,1354.5126200360246,"[13, 0, 241]",241,a,0.4288149632047862,colour,0.5
064,75,0,2,14,5,655,1355.017387156142,1356.072599453386,"[49, 0, 205]",205,a,0.5220994192641228,colour,0.5
064,75,0,2,14,6,656,1356.584471378941,1357.4727186635137,"[48, 0, 206]",206,a,0.35557133913971484,colour,0.5
064,75,0,2,14,7,657,1357.9837808844168,1358.928696587216,"[56, 0, 198]",198,a,0.4115465038921684,colour,0.5
064,75,0,2,14,8,658,1359.4344857828692,1360.4006661777385,"[40, 0, 214]",214,a,0.4335217725019902,colour,0.5
064,75,0,2,14,9,659,1360.918029594468,1361.8887804576661,"[26, 0, 228]",228,a,0.43829562957398593,colour,0.5
064,75,0,2,14,10,660,1362.4005478017498,1363.480713694822,"[68, 0, 186]",186,l,0.54686951613985,colour,0.5
064,75,0,2,14,11,661,1363.9851629000623,1364.9206762122922,"[71, 0, 183]",183,l,0.4035469810478389,colour,0.5
064,75,0,2,14,12,662,1365.4344129608944,1366.4246169461403,"[8, 0, 246]",246,a,0.4574905058834702,colour,0.5
064,75,0,2,14,13,663,1366.934150223853,1367.9846855464857,"[12, 0, 242]",242,a,0.5175741838756949,colour,0.5
064,75,0,2,14,14,664,1368.5011208825745,1369.5847860858776,"[11, 0, 243]",243,a,0.5509988816920668,colour,0.5
064,75,0,2,14,15,665,1370.1006032363512,1371.1446002901066,"[42, 0, 212]",212,a,0.510824506636709,colour,0.5
064,75,0,2,14,16,666,1371.6513493258972,1372.712776844157,"[35, 0, 219]",219,a,0.5290133473463356,colour,0.5
064,75,0,2,14,17,667,1373.2176353929099,1374.2246372208465,"[81, 0, 173]",173,l,0.47419852390885353,colour,0.5
064,75,0,2,14,18,668,1374.7347800226416,1375.760628656717,"[15, 0, 239]",239,a,0.4935335910413414,colour,0.5
064,75,0,2,14,19,669,1376.2672545043752,1377.2806165560614,"[5, 0, 249]",249,a,0.4801795594394207,colour,0.5
064,75,0,2,14,20,670,1377.7842291090637,1378.4006895963103,"[77, 0, 177]",177,l,0.08360008033923805,colour,0.5
064,75,0,2,14,21,671,1378.9169170525856,1379.9526313154493,"[92, 0, 162]",162,l,0.5021837002132088,colour,0.5
064,75,0,2,14,22,672,1380.4678261096124,1381.7605936892796,"[55, 0, 199]",199,a,0.760142320767045,colour,0.5
064,75,0,2,14,23,673,1382.2672403892502,1383.2567106997594,"[27, 0, 227]",227,a,0.45629230979830027,colour,0.5
064,75,0,2,14,24,674,1383.76774918125,1385.1846508355811,"[10, 0, 244]",244,a,0.8842472024261951,colour,0.5
064,75,0,2,14,25,675,1385.7009337907657,1387.616587524768,"[65, 0, 189]",189,a,1.3828667907509953,colour,0.5
064,75,0,2,14,26,676,1388.1340831120033,1389.104645664338,"[83, 0, 171]",171,l,0.4375969225075096,colour,0.5
064,75,0,2,14,27,677,1389.618600237416,1390.7366169358138,"[75, 0, 179]",179,l,0.5862181468401104,colour,0.5
064,75,0,2,14,28,678,1391.2505795289762,1392.2087899148464,"[36, 0, 218]",218,a,0.4250830716919154,colour,0.5
064,75,0,2,14,29,679,1392.7177210471127,1394.3847678641323,"[2, 0, 252]",252,a,1.1343862700741738,colour,0.5
064,75,0,2,14,30,680,1394.9017466392834,1396.8086844992358,"[66, 0, 188]",188,a,1.3749875689391047,colour,0.5
064,75,0,2,14,31,681,1397.3177542178892,1398.376651890343,"[22, 0, 232]",232,a,0.5262862080708146,colour,0.5
064,75,0,2,14,32,682,1398.8844544405583,1399.7607929073274,"[9, 0, 245]",245,a,0.34376100753434,colour,0.5
064,75,0,2,14,33,683,1400.2667354466394,1401.7606639447622,"[63, 0, 191]",191,a,0.960315810283646,colour,0.5
064,75,0,2,14,34,684,1402.2672766398173,1403.376623980701,"[43, 0, 211]",211,a,0.5762662221677601,colour,0.5
064,75,0,2,14,35,685,1403.8849452678114,1404.8886428335682,"[30, 0, 224]",224,a,0.4716266531031579,colour,0.5
064,75,0,2,14,36,686,1405.4018024588004,1407.4648243638221,"[58, 0, 196]",196,a,1.5311242253519595,colour,0.5
064,75,0,2,14,37,687,1407.9679781699087,1409.3687120368704,"[85, 0, 169]",169,l,0.868373911594972,colour,0.5
064,75,0,2,14,38,688,1409.8847823003307,1410.808642474236,"[88, 0, 166]",166,l,0.3916442587506026,colour,0.5
064,75,0,2,14,39,689,1411.3171074807178,1412.3926223842427,"[69, 0, 185]",185,a,0.5422858949750662,colour,0.5
064,75,0,2,14,40,690,1412.9012388095725,1413.8728064349853,"[57, 0, 197]",197,a,0.4391399808228016,colour,0.5
064,75,0,2,14,41,691,1414.3839366659522,1415.4087988331448,"[80, 0, 174]",174,l,0.4918089583516121,colour,0.5
064,75,0,2,14,42,692,1415.9179089728277,1416.9606635598466,"[74, 0, 180]",180,l,0.5103606265038252,colour,0.5
064,75,0,2,14,43,693,1417.4680574079975,1418.9846990201622,"[62, 0, 192]",192,a,0.9843884836882353,colour,0.5
064,75,0,2,14,44,694,1419.5006505865604,1420.616636928171,"[20, 0, 234]",234,a,0.5829931225162,colour,0.5
064,75,0,2,14,45,695,1421.1344100094866,1422.0167304740753,"[50, 0, 204]",204,a,0.34976161178201437,colour,0.5
064,75,0,2,14,46,696,1422.534111214336,1425.872686775634,"[73, 0, 181]",181,a,2.80572253302671,colour,0.5
064,75,0,2,14,47,697,1426.3842783202417,1427.480661724927,"[37, 0, 217]",217,a,0.5637167624663562,colour,0.5
064,75,0,2,14,48,698,1427.9839159420226,1428.8646660801023,"[79, 0, 175]",175,l,0.3476472047623247,colour,0.5
064,75,0,2,14,49,699,1429.366955324309,1430.2487702048384,"[78, 0, 176]",176,l,0.3485011802986264,colour,0.5
064,75,0,2,14,50,700,1430.7505285213701,1431.720763855381,"[6, 0, 248]",248,a,0.4371477991808206,colour,0.5
064,75,0,2,15,1,701,1437.3497304939665,1440.4807287724689,"[69, 0, 185]",185,a,2.597110021626577,colour,0.5
064,75,0,2,15,2,702,1440.9843958620913,1441.8567210938781,"[82, 0, 172]",172,l,0.3397840231191367,colour,0.5
064,75,0,2,15,3,703,1442.3675151241478,1443.3207437733654,"[30, 0, 224]",224,a,0.4204862976912409,colour,0.5
064,75,0,2,15,4,704,1443.8345485317986,1444.9686611576471,"[12, 0, 242]",242,a,0.6017542744521052,colour,0.5
064,75,0,2,15,5,705,1445.4838277213275,1446.5366282281466,"[27, 0, 227]",227,a,0.5197370322421193,colour,0.5
064,75,0,2,15,6,706,1447.0509472324047,1448.2727261059918,"[19, 0, 235]",235,a,0.6891462362837046,colour,0.5
064,75,0,2,15,7,707,1448.784214031417,1449.4727116057184,"[98, 0, 156]",156,l,0.15581906237639487,colour,0.5
064,75,0,2,15,8,708,1449.984451039927,1450.992764307186,"[92, 0, 162]",162,l,0.47586829913780093,colour,0.5
064,75,0,2,15,9,709,1451.5009322508704,1453.4807204317767,"[73, 0, 181]",181,a,1.4471600346732885,colour,0.5
064,75,0,2,15,10,710,1453.9841969646513,1455.2326434801798,"[64, 0, 190]",190,a,0.715751642594114,colour,0.5
064,75,0,2,15,11,711,1455.734132643789,1456.712635370437,"[95, 0, 159]",159,l,0.44575363816693425,colour,0.5
064,75,0,2,15,12,712,1457.2175885557663,1458.2807374983095,"[43, 0, 211]",211,a,0.530519834253937,colour,0.5
064,75,0,2,15,13,713,1458.78339309874,1459.7926270680036,"[42, 0, 212]",212,a,0.4757470360491425,colour,0.5
064,75,0,2,15,14,714,1460.3005460693967,1461.2487634678837,"[25, 0, 229]",229,a,0.4152289917692542,colour,0.5
064,75,0,2,15,15,715,1461.75084932358,1462.5286832416896,"[85, 0, 169]",169,l,0.24514834838919342,colour,0.5
064,75,0,2,15,16,716,1463.0341619011015,1464.0006980653852,"[39, 0, 215]",215,a,0.4338348754681647,colour,0.5
064,75,0,2,15,17,717,1464.517331336625,1465.488734069746,"[78, 0, 176]",176,l,0.43854938400909305,colour,0.5
064,75,0,2,15,18,718,1466.0008308775723,1466.9926902018487,"[87, 0, 167]",167,l,0.4591618850827217,colour,0.5
064,75,0,2,15,19,719,1467.5011179954745,1468.5286588608287,"[54, 0, 200]",200,a,0.49515011301264167,colour,0.5
064,75,0,2,15,20,720,1469.034173449967,1470.128641986521,"[6, 0, 248]",248,a,0.561798044713214,colour,0.5
064,75,0,2,15,21,721,1470.6337488361169,1471.9286423716694,"[66, 0, 188]",188,a,0.7618040759116411,colour,0.5
064,75,0,2,15,22,722,1472.433718103217,1473.3686437061988,"[35, 0, 219]",219,a,0.40180310071446,colour,0.5
064,75,0,2,15,23,723,1473.883514811052,1474.968662120169,"[49, 0, 205]",205,a,0.5518432329408824,colour,0.5
064,75,0,2,15,24,724,1475.4846813760232,1476.3608058677055,"[88, 0, 166]",166,l,0.3439826818648726,colour,0.5
064,75,0,2,15,25,725,1476.8671061012428,1478.0646409934852,"[99, 0, 155]",155,l,0.6644871369935572,colour,0.5
064,75,0,2,15,26,726,1478.5670585585758,1479.728671628749,"[15, 0, 239]",239,a,0.6285261772572994,colour,0.5
064,75,0,2,15,27,727,1480.2343847944867,1481.3607044941746,"[18, 0, 236]",236,a,0.5938920550979674,colour,0.5
064,75,0,2,15,28,728,1481.8678522871342,1482.9048058087938,"[56, 0, 198]",198,a,0.5046750500332564,colour,0.5
064,75,0,2,15,29,729,1483.4175105367322,1484.2727540158667,"[26, 0, 228]",228,a,0.32260185945779085,colour,0.5
064,75,0,2,15,30,730,1484.7841883671936,1485.9046515028458,"[34, 0, 220]",220,a,0.5878500672988594,colour,0.5
064,75,0,2,15,31,731,1486.4176728625316,1487.4967765798792,"[46, 0, 208]",208,a,0.5466295564547181,colour,0.5
064,75,0,2,15,32,732,1488.0006207521074,1489.0567980222404,"[38, 0, 216]",216,a,0.5233325827866793,colour,0.5
064,75,0,2,15,33,733,1489.5672086938284,1492.1046892933082,"[67, 0, 187]",187,a,2.004562448244542,colour,0.5
064,75,0,2,15,34,734,1492.6172743621282,1493.7527770237066,"[61, 0, 193]",193,a,0.6026592573616654,colour,0.5
064,75,0,2,15,35,735,1494.268126765499,1495.2966521726921,"[63, 0, 191]",191,a,0.49653341178782284,colour,0.5
064,75,0,2,15,36,736,1495.8003773274831,1496.8008476232644,"[50, 0, 204]",204,a,0.46740970853716135,colour,0.5
064,75,0,2,15,37,737,1497.3168986386154,1498.512827915838,"[29, 0, 225]",225,a,0.6627304241992533,colour,0.5
064,75,0,2,15,38,738,1499.017431747634,1501.5847678000573,"[68, 0, 186]",186,a,2.034671335015446,colour,0.5
064,75,0,2,15,39,739,1502.100467537064,1503.0086699989624,"[80, 0, 174]",174,l,0.37524902261793613,colour,0.5
064,75,0,2,15,40,740,1503.5170647499617,1504.2726500758436,"[3, 0, 251]",251,a,0.22257895418442786,colour,0.5
064,75,0,2,15,41,741,1504.7835942415986,1506.056791926967,"[5, 0, 249]",249,a,0.7400456694886088,colour,0.5
064,75,0,2,15,42,742,1506.567101225257,1508.024832974188,"[14, 0, 240]",240,a,0.9247382092289627,colour,0.5
064,75,0,2,15,43,743,1508.5341570889577,1509.4647098374553,"[75, 0, 179]",179,l,0.3979573242831975,colour,0.5
064,75,0,2,15,44,744,1509.9674623201136,1511.0726594433654,"[22, 0, 232]",232,a,0.572596566285938,colour,0.5
064,75,0,2,15,45,745,1511.5841091931798,1512.800738229882,"[16, 0, 238]",238,a,0.6840201388113201,colour,0.5
064,75,0,2,15,46,746,1513.317094327882,1514.3686725783627,"[40, 0, 214]",214,a,0.5186065253801644,colour,0.5
064,75,0,2,15,47,747,1514.883571593091,1515.7767823284958,"[72, 0, 182]",182,l,0.36008502542972565,colour,0.5
064,75,0,2,15,48,748,1516.2842319963966,1517.280721137533,"[65, 0, 189]",189,l,0.46400086488574743,colour,0.5
064,75,0,2,15,49,749,1517.7840709537268,1518.8087570006028,"[4, 0, 250]",250,a,0.4920482768211514,colour,0.5
064,75,0,2,15,50,750,1519.3171831900254,1520.544756071642,"[94, 0, 160]",160,l,0.6947076627984643,colour,0.5
064,75,0,2,16,1,751,1532.0331703014672,1533.4326703634579,"[38, 0, 216]",216,a,0.865997409215197,colour,0.5
064,75,0,2,16,2,752,1533.9514773900155,1535.0168597574811,"[0, 0, 254]",254,a,0.5335029736161232,colour,0.5
064,75,0,2,16,3,753,1535.5335193343926,1536.200815414777,"[90, 0, 164]",164,l,0.13415304687805474,colour,0.5
064,75,0,2,16,4,754,1536.7173428211827,1538.32087818929,"[63, 0, 191]",191,a,1.0708940690383315,colour,0.5
064,75,0,2,16,5,755,1538.8334732030053,1539.8007658189163,"[70, 0, 184]",184,a,0.4341194271109998,colour,0.5
064,75,0,2,16,6,756,1540.3174138469622,1541.2566882437095,"[62, 0, 192]",192,a,0.4066962960641831,colour,0.5
064,75,0,2,16,7,757,1541.7674505144823,1542.8007253976539,"[32, 0, 222]",222,a,0.5007484313100576,colour,0.5
064,75,0,2,16,8,758,1543.316982688848,1545.032714762492,"[69, 0, 185]",185,a,1.1827382133342326,colour,0.5
064,75,0,2,16,9,759,1545.5499213070143,1546.6087346086279,"[7, 0, 247]",247,a,0.5254197216127068,colour,0.5
064,75,0,2,16,10,760,1547.1168390335515,1548.0726972981356,"[76, 0, 178]",178,l,0.42273255437612534,colour,0.5
064,75,0,2,16,11,761,1548.5838669876102,1549.4008779071737,"[41, 0, 213]",213,a,0.28426118940114975,colour,0.5
064,75,0,2,16,12,762,1549.9181062662974,1551.0487163742073,"[43, 0, 211]",211,a,0.5987660023383796,colour,0.5
064,75,0,2,16,13,763,1551.551442550961,1552.3047873945907,"[85, 0, 169]",169,l,0.2214917556848377,colour,0.5
064,75,0,2,16,14,764,1552.8169589494355,1553.5928244255483,"[98, 0, 156]",156,l,0.2428475555498153,colour,0.5
064,75,0,2,16,15,765,1554.1001653412823,1554.7927207422908,"[8, 0, 246]",246,a,0.15943097393028438,colour,0.5
064,75,0,2,16,16,766,1555.299873668002,1556.4407699764706,"[42, 0, 212]",212,a,0.6074889339506626,colour,0.5
064,75,0,2,16,17,767,1556.9501329082996,1557.7768224289175,"[77, 0, 177]",177,l,0.29352563503198326,colour,0.5
064,75,0,2,16,18,768,1558.283921139082,1559.280692265369,"[44, 0, 210]",210,a,0.46408427343703806,colour,0.5
064,75,0,2,16,19,769,1559.7842858911026,1560.5048075411469,"[95, 0, 159]",159,l,0.18815848673693836,colour,0.5
064,75,0,2,16,20,770,1561.017391647445,1562.1607834757306,"[13, 0, 241]",241,a,0.6108223891351372,colour,0.5
064,75,0,2,16,21,771,1562.6679755393416,1563.8567056953907,"[34, 0, 220]",220,a,0.6567872434388846,colour,0.5
064,75,0,2,16,22,772,1564.3683055806905,1565.4167758997064,"[40, 0, 214]",214,a,0.5168504542671144,colour,0.5
064,75,0,2,16,23,773,1565.934472950874,1566.9607033394277,"[54, 0, 200]",200,a,0.4941152052488178,colour,0.5
064,75,0,2,16,24,774,1567.4669259388465,1568.1928216665983,"[78, 0, 176]",176,l,0.19291534088551998,colour,0.5
064,75,0,2,16,25,775,1568.7004298106767,1569.7608160050586,"[19, 0, 235]",235,a,0.5275886647868901,colour,0.5
064,75,0,2,16,26,776,1570.2679121489637,1571.3607182886917,"[57, 0, 197]",197,a,0.5608195981476456,colour,0.5
064,75,0,2,16,27,777,1571.8666839257348,1574.2968180275057,"[67, 0, 187]",187,a,1.8969166420865804,colour,0.5
064,75,0,2,16,28,778,1574.7999612470157,1576.1527810657863,"[29, 0, 225]",225,a,0.8195497477427125,colour,0.5
064,75,0,2,16,29,779,1576.6673964913934,1577.7927130430471,"[14, 0, 240]",240,a,0.5928010072093457,colour,0.5
064,75,0,2,16,30,780,1578.3001319137402,1579.4166838293895,"[86, 0, 168]",168,l,0.5834614937193692,colour,0.5
064,75,0,2,16,31,781,1579.9334438175429,1581.0166890905239,"[92, 0, 162]",162,l,0.5501227709464729,colour,0.5
064,75,0,2,16,32,782,1581.5345151042566,1582.5688050054014,"[82, 0, 172]",172,l,0.5022648631129414,colour,0.5
064,75,0,2,16,33,783,1583.083568641683,1584.0888108697254,"[88, 0, 166]",166,l,0.4722695406526327,colour,0.5
064,75,0,2,16,34,784,1584.6001714365557,1585.8408846952952,"[26, 0, 228]",228,a,0.7076632578391582,colour,0.5
064,75,0,2,16,35,785,1586.3502781032585,1587.386306752218,"[91, 0, 163]",163,l,0.5031101768836379,colour,0.5
064,75,0,2,16,36,786,1587.9006491750479,1588.9368282803334,"[30, 0, 224]",224,a,0.5036340469960123,colour,0.5
064,75,0,2,16,37,787,1589.4509352343157,1590.5767175906803,"[2, 0, 252]",252,a,0.593513508560136,colour,0.5
064,75,0,2,16,38,788,1591.0841736744624,1592.2649290096015,"[21, 0, 233]",233,a,0.6483896053396165,colour,0.5
064,75,0,2,16,39,789,1592.7671018026303,1594.1767847666051,"[31, 0, 223]",223,a,0.876928101060912,colour,0.5
064,75,0,2,16,40,790,1594.6843916275539,1595.9368613229599,"[22, 0, 232]",232,a,0.7203670234885067,colour,0.5
064,75,0,2,16,41,791,1596.4501544020604,1597.5928327664733,"[51, 0, 203]",203,a,0.6096768048591912,colour,0.5
064,75,0,2,16,42,792,1598.100467857672,1598.992784838425,"[74, 0, 180]",180,l,0.35962178697809577,colour,0.5
064,75,0,2,16,43,793,1599.5005751980934,1603.2327894452028,"[66, 0, 188]",188,a,3.199631654890254,colour,0.5
064,75,0,2,16,44,794,1603.7507367220242,1604.7527507180348,"[28, 0, 226]",226,a,0.4696104114409536,colour,0.5
064,75,0,2,16,45,795,1605.266827837564,1606.2167432419956,"[39, 0, 215]",215,a,0.4169363009277731,colour,0.5
064,75,0,2,16,46,796,1606.7337954808027,1607.6967495682184,"[5, 0, 249]",249,a,0.430239966372028,colour,0.5
064,75,0,2,16,47,797,1608.2001795850229,1610.7287428467534,"[65, 0, 189]",189,a,1.9956309953704476,colour,0.5
064,75,0,2,16,48,798,1611.2334926435724,1611.9847558019683,"[96, 0, 158]",158,l,0.2182898293249309,colour,0.5
064,75,0,2,16,49,799,1612.5001462856308,1613.752711580135,"[94, 0, 160]",160,l,0.719587474130094,colour,0.5
064,75,0,2,16,50,800,1614.2670084491838,1615.2328314704355,"[4, 0, 250]",250,a,0.43305789260193706,colour,0.5
