id,age,condition,counterbalance,block,trialinblock,trial,tstart,tend,trialstim,trialintensity,response,RT,trialtype,colourfreq
019,65,0,1,Practice,1,NA,5.907844752073288e-06,5.035261053126305,"[3, 0, 251]",251,a,3.8994896539952606,colour,0.5
019,65,0,1,Practice,2,NA,5.5443655964918435,8.131265404401347,"[93, 0, 161]",161,l,2.0695099213626236,colour,0.5
019,65,0,1,Practice,3,NA,8.6400304522831,10.691355705494061,"[30, 0, 224]",224,a,1.5346324746496975,colour,0.5
019,65,0,1,Practice,4,NA,11.19945515319705,12.059251408558339,"[53, 0, 201]",201,a,0.34250404266640544,colour,0.5
019,65,0,1,Practice,5,NA,12.56746625341475,13.779484707396477,"[44, 0, 210]",210,a,0.6964831894729286,colour,0.5
019,65,0,1,Practice,6,NA,14.290144155733287,15.635351952863857,"[68, 0, 186]",186,l,0.8276670675259084,colour,0.5
019,65,0,1,Practice,7,NA,16.144096914678812,16.76329802116379,"[71, 0, 183]",183,l,0.10209794016554952,colour,0.5
019,65,0,1,Practice,8,NA,17.272430527489632,17.907313015544787,"[61, 0, 193]",193,l,0.11855795560404658,colour,0.5
019,65,0,1,Practice,9,NA,18.41610326967202,18.947429405059665,"[21, 0, 233]",233,a,0.012253343826159835,colour,0.5
019,65,0,1,Practice,10,NA,19.457225542515516,20.23541685868986,"[24, 0, 230]",230,a,0.2612736513838172,colour,0.5
019,65,0,1,1,1,1,4.459400755120441,5.920252833515406,"[96, 0, 158]",158,l,0.9440155457705259,colour,0.5
019,65,0,1,1,2,2,6.431106841890141,7.135962414555252,"[39, 0, 215]",215,a,0.18665987672284245,colour,0.5
019,65,0,1,1,3,3,7.645296964095905,10.383933121804148,"[31, 0, 223]",223,a,2.222974468488246,colour,0.5
019,65,0,1,1,4,4,10.892101886449382,13.911963945720345,"[90, 0, 164]",164,l,2.5027947328053415,colour,0.5
019,65,0,1,1,5,5,14.420767590636387,15.583902244223282,"[22, 0, 232]",232,a,0.6471452843397856,colour,0.5
019,65,0,1,1,6,6,16.091998541262,17.127897625323385,"[54, 0, 200]",200,a,0.5188616898376495,colour,0.5
019,65,0,1,1,7,7,17.635765491519123,18.168140045600012,"[88, 0, 166]",166,l,0.016348557081073523,colour,0.5
019,65,0,1,1,8,8,18.676550237927586,20.696071620332077,"[53, 0, 201]",201,a,1.5014651080127805,colour,0.5
019,65,0,1,1,9,9,21.214679279364645,21.81591863464564,"[17, 0, 237]",237,a,0.0835867733694613,colour,0.5
019,65,0,1,1,10,10,22.324914870318025,22.976028942968696,"[40, 0, 214]",214,a,0.1324433982372284,colour,0.5
019,65,0,1,1,11,11,23.485361523460597,24.063957871170714,"[68, 0, 186]",186,l,0.061554227489978075,colour,0.5
019,65,0,1,1,12,12,24.57232946669683,26.783967859111726,"[42, 0, 212]",212,a,1.6947593244258314,colour,0.5
019,65,0,1,1,13,13,27.292743146885186,27.927963555091992,"[33, 0, 221]",221,a,0.11812630016356707,colour,0.5
019,65,0,1,1,14,14,28.445690574124455,30.207875191699713,"[93, 0, 161]",161,l,1.241740059806034,colour,0.5
019,65,0,1,1,15,15,30.717513790586963,31.399955574190244,"[74, 0, 180]",180,l,0.16555956494994462,colour,0.5
019,65,0,1,1,16,16,31.909953754628077,32.599929028889164,"[89, 0, 165]",165,l,0.17185047059319913,colour,0.5
019,65,0,1,1,17,17,33.109219861682504,35.73598360340111,"[85, 0, 169]",169,l,2.1094530182890594,colour,0.5
019,65,0,1,1,18,18,36.24507751292549,36.79194560833275,"[67, 0, 187]",187,l,0.03030252899043262,colour,0.5
019,65,0,1,1,19,19,37.30058580706827,37.87998678255826,"[82, 0, 172]",172,l,0.06251678755506873,colour,0.5
019,65,0,1,1,20,20,38.38940010149963,40.199988027103245,"[23, 0, 231]",231,a,1.293587947031483,colour,0.5
019,65,0,1,1,21,21,40.708582933526486,43.33600361086428,"[87, 0, 167]",167,l,2.1099520216230303,colour,0.5
019,65,0,1,1,22,22,43.890912864822894,44.80823115003295,"[41, 0, 213]",213,a,0.4002919187769294,colour,0.5
019,65,0,1,1,23,23,45.31714310264215,46.07207858655602,"[63, 0, 191]",191,l,0.2372490311972797,colour,0.5
019,65,0,1,1,24,24,46.58180855773389,47.27202525991015,"[92, 0, 162]",162,l,0.17324074800126255,colour,0.5
019,65,0,1,1,25,25,47.780432695290074,48.38401228492148,"[32, 0, 222]",222,a,0.08709121705032885,colour,0.5
019,65,0,1,1,26,26,48.89306247746572,50.647999142995104,"[48, 0, 206]",206,a,1.237501880619675,colour,0.5
019,65,0,1,1,27,27,51.156535760033876,52.97594977985136,"[72, 0, 182]",182,l,1.3030662504024804,colour,0.5
019,65,0,1,1,28,28,53.48377983691171,54.455992803676054,"[7, 0, 247]",247,a,0.4557840651832521,colour,0.5
019,65,0,1,1,29,29,54.96521038096398,55.92791668744758,"[50, 0, 204]",204,a,0.4448296260088682,colour,0.5
019,65,0,1,1,30,30,56.43707361235283,57.15197738376446,"[65, 0, 189]",189,l,0.19659622316248715,colour,0.5
019,65,0,1,1,31,31,57.660931478021666,58.471906948368996,"[61, 0, 193]",193,a,0.29378211311995983,colour,0.5
019,65,0,1,1,32,32,58.98098707315512,61.28789647528902,"[2, 0, 252]",252,a,1.7887672691140324,colour,0.5
019,65,0,1,1,33,33,61.79693564004265,62.34400735399686,"[43, 0, 211]",211,a,0.02959242439828813,colour,0.5
019,65,0,1,1,34,34,62.853231626562774,63.43995577911846,"[66, 0, 188]",188,l,0.0703964694403112,colour,0.5
019,65,0,1,1,35,35,63.9494978855364,64.55200109351426,"[81, 0, 173]",173,l,0.08460565377026796,colour,0.5
019,65,0,1,1,36,36,65.06179920001887,65.62390323681757,"[46, 0, 208]",208,a,0.044252956518903375,colour,0.5
019,65,0,1,1,37,37,66.13307315856218,66.74391133431345,"[18, 0, 236]",236,a,0.0927791444119066,colour,0.5
019,65,0,1,1,38,38,67.25261769909412,68.0159279294312,"[16, 0, 238]",238,a,0.24558872543275356,colour,0.5
019,65,0,1,1,39,39,68.52453110646456,69.16791831003502,"[98, 0, 156]",156,l,0.12653806805610657,colour,0.5
019,65,0,1,1,40,40,69.67695432412438,70.20793072413653,"[19, 0, 235]",235,a,0.013268679613247514,colour,0.5
019,65,0,1,1,41,41,70.71774379676208,71.55189987481572,"[20, 0, 234]",234,a,0.3178662040736526,colour,0.5
019,65,0,1,1,42,42,72.06090438133106,72.70395366498269,"[9, 0, 245]",245,a,0.125679089454934,colour,0.5
019,65,0,1,1,43,43,73.21364385751076,74.01589484629221,"[76, 0, 178]",178,l,0.2829808802343905,colour,0.5
019,65,0,1,1,44,44,74.52498009125702,75.23198370123282,"[94, 0, 160]",160,l,0.1898275821004063,colour,0.5
019,65,0,1,1,45,45,75.74119930923916,76.50397548405454,"[28, 0, 226]",226,a,0.24456669436767697,colour,0.5
019,65,0,1,1,46,46,77.0131091719959,77.70393397263251,"[15, 0, 239]",239,a,0.1719642924144864,colour,0.5
019,65,0,1,1,47,47,78.21350246667862,78.73592885886319,"[8, 0, 246]",246,a,0.005509908776730299,colour,0.5
019,65,0,1,1,48,48,79.24673757492565,79.91996847675182,"[35, 0, 219]",219,a,0.1556058891583234,colour,0.5
019,65,0,1,1,49,49,80.42881189985201,81.00793166924268,"[29, 0, 225]",225,a,0.06290748296305537,colour,0.5
019,65,0,1,1,50,50,81.51753521594219,82.06389485578984,"[51, 0, 203]",203,a,0.028495562495663762,colour,0.5
019,65,0,1,2,1,51,87.17326201568358,88.16793839633465,"[5, 0, 249]",249,a,0.477328241802752,colour,0.5
019,65,0,1,2,2,52,88.67692714883015,90.28788465983234,"[86, 0, 168]",168,l,1.0935774706304073,colour,0.5
019,65,0,1,2,3,53,90.79735429864377,91.38398117106408,"[71, 0, 183]",183,l,0.06817241944372654,colour,0.5
019,65,0,1,2,4,54,91.89400573913008,93.5199676102493,"[37, 0, 217]",217,a,1.108884304529056,colour,0.5
019,65,0,1,2,5,55,94.0292962519452,95.04790233564563,"[49, 0, 205]",205,a,0.4978216364979744,colour,0.5
019,65,0,1,2,6,56,95.55748737137765,96.92000943655148,"[88, 0, 166]",166,l,0.8460455080494285,colour,0.5
019,65,0,1,2,7,57,97.4290482075885,98.015948015498,"[72, 0, 182]",182,l,0.068042844068259,colour,0.5
019,65,0,1,2,8,58,98.52559291594662,99.0959204621613,"[22, 0, 232]",232,a,0.05422199238091707,colour,0.5
019,65,0,1,2,9,59,99.60553858079948,100.13610735000111,"[2, 0, 252]",252,a,0.012321479385718703,colour,0.5
019,65,0,1,2,10,60,100.64724532142282,101.19201382249594,"[4, 0, 250]",250,a,0.027729531517252326,colour,0.5
019,65,0,1,2,11,61,101.7018800645601,102.4480004820507,"[0, 0, 254]",254,a,0.22948750364594162,colour,0.5
019,65,0,1,2,12,62,102.9570443732664,103.49640379007906,"[1, 0, 253]",253,a,0.02123697637580335,colour,0.5
019,65,0,1,2,13,63,104.00611643213779,105.43192407279275,"[70, 0, 184]",184,l,0.9080152434762567,colour,0.5
019,65,0,1,2,14,64,105.94179661641829,106.78397534205578,"[42, 0, 212]",212,a,0.32290901127271354,colour,0.5
019,65,0,1,2,15,65,107.29271478997543,108.23192856274545,"[91, 0, 163]",163,l,0.42238984326831996,colour,0.5
019,65,0,1,2,16,66,108.74104452761821,109.53594870865345,"[74, 0, 180]",180,l,0.2775544668547809,colour,0.5
019,65,0,1,2,17,67,110.0457984090317,110.74391842354089,"[94, 0, 160]",160,l,0.1797707185614854,colour,0.5
019,65,0,1,2,18,68,111.25526789040305,112.24790099659003,"[19, 0, 235]",235,a,0.473171588499099,colour,0.5
019,65,0,1,2,19,69,112.75776881398633,113.36009715404361,"[87, 0, 167]",167,l,0.08258876693435013,colour,0.5
019,65,0,1,2,20,70,113.87078810995445,114.663921558531,"[10, 0, 244]",244,a,0.2748066019266844,colour,0.5
019,65,0,1,2,21,71,115.17425687122159,115.87190072564408,"[57, 0, 197]",197,l,0.17819297057576478,colour,0.5
019,65,0,1,2,22,72,116.38116123201326,117.1839659686666,"[82, 0, 172]",172,l,0.28630809346213937,colour,0.5
019,65,0,1,2,23,73,117.69462147844024,118.4079325357452,"[46, 0, 208]",208,a,0.19120052992366254,colour,0.5
019,65,0,1,2,24,74,118.91692916536704,119.74392551276833,"[69, 0, 185]",185,l,0.3101318518165499,colour,0.5
019,65,0,1,2,25,75,120.25298909610137,121.1200403929688,"[33, 0, 221]",221,a,0.35017301654443145,colour,0.5
019,65,0,1,2,26,76,121.62890075170435,122.47994731925428,"[17, 0, 237]",237,a,0.33468658896163106,colour,0.5
019,65,0,1,2,27,77,122.98922082269564,123.7520702527836,"[20, 0, 234]",234,a,0.24696994409896433,colour,0.5
019,65,0,1,2,28,78,124.26009998982772,125.1199836791493,"[41, 0, 213]",213,a,0.3421854213811457,colour,0.5
019,65,0,1,2,29,79,125.62901575467549,126.22389252413996,"[68, 0, 186]",186,l,0.07703041518107057,colour,0.5
019,65,0,1,2,30,80,134.6441445699893,135.5279130639974,"[79, 0, 175]",175,l,0.3492380257230252,colour,0.5
019,65,0,1,2,31,81,136.03725115815178,136.9839641568251,"[52, 0, 202]",202,a,0.4297315306030214,colour,0.5
019,65,0,1,2,32,82,137.493150226539,138.3919352896046,"[73, 0, 181]",181,l,0.38328918325714767,colour,0.5
019,65,0,1,2,33,83,138.90120367286727,139.85601021163166,"[47, 0, 207]",207,a,0.43725793226622045,colour,0.5
019,65,0,1,2,34,84,140.36494303820655,141.3200268447399,"[40, 0, 214]",214,a,0.43795031402260065,colour,0.5
019,65,0,1,2,35,85,141.82925229868852,142.77599050360732,"[77, 0, 177]",177,l,0.4270777949132025,colour,0.5
019,65,0,1,2,36,86,143.2839721913915,144.32801601546817,"[31, 0, 223]",223,a,0.5268662206362933,colour,0.5
019,65,0,1,2,37,87,144.83656011568382,145.52794260252267,"[98, 0, 156]",156,l,0.17454595444723964,colour,0.5
019,65,0,1,2,38,88,146.0367328566499,147.0239277340006,"[63, 0, 191]",191,a,0.4713677729014307,colour,0.5
019,65,0,1,2,39,89,147.5330275511369,148.42404084675945,"[58, 0, 196]",196,a,0.3732106580864638,colour,0.5
019,65,0,1,2,40,90,148.9328649714589,149.72005370492116,"[65, 0, 189]",189,a,0.26968975155614316,colour,0.5
019,65,0,1,2,41,91,150.22934335609898,151.07992085278966,"[76, 0, 178]",178,a,0.33103799750097096,colour,0.5
019,65,0,1,2,42,92,151.59010611008853,152.48801210848615,"[90, 0, 164]",164,l,0.38056297949515283,colour,0.5
019,65,0,1,2,43,93,152.99637819011696,153.98398148617707,"[80, 0, 174]",174,l,0.46895585861057043,colour,0.5
019,65,0,1,2,44,94,154.49288634955883,155.47202982846648,"[8, 0, 246]",246,a,0.4617441401351243,colour,0.5
019,65,0,1,2,45,95,155.9808622240089,156.87994345952757,"[3, 0, 251]",251,a,0.3820513244718313,colour,0.5
019,65,0,1,2,46,96,157.38959466153756,158.34398293541744,"[66, 0, 188]",188,l,0.43734694132581353,colour,0.5
019,65,0,1,2,47,97,158.85277358349413,159.48002136219293,"[26, 0, 228]",228,a,0.10897291987203062,colour,0.5
019,65,0,1,2,48,98,159.98982498259284,161.00800334941596,"[34, 0, 220]",220,a,0.5010570832528174,colour,0.5
019,65,0,1,2,49,99,161.51712876651436,162.42405699426308,"[15, 0, 239]",239,a,0.3892721012234688,colour,0.5
019,65,0,1,2,50,100,162.93247545766644,163.82411142392084,"[43, 0, 211]",211,a,0.37516767997294664,colour,0.5
019,65,0,1,3,1,101,168.67629699478857,169.65597964916378,"[3, 0, 251]",251,a,0.4612348969094455,colour,0.5
019,65,0,1,3,2,102,170.1647998355329,171.10397973749787,"[60, 0, 194]",194,l,0.4224615232087672,colour,0.5
019,65,0,1,3,3,103,172.24103507515974,173.3361146755051,"[95, 0, 159]",159,l,0.575599571922794,colour,0.5
019,65,0,1,3,4,104,173.84482537256554,174.84804388391785,"[20, 0, 234]",234,a,0.4860223971772939,colour,0.5
019,65,0,1,3,5,105,175.3570019165054,176.3201154600829,"[5, 0, 249]",249,a,0.4467519896570593,colour,0.5
019,65,0,1,3,6,106,176.82967253262177,177.80008168378845,"[23, 0, 231]",231,a,0.45156006421893835,colour,0.5
019,65,0,1,3,7,107,178.309692713432,179.34408376016654,"[65, 0, 189]",189,l,0.516619129339233,colour,0.5
019,65,0,1,3,8,108,179.8525112818461,180.80801453464665,"[26, 0, 228]",228,a,0.43816299084573984,colour,0.5
019,65,0,1,3,9,109,181.3162100808695,182.2962101753801,"[39, 0, 215]",215,a,0.46334551903419197,colour,0.5
019,65,0,1,3,10,110,182.80579442344606,183.77592630684376,"[35, 0, 219]",219,a,0.4524552768561989,colour,0.5
019,65,0,1,3,11,111,184.28497059154324,185.25604416127317,"[4, 0, 250]",250,a,0.45457732025533915,colour,0.5
019,65,0,1,3,12,112,185.76514476607554,186.82395388535224,"[63, 0, 191]",191,l,0.5409316511359066,colour,0.5
019,65,0,1,3,13,113,187.33348141959868,188.62420059065334,"[97, 0, 157]",157,l,0.7730551676359028,colour,0.5
019,65,0,1,3,14,114,189.13298611855134,189.88800864270888,"[78, 0, 176]",176,l,0.23837306862697005,colour,0.5
019,65,0,1,3,15,115,190.39748891536146,191.31203097850084,"[41, 0, 213]",213,a,0.39793356764130294,colour,0.5
019,65,0,1,3,16,116,191.82059004483745,192.78407695447095,"[12, 0, 242]",242,a,0.44564606924541295,colour,0.5
019,65,0,1,3,17,117,193.29250132548623,194.24817747669294,"[91, 0, 163]",163,l,0.43638674449175596,colour,0.5
019,65,0,1,3,18,118,194.75816738628782,195.66400072164834,"[17, 0, 237]",237,a,0.3879747719038278,colour,0.5
019,65,0,1,3,19,119,196.17265628022142,197.0799102189485,"[16, 0, 238]",238,a,0.3905517077073455,colour,0.5
019,65,0,1,3,20,120,197.58826172817498,198.5519494996406,"[7, 0, 247]",247,a,0.44582172483205795,colour,0.5
019,65,0,1,3,21,121,199.06094297813252,200.0239320662804,"[22, 0, 232]",232,a,0.44592530629597604,colour,0.5
019,65,0,1,3,22,122,200.53302636975423,201.50392940384336,"[45, 0, 209]",209,a,0.45366517221555114,colour,0.5
019,65,0,1,3,23,123,202.01249752868898,203.03993600793183,"[56, 0, 198]",198,a,0.5086634354665875,colour,0.5
019,65,0,1,3,24,124,203.54930127738044,204.2560224996414,"[8, 0, 246]",246,a,0.18955582799389958,colour,0.5
019,65,0,1,3,25,125,204.76518612005748,205.3519216941204,"[96, 0, 158]",158,l,0.06976513378322124,colour,0.5
019,65,0,1,3,26,126,205.8609561326448,206.87197713181376,"[88, 0, 166]",166,l,0.4944554327521473,colour,0.5
019,65,0,1,3,27,127,207.381140751997,208.1679569070693,"[75, 0, 179]",179,l,0.2689611359965056,colour,0.5
019,65,0,1,3,28,128,208.67705987486988,209.60791819985025,"[69, 0, 185]",185,l,0.41466770018450916,colour,0.5
019,65,0,1,3,29,129,210.11726810922846,211.48802116699517,"[52, 0, 202]",202,a,0.853422641986981,colour,0.5
019,65,0,1,3,30,130,211.99717494100332,212.68796744639985,"[67, 0, 187]",187,l,0.17369327740743756,colour,0.5
019,65,0,1,3,31,131,213.19764464208856,213.8159658962395,"[0, 0, 254]",254,a,0.10080297384411097,colour,0.5
019,65,0,1,3,32,132,214.32451511640102,215.25596696743742,"[54, 0, 200]",200,a,0.41351609374396503,colour,0.5
019,65,0,1,3,33,133,215.7640695660375,216.5999979521148,"[82, 0, 172]",172,l,0.3188488504383713,colour,0.5
019,65,0,1,3,34,134,217.10835024900734,217.83196274843067,"[46, 0, 208]",208,a,0.2059083234053105,colour,0.5
019,65,0,1,3,35,135,218.34094913792796,219.2159391932655,"[61, 0, 193]",193,a,0.3575985934585333,colour,0.5
019,65,0,1,3,36,136,219.72497835825197,220.43205601139925,"[62, 0, 192]",192,l,0.1908070775680244,colour,0.5
019,65,0,1,3,37,137,220.940925428411,221.67193396622315,"[43, 0, 211]",211,a,0.21400895295664668,colour,0.5
019,65,0,1,3,38,138,222.1816316419281,222.89597339509055,"[9, 0, 245]",245,a,0.19719959585927427,colour,0.5
019,65,0,1,3,39,139,223.40464785834774,224.39199791103601,"[21, 0, 233]",233,a,0.4682524490635842,colour,0.5
019,65,0,1,3,40,140,224.90109930373728,225.8879212087486,"[19, 0, 235]",235,a,0.47020828956738114,colour,0.5
019,65,0,1,3,41,141,226.39701039204374,227.1119886005763,"[29, 0, 225]",225,a,0.1968549801968038,colour,0.5
019,65,0,1,3,42,142,227.6216622516513,228.25599020440131,"[59, 0, 195]",195,l,0.11823933408595622,colour,0.5
019,65,0,1,3,43,143,228.76465718448162,229.44797566975467,"[58, 0, 196]",196,l,0.16690533747896552,colour,0.5
019,65,0,1,3,44,144,229.95783088402823,230.7199686341919,"[33, 0, 221]",221,a,0.24367069406434894,colour,0.5
019,65,0,1,3,45,145,231.2292504082434,231.93593067047186,"[64, 0, 190]",190,l,0.18966216640546918,colour,0.5
019,65,0,1,3,46,146,232.44476897385903,233.0879876113031,"[31, 0, 223]",223,a,0.12475118762813509,colour,0.5
019,65,0,1,3,47,147,233.59657188365236,234.3039598877076,"[55, 0, 199]",199,l,0.18832505866885185,colour,0.5
019,65,0,1,3,48,148,234.8128753846977,236.76792886527255,"[84, 0, 170]",170,l,1.4363067937083542,colour,0.5
019,65,0,1,3,49,149,237.2773835377302,238.51202215626836,"[57, 0, 197]",197,l,0.7180478458758444,colour,0.5
019,65,0,1,3,50,150,239.02112945658155,240.00790922017768,"[90, 0, 164]",164,l,0.4686210893560201,colour,0.5
019,65,0,1,4,1,151,245.02007434261031,246.32005835231394,"[30, 0, 224]",224,a,0.7826740741729736,colour,0.5
019,65,0,1,4,2,152,246.82937714806758,247.35196580481716,"[85, 0, 169]",169,l,0.004960887134075165,colour,0.5
019,65,0,1,4,3,153,247.86241139448248,248.89601986878552,"[77, 0, 177]",177,l,0.513816125690937,colour,0.5
019,65,0,1,4,4,154,249.40563641232438,250.33593311230652,"[46, 0, 208]",208,l,0.4125728318467736,colour,0.5
019,65,0,1,4,5,155,250.84497660957277,251.44805837748572,"[5, 0, 249]",249,a,0.0862964354455471,colour,0.5
019,65,0,1,4,6,156,251.95738820102997,252.7119424417615,"[97, 0, 157]",157,l,0.2358126740437001,colour,0.5
019,65,0,1,4,7,157,253.22256014239974,254.43994711432606,"[58, 0, 196]",196,a,0.6978998542763293,colour,0.5
019,65,0,1,4,8,158,254.94887875928544,255.78406474529766,"[90, 0, 164]",164,l,0.3172549547161907,colour,0.5
019,65,0,1,4,9,159,256.2932748394087,257.26393920276314,"[25, 0, 229]",229,a,0.453590341610834,colour,0.5
019,65,0,1,4,10,160,257.7733489770908,258.74403775902465,"[28, 0, 226]",226,a,0.45152855664491653,colour,0.5
019,65,0,1,4,11,161,259.25209979130886,260.6159246999305,"[9, 0, 245]",245,a,0.847092745359987,colour,0.5
019,65,0,1,4,12,162,261.12535062176175,262.0719671281986,"[74, 0, 180]",180,l,0.42959329090081155,colour,0.5
019,65,0,1,4,13,163,262.5821338747628,263.7119479556568,"[93, 0, 161]",161,l,0.6107172649353743,colour,0.5
019,65,0,1,4,14,164,264.22054089279845,265.2159911810886,"[43, 0, 211]",211,a,0.479237214429304,colour,0.5
019,65,0,1,4,15,165,265.7248535088729,266.6483819615096,"[55, 0, 199]",199,l,0.40335092251189053,colour,0.5
019,65,0,1,4,16,166,267.16078063473105,267.9119710349478,"[39, 0, 215]",215,a,0.23190532554872334,colour,0.5
019,65,0,1,4,17,167,268.4221976462286,269.17596695176326,"[51, 0, 203]",203,a,0.2337942123413086,colour,0.5
019,65,0,1,4,18,168,269.6857118890621,270.7199572126847,"[50, 0, 204]",204,a,0.5143257628660649,colour,0.5
019,65,0,1,4,19,169,271.229008192895,272.17594568408094,"[15, 0, 239]",239,a,0.42954996787011623,colour,0.5
019,65,0,1,4,20,170,272.6854661288671,273.71199167263694,"[3, 0, 251]",251,a,0.5063913366757333,colour,0.5
019,65,0,1,4,21,171,274.2209142590873,275.20791063806973,"[60, 0, 194]",194,l,0.4703000558074564,colour,0.5
019,65,0,1,4,22,172,275.7183731631376,276.95201928913593,"[59, 0, 195]",195,l,0.71479034377262,colour,0.5
019,65,0,1,4,23,173,277.461824484868,278.14400081615895,"[8, 0, 246]",246,a,0.16453044465743005,colour,0.5
019,65,0,1,4,24,174,278.65310851018876,279.32002093689516,"[24, 0, 230]",230,a,0.14939611544832587,colour,0.5
019,65,0,1,4,25,175,279.828682403313,280.44801308517344,"[7, 0, 247]",247,a,0.10231376788578928,colour,0.5
019,65,0,1,4,26,176,280.9563642006833,281.7439952234272,"[91, 0, 163]",163,l,0.2705932348035276,colour,0.5
019,65,0,1,4,27,177,282.2527094653342,283.2000242609065,"[82, 0, 172]",172,l,0.4310174386482686,colour,0.5
019,65,0,1,4,28,178,283.7085833272431,284.6719768955372,"[54, 0, 200]",200,a,0.44607102940790355,colour,0.5
019,65,0,1,4,29,179,285.1804890939966,285.968001175439,"[40, 0, 214]",214,a,0.2702604348305613,colour,0.5
019,65,0,1,4,30,180,286.4770820878912,287.4479843345471,"[38, 0, 216]",216,a,0.453769541811198,colour,0.5
019,65,0,1,4,31,181,287.9570790317375,288.85605235327967,"[0, 0, 254]",254,a,0.38136012433096766,colour,0.5
019,65,0,1,4,32,182,289.3646783733275,290.35197131871246,"[34, 0, 220]",220,a,0.46979317557998,colour,0.5
019,65,0,1,4,33,183,290.8613204404246,291.5680211826693,"[64, 0, 190]",190,l,0.18933448637835681,colour,0.5
019,65,0,1,4,34,184,292.0767685074825,292.8080283191521,"[31, 0, 223]",223,a,0.21395302680321038,colour,0.5
019,65,0,1,4,35,185,293.3169442100916,294.05606952495873,"[63, 0, 191]",191,l,0.22153220372274518,colour,0.5
019,65,0,1,4,36,186,294.5655505852774,295.5279839562718,"[80, 0, 174]",174,l,0.44557399535551667,colour,0.5
019,65,0,1,4,37,187,296.0367430965416,296.6080379290506,"[23, 0, 231]",231,a,0.05416764132678509,colour,0.5
019,65,0,1,4,38,188,297.1170274692122,297.8159871639218,"[26, 0, 228]",228,a,0.18187779583968222,colour,0.5
019,65,0,1,4,39,189,298.3244328023866,299.15997443161905,"[37, 0, 217]",217,a,0.31910051824525,colour,0.5
019,65,0,1,4,40,190,299.6681325624231,300.2879764260724,"[62, 0, 192]",192,l,0.10273557715117931,colour,0.5
019,65,0,1,4,41,191,300.7965642430354,302.86405176413245,"[16, 0, 238]",238,a,1.5490157390013337,colour,0.5
019,65,0,1,4,42,192,303.3722193471622,303.936063002795,"[86, 0, 168]",168,l,0.0469980644993484,colour,0.5
019,65,0,1,4,43,193,304.4444109676406,305.11211463133805,"[96, 0, 158]",158,l,0.14950284780934453,colour,0.5
019,65,0,1,4,44,194,305.6213601715863,307.0799755973276,"[2, 0, 252]",252,a,0.9419076808262616,colour,0.5
019,65,0,1,4,45,195,307.588719377527,308.3439746648073,"[87, 0, 167]",167,l,0.23842387460172176,colour,0.5
019,65,0,1,4,46,196,308.8527471956331,309.5439552087337,"[68, 0, 186]",186,l,0.17391776968725026,colour,0.5
019,65,0,1,4,47,197,310.0531018935144,310.7120023064781,"[98, 0, 156]",156,l,0.14026557840406895,colour,0.5
019,65,0,1,4,48,198,311.2226794778835,311.76799542526715,"[19, 0, 235]",235,a,0.026151389814913273,colour,0.5
019,65,0,1,4,49,199,312.27722954400815,313.1599830961786,"[22, 0, 232]",232,a,0.36477565323002636,colour,0.5
019,65,0,1,4,50,200,313.6683720208239,314.239981142804,"[84, 0, 170]",170,l,0.0542381398845464,colour,0.5
019,65,0,1,5,1,201,319.73970269341953,320.7279759219382,"[41, 0, 213]",213,a,0.47169230226427317,colour,0.5
019,65,0,1,5,2,202,321.2369095359463,322.19999354099855,"[29, 0, 225]",225,a,0.44595366320572793,colour,0.5
019,65,0,1,5,3,203,322.7089306996204,323.49597489158623,"[75, 0, 179]",179,l,0.2710485211573541,colour,0.5
019,65,0,1,5,4,204,324.00487305945717,325.0239852354862,"[61, 0, 193]",193,l,0.5020160987041891,colour,0.5
019,65,0,1,5,5,205,325.5331831204239,326.1119507914409,"[10, 0, 244]",244,a,0.06126514449715614,colour,0.5
019,65,0,1,5,6,206,326.6209552977234,327.3439723015763,"[72, 0, 182]",182,l,0.20559324650093913,colour,0.5
019,65,0,1,5,7,207,327.85339349741116,328.60798160894774,"[44, 0, 210]",210,a,0.23596981866285205,colour,0.5
019,65,0,1,5,8,208,329.11696130316705,330.18401953182183,"[6, 0, 248]",248,a,0.5493193943984807,colour,0.5
019,65,0,1,5,9,209,330.69311737967655,331.68816870171577,"[16, 0, 238]",238,a,0.47667603217996657,colour,0.5
019,65,0,1,5,10,210,332.19864343618974,333.07195925107226,"[92, 0, 162]",162,l,0.3537641065195203,colour,0.5
019,65,0,1,5,11,211,333.5814182560425,334.4079888558481,"[36, 0, 218]",218,a,0.31034452887251973,colour,0.5
019,65,0,1,5,12,212,334.9175758608617,335.90393657190725,"[64, 0, 190]",190,l,0.46602603630162776,colour,0.5
019,65,0,1,5,13,213,336.41294974298216,337.43997350218706,"[18, 0, 236]",236,a,0.5086902172770351,colour,0.5
019,65,0,1,5,14,214,337.94824072835036,339.18407230707817,"[54, 0, 200]",200,a,0.7189918954391032,colour,0.5
019,65,0,1,5,15,215,339.69254512107,340.4799965498969,"[69, 0, 185]",185,l,0.27192837349139154,colour,0.5
019,65,0,1,5,16,216,340.98978835507296,341.88002104731277,"[49, 0, 205]",205,a,0.37240366730839014,colour,0.5
019,65,0,1,5,17,217,342.3895773321856,342.9841650184244,"[67, 0, 187]",187,l,0.07816311693750322,colour,0.5
019,65,0,1,5,18,218,343.4933503002394,344.08005397277884,"[26, 0, 228]",228,a,0.06862573651596904,colour,0.5
019,65,0,1,5,19,219,344.59034753777087,345.27998607372865,"[60, 0, 194]",194,l,0.17257632943801582,colour,0.5
019,65,0,1,5,20,220,345.78951754630543,346.6400812584907,"[57, 0, 197]",197,a,0.3330607917159796,colour,0.5
019,65,0,1,5,21,221,347.1496257279068,347.8160462407395,"[34, 0, 220]",220,a,0.14941580779850483,colour,0.5
019,65,0,1,5,22,222,348.3248223164119,349.1360242483206,"[59, 0, 195]",195,l,0.2946718118619174,colour,0.5
019,65,0,1,5,23,223,349.64392283465713,351.36801582644694,"[25, 0, 229]",229,a,1.20701660704799,colour,0.5
019,65,0,1,5,24,224,351.87728224042803,352.9919615983963,"[88, 0, 166]",166,l,0.597677803831175,colour,0.5
019,65,0,1,5,25,225,353.50048443092965,354.64013206469826,"[70, 0, 184]",184,l,0.621714239474386,colour,0.5
019,65,0,1,5,26,226,355.1489794263616,357.01654902496375,"[71, 0, 183]",183,l,1.3503116506617516,colour,0.5
019,65,0,1,5,27,227,357.52580756205134,358.12799726845697,"[35, 0, 219]",219,a,0.08497941377572715,colour,0.5
019,65,0,1,5,28,228,358.6361014423892,359.2560280135367,"[0, 0, 254]",254,a,0.10364418034441769,colour,0.5
019,65,0,1,5,29,229,359.7638222305104,360.7040202249773,"[20, 0, 234]",234,a,0.4216261755209416,colour,0.5
019,65,0,1,5,30,230,361.2135276729241,362.02400256483816,"[98, 0, 156]",156,l,0.2918113067280501,colour,0.5
019,65,0,1,5,31,231,362.5336557358969,363.41600047587417,"[99, 0, 155]",155,l,0.36586542590521276,colour,0.5
019,65,0,1,5,32,232,363.9248387790285,364.78398164361715,"[38, 0, 216]",216,a,0.3408672178629786,colour,0.5
019,65,0,1,5,33,233,365.2930991840549,366.15996104083024,"[52, 0, 202]",202,a,0.3501419029198587,colour,0.5
019,65,0,1,5,34,234,366.66894309804775,367.6959444079548,"[9, 0, 245]",245,a,0.510053712874651,colour,0.5
019,65,0,1,5,35,235,368.2058768160641,369.0959834775422,"[74, 0, 180]",180,l,0.37088499614037573,colour,0.5
019,65,0,1,5,36,236,369.60432159597985,371.0640220681671,"[51, 0, 203]",203,a,0.942848973441869,colour,0.5
019,65,0,1,5,37,237,371.573679177789,372.31196678150445,"[33, 0, 221]",221,a,0.21896747685968876,colour,0.5
019,65,0,1,5,38,238,372.8215419710614,373.6480743677821,"[55, 0, 199]",199,l,0.3069149157963693,colour,0.5
019,65,0,1,5,39,239,374.15725374175236,375.08795255888253,"[1, 0, 253]",253,a,0.41249130573123693,colour,0.5
019,65,0,1,5,40,240,375.59747891151346,376.7201761910692,"[22, 0, 232]",232,a,0.6058993439655751,colour,0.5
019,65,0,1,5,41,241,377.2290471836459,378.38398865424097,"[77, 0, 177]",177,l,0.6352869682013988,colour,0.5
019,65,0,1,5,42,242,378.8937749452889,379.75217422819696,"[23, 0, 231]",231,a,0.33893146365880966,colour,0.5
019,65,0,1,5,43,243,380.2627553010825,381.02405652171,"[62, 0, 192]",192,l,0.24135802895762026,colour,0.5
019,65,0,1,5,44,244,381.53356869588606,382.39240436046384,"[48, 0, 206]",206,l,0.3381595250684768,colour,0.5
019,65,0,1,5,45,245,382.90233322395943,383.91998659353703,"[53, 0, 201]",201,l,0.4997692061588168,colour,0.5
019,65,0,1,5,46,246,384.4288619183935,385.1679616330657,"[78, 0, 176]",176,l,0.22261646226979792,colour,0.5
019,65,0,1,5,47,247,385.67772429343313,386.65600131079555,"[90, 0, 164]",164,l,0.45830271183513105,colour,0.5
019,65,0,1,5,48,248,387.1662976327352,387.73609388037585,"[11, 0, 243]",243,a,0.05046036676503718,colour,0.5
019,65,0,1,5,49,249,388.2460235315375,389.3999729035422,"[13, 0, 241]",241,a,0.6362188083585352,colour,0.5
019,65,0,1,5,50,250,389.9102436255198,391.6079843658954,"[43, 0, 211]",211,a,1.177830238128081,colour,0.5
019,65,0,1,6,1,251,397.03632483188994,398.01598936947994,"[15, 0, 239]",239,a,0.46143182017840445,colour,0.5
019,65,0,1,6,2,252,398.5249615802895,399.3679910141509,"[46, 0, 208]",208,a,0.3257675473578274,colour,0.5
019,65,0,1,6,3,253,399.87717590201646,400.5120272762142,"[68, 0, 186]",186,l,0.11612831824459136,colour,0.5
019,65,0,1,6,4,254,401.0210802257061,401.8801112379879,"[40, 0, 214]",214,a,0.3411866270471364,colour,0.5
019,65,0,1,6,5,255,402.3908396093175,403.04850610205904,"[77, 0, 177]",177,l,0.13667527632787824,colour,0.5
019,65,0,1,6,6,256,403.55820456543006,404.32795812003314,"[60, 0, 194]",194,l,0.25341523764654994,colour,0.5
019,65,0,1,6,7,257,404.8376656419132,405.4400184005499,"[73, 0, 181]",181,l,0.08615307533182204,colour,0.5
019,65,0,1,6,8,258,405.94846167601645,406.55201802868396,"[21, 0, 233]",233,a,0.0858273645862937,colour,0.5
019,65,0,1,6,9,259,407.0611489599105,408.02399586932734,"[35, 0, 219]",219,a,0.4466610108502209,colour,0.5
019,65,0,1,6,10,260,408.5327065666206,409.59999322588556,"[59, 0, 195]",195,l,0.5501448959112167,colour,0.5
019,65,0,1,6,11,261,410.10944711090997,410.6888827448711,"[91, 0, 163]",163,a,0.05989180249162018,colour,0.5
019,65,0,1,6,12,262,411.19940198399127,412.679998755455,"[57, 0, 197]",197,a,0.9629437956027687,colour,0.5
019,65,0,1,6,13,263,413.18870905879885,413.8000600221567,"[10, 0, 244]",244,a,0.09443290461786091,colour,0.5
019,65,0,1,6,14,264,414.3090720116161,415.19996479013935,"[17, 0, 237]",237,a,0.3729495380539447,colour,0.5
019,65,0,1,6,15,265,415.70951634901576,416.28795121982694,"[29, 0, 225]",225,a,0.06152547663077712,colour,0.5
019,65,0,1,6,16,266,416.7969675415661,417.4720254961867,"[20, 0, 234]",234,a,0.15614821552298963,colour,0.5
019,65,0,1,6,17,267,417.9817936704494,418.91199505957775,"[14, 0, 240]",240,a,0.4134089674334973,colour,0.5
019,65,0,1,6,18,268,419.4213953814469,420.00796002638526,"[37, 0, 217]",217,a,0.06991322012618184,colour,0.5
019,65,0,1,6,19,269,420.51639581867494,421.05602226336487,"[61, 0, 193]",193,l,0.02317942609079182,colour,0.5
019,65,0,1,6,20,270,421.5657002469525,422.2159533719532,"[41, 0, 213]",213,a,0.13387778657488525,colour,0.5
019,65,0,1,6,21,271,422.72647300479,423.44797212514095,"[49, 0, 205]",205,l,0.2020387842785567,colour,0.5
019,65,0,1,6,22,272,423.958496484207,424.5759816027712,"[53, 0, 201]",201,l,0.09788063471205533,colour,0.5
019,65,0,1,6,23,273,425.08490221994,426.75197730516084,"[34, 0, 220]",220,a,1.149436288047582,colour,0.5
019,65,0,1,6,24,274,427.2612011837773,428.0720006050542,"[48, 0, 206]",206,l,0.29384985473006964,colour,0.5
019,65,0,1,6,25,275,428.58260294562206,429.34405264630914,"[90, 0, 164]",164,l,0.24151950608938932,colour,0.5
019,65,0,1,6,26,276,429.853855479043,430.55197313032113,"[86, 0, 168]",168,l,0.1778574134223163,colour,0.5
019,65,0,1,6,27,277,431.0613742398564,432.5120544517413,"[83, 0, 171]",171,l,0.9328582759480923,colour,0.5
019,65,0,1,6,28,278,433.02113851509057,434.32799159688875,"[55, 0, 199]",199,l,0.7892599706538022,colour,0.5
019,65,0,1,6,29,279,434.838216238888,435.8640005639754,"[97, 0, 157]",157,l,0.506906881229952,colour,0.5
019,65,0,1,6,30,280,436.3731665473897,438.4000107126776,"[99, 0, 155]",155,l,1.5102431527338922,colour,0.5
019,65,0,1,6,31,281,438.9111128440127,439.72815315262415,"[79, 0, 175]",175,l,0.2957533134613186,colour,0.5
019,65,0,1,6,32,282,440.2369560098741,441.28801462915726,"[64, 0, 190]",190,l,0.5343965606298298,colour,0.5
019,65,0,1,6,33,283,441.79865950508974,442.4720278591849,"[65, 0, 189]",189,l,0.1540899749379605,colour,0.5
019,65,0,1,6,34,284,442.9810961687472,443.66404955857433,"[84, 0, 170]",170,l,0.16515350947156549,colour,0.5
019,65,0,1,6,35,285,444.1737779544201,444.9040283381473,"[8, 0, 246]",246,a,0.21222167881205678,colour,0.5
019,65,0,1,6,36,286,445.41448141098954,446.1279767884407,"[36, 0, 218]",218,a,0.19509685086086392,colour,0.5
019,65,0,1,6,37,287,446.6377835595049,447.67198477243073,"[23, 0, 231]",231,a,0.5170295170973986,colour,0.5
019,65,0,1,6,38,288,448.1814863127656,448.7284024574328,"[87, 0, 167]",167,l,0.028274221112951636,colour,0.5
019,65,0,1,6,39,289,449.23786461306736,449.95998246595263,"[71, 0, 183]",183,l,0.20501074800267816,colour,0.5
019,65,0,1,6,40,290,450.4700775325764,451.0081593124196,"[98, 0, 156]",156,l,0.017934969626367092,colour,0.5
019,65,0,1,6,41,291,451.51740721589886,452.45598610839806,"[13, 0, 241]",241,a,0.4219936339650303,colour,0.5
019,65,0,1,6,42,292,452.96563612879254,454.4320000852458,"[16, 0, 238]",238,a,0.9460942663718015,colour,0.5
019,65,0,1,6,43,293,454.9422901056241,455.9679881783668,"[19, 0, 235]",235,a,0.5052499701268971,colour,0.5
019,65,0,1,6,44,294,456.47763110953383,457.2159710950218,"[58, 0, 196]",196,l,0.21973153878934681,colour,0.5
019,65,0,1,6,45,295,457.72529776743613,458.7920113806613,"[3, 0, 251]",251,a,0.5465833444613963,colour,0.5
019,65,0,1,6,46,296,459.3014632964041,459.9599797092378,"[38, 0, 216]",216,a,0.1390887659508735,colour,0.5
019,65,0,1,6,47,297,460.47129569901153,461.2560421919916,"[39, 0, 215]",215,a,0.26368359639309347,colour,0.5
019,65,0,1,6,48,298,461.7650864769239,462.28926154621877,"[92, 0, 162]",162,l,0.006379521219059825,colour,0.5
019,65,0,1,6,49,299,462.81079981522635,463.5040006900672,"[69, 0, 185]",185,l,0.1769117887597531,colour,0.5
019,65,0,1,6,50,300,464.0130942056421,464.61602001055144,"[24, 0, 230]",230,a,0.08418108732439578,colour,0.5
019,65,0,1,7,1,301,470.7721623182297,471.55201212107204,"[62, 0, 192]",192,l,0.2608163959812373,colour,0.5
019,65,0,1,7,2,302,472.0611292675603,472.59228092897683,"[27, 0, 227]",227,a,0.013514045625925064,colour,0.5
019,65,0,1,7,3,303,473.1022251525428,474.0559844542295,"[39, 0, 215]",215,a,0.4342847871594131,colour,0.5
019,65,0,1,7,4,304,474.5649692681618,476.19196183490567,"[87, 0, 167]",167,l,1.1075208089314401,colour,0.5
019,65,0,1,7,5,305,476.7011652335059,477.7519737605471,"[67, 0, 187]",187,l,0.533600203692913,colour,0.5
019,65,0,1,7,6,306,478.26111178076826,479.0399509740528,"[41, 0, 213]",213,a,0.26148278382606804,colour,0.5
019,65,0,1,7,7,307,479.54969630530104,480.0970216561109,"[65, 0, 189]",189,l,0.02673349459655583,colour,0.5
019,65,0,1,7,8,308,480.6074680334423,481.26398173812777,"[68, 0, 186]",186,l,0.13933137501589954,colour,0.5
019,65,0,1,7,9,309,481.7735214815475,484.2640738983173,"[24, 0, 230]",230,l,1.9727336317300797,colour,0.5
019,65,0,1,7,10,310,484.7742174079176,485.49596189474687,"[8, 0, 246]",246,a,0.20373586798086762,colour,0.5
019,65,0,1,7,11,311,486.00526887504384,486.68796193250455,"[2, 0, 252]",252,a,0.16460251854732633,colour,0.5
019,65,0,1,7,12,312,487.1973153867293,488.56798691814765,"[31, 0, 223]",223,a,0.8514018170535564,colour,0.5
019,65,0,1,7,13,313,489.0770237199031,490.04802127717994,"[33, 0, 221]",221,a,0.4535068462137133,colour,0.5
019,65,0,1,7,14,314,490.5571273958776,491.6880505478475,"[23, 0, 231]",231,a,0.6140401454176754,colour,0.5
019,65,0,1,7,15,315,492.19865013146773,493.4399652313441,"[18, 0, 236]",236,a,0.7194219755474478,colour,0.5
019,65,0,1,7,16,316,493.9500988947693,494.4723586901091,"[11, 0, 243]",243,a,0.005502819549292326,colour,0.5
019,65,0,1,7,17,317,494.993368023308,495.57603437802754,"[60, 0, 194]",194,l,0.06520912051200867,colour,0.5
019,65,0,1,7,18,318,496.08608651557006,496.67242469871417,"[56, 0, 198]",198,l,0.06657340400852263,colour,0.5
019,65,0,1,7,19,319,497.182560331421,497.8639804779086,"[92, 0, 162]",162,l,0.1624147028196603,colour,0.5
019,65,0,1,7,20,320,498.3732839135919,499.36801740177907,"[53, 0, 201]",201,l,0.47832349105738103,colour,0.5
019,65,0,1,7,21,321,499.87674070196226,500.53604953340255,"[57, 0, 197]",197,l,0.1419220957905054,colour,0.5
019,65,0,1,7,22,322,501.0455884891562,501.98399369535036,"[50, 0, 204]",204,l,0.42154937516897917,colour,0.5
019,65,0,1,7,23,323,502.4928961955011,503.0319700741675,"[34, 0, 220]",220,a,0.022651672130450606,colour,0.5
019,65,0,1,7,24,324,503.5414499528706,504.10452678985894,"[91, 0, 163]",163,l,0.04378743004053831,colour,0.5
019,65,0,1,7,25,325,504.6147707304917,505.319977219915,"[26, 0, 228]",228,a,0.18871732940897346,colour,0.5
019,65,0,1,7,26,326,505.8288226125296,506.37602902180515,"[93, 0, 161]",161,l,0.02938211034052074,colour,0.5
019,65,0,1,7,27,327,506.8847609865479,507.44805758981965,"[69, 0, 185]",185,l,0.044297854881733656,colour,0.5
019,65,0,1,7,28,328,507.9585854934994,508.6641066663433,"[47, 0, 207]",207,l,0.18680363078601658,colour,0.5
019,65,0,1,7,29,329,509.17327028652653,509.8960143548902,"[98, 0, 156]",156,l,0.20461690169759095,colour,0.5
019,65,0,1,7,30,330,510.4067222464364,511.1200006145518,"[48, 0, 206]",206,l,0.19573763851076365,colour,0.5
019,65,0,1,7,31,331,511.62867862242274,512.1600090900902,"[0, 0, 254]",254,a,0.015032323077321053,colour,0.5
019,65,0,1,7,32,332,512.6691356888041,513.5840924719814,"[43, 0, 211]",211,l,0.39873819542117417,colour,0.5
019,65,0,1,7,33,333,514.0933214707766,514.7519918773323,"[32, 0, 222]",222,a,0.1401159167289734,colour,0.5
019,65,0,1,7,34,334,515.2611602237448,516.8319777147844,"[95, 0, 159]",159,l,1.0538509890902787,colour,0.5
019,65,0,1,7,35,335,517.3423484736122,517.9679684860166,"[96, 0, 158]",158,l,0.10773033509030938,colour,0.5
019,65,0,1,7,36,336,518.477030887967,519.1999742425978,"[38, 0, 216]",216,l,0.20348616945557296,colour,0.5
019,65,0,1,7,37,337,519.7082501333207,520.4800197868608,"[28, 0, 226]",226,a,0.255452997982502,colour,0.5
019,65,0,1,7,38,338,520.9893370072823,522.5839837705716,"[79, 0, 175]",175,l,1.0748654424678534,colour,0.5
019,65,0,1,7,39,339,523.093026479939,523.7362234557513,"[25, 0, 229]",229,a,0.12630648631602526,colour,0.5
019,65,0,1,7,40,340,524.2466087872162,524.8401338763069,"[82, 0, 172]",172,l,0.0742451346013695,colour,0.5
019,65,0,1,7,41,341,525.349923318252,526.0160098494962,"[85, 0, 169]",169,l,0.14715591841377318,colour,0.5
019,65,0,1,7,42,342,526.525901297573,527.0970362285152,"[74, 0, 180]",180,l,0.05274979514069855,colour,0.5
019,65,0,1,7,43,343,527.6078792090993,528.152216842398,"[12, 0, 242]",242,a,0.027166725369170308,colour,0.5
019,65,0,1,7,44,344,528.6626777921338,529.3764969110489,"[7, 0, 247]",247,a,0.19157704687677324,colour,0.5
019,65,0,1,7,45,345,529.8867727532052,530.4560046191327,"[78, 0, 176]",176,l,0.05091644078493118,colour,0.5
019,65,0,1,7,46,346,530.9651071932167,531.848014739342,"[52, 0, 202]",202,l,0.366831136867404,colour,0.5
019,65,0,1,7,47,347,532.3578026059549,533.7520537113305,"[90, 0, 164]",164,l,0.875949858687818,colour,0.5
019,65,0,1,7,48,348,534.2611838546582,534.9040511811618,"[13, 0, 241]",241,a,0.1251982031390071,colour,0.5
019,65,0,1,7,49,349,535.413045053836,536.8960076596122,"[77, 0, 177]",177,l,0.9645325713790953,colour,0.5
019,65,0,1,7,50,350,537.4050606091041,537.9850318741519,"[30, 0, 224]",224,a,0.06011038739234209,colour,0.5
019,65,0,1,8,1,351,548.659997668583,549.4320311991032,"[58, 0, 196]",196,l,0.2549146101810038,colour,0.5
019,65,0,1,8,2,352,549.9417635332793,550.472650923999,"[93, 0, 161]",161,l,0.012596777873113751,colour,0.5
019,65,0,1,8,3,353,550.9816826058086,551.5840767181944,"[40, 0, 214]",214,a,0.08441227511502802,colour,0.5
019,65,0,1,8,4,354,552.0928630337585,552.888089774875,"[66, 0, 188]",188,l,0.27743946365080774,colour,0.5
019,65,0,1,8,5,355,553.3969784905203,553.9440880136099,"[9, 0, 245]",245,a,0.028974085580557585,colour,0.5
019,65,0,1,8,6,356,554.4533051969483,555.2321176088881,"[47, 0, 207]",207,a,0.2596596695948392,colour,0.5
019,65,0,1,8,7,357,555.7421390262898,556.3360693831928,"[17, 0, 237]",237,a,0.07647824264131486,colour,0.5
019,65,0,1,8,8,358,556.8458261359483,557.5043126163073,"[57, 0, 197]",197,l,0.1397835104726255,colour,0.5
019,65,0,1,8,9,359,558.014072519727,558.6079957874026,"[15, 0, 239]",239,a,0.07521990383975208,colour,0.5
019,65,0,1,8,10,360,559.1172527493909,559.7359962065239,"[11, 0, 243]",243,a,0.10027837054803967,colour,0.5
019,65,0,1,8,11,361,560.2453622638714,560.8080042945221,"[75, 0, 179]",179,l,0.043778371531516314,colour,0.5
019,65,0,1,8,12,362,561.3176799148787,561.8960600411519,"[81, 0, 173]",173,l,0.059692122507840395,colour,0.5
019,65,0,1,8,13,363,562.4056683138479,563.0240990570746,"[54, 0, 200]",200,l,0.10119327530264854,colour,0.5
019,65,0,1,8,14,364,563.5332622835413,564.5041661055293,"[41, 0, 213]",213,a,0.4520149566233158,colour,0.5
019,65,0,1,8,15,365,565.0141233259346,565.6160999613348,"[65, 0, 189]",189,l,0.08322916086763144,colour,0.5
019,65,0,1,8,16,366,566.1248776123393,566.7600389434956,"[69, 0, 185]",185,l,0.11725471843965352,colour,0.5
019,65,0,1,8,17,367,567.270006010076,567.888016913319,"[92, 0, 162]",162,l,0.10061550280079246,colour,0.5
019,65,0,1,8,18,368,568.3980300601106,568.9920439124107,"[18, 0, 236]",236,a,0.07696149218827486,colour,0.5
019,65,0,1,8,19,369,569.50103620952,571.1920752625447,"[43, 0, 211]",211,a,1.173806311096996,colour,0.5
019,65,0,1,8,20,370,571.7010462919716,572.3520260632504,"[29, 0, 225]",225,a,0.1342283096164465,colour,0.5
019,65,0,1,8,21,371,572.861571714282,573.6240647137165,"[53, 0, 201]",201,l,0.24395071878097951,colour,0.5
019,65,0,1,8,22,372,574.1338088633493,574.712072017137,"[24, 0, 230]",230,a,0.060601907316595316,colour,0.5
019,65,0,1,8,23,373,575.2210977913346,576.040062432643,"[48, 0, 206]",206,l,0.30207848409190774,colour,0.5
019,65,0,1,8,24,374,576.5484608097468,578.1440646192059,"[79, 0, 175]",175,l,1.0778606429230422,colour,0.5
019,65,0,1,8,25,375,578.6528702331707,579.2479947321117,"[72, 0, 182]",182,l,0.07744789239950478,colour,0.5
019,65,0,1,8,26,376,579.7566999152768,580.3042828415055,"[64, 0, 190]",190,l,0.029682615073397756,colour,0.5
019,65,0,1,8,27,377,580.8138596063945,581.4480276575778,"[36, 0, 218]",218,a,0.1158136350568384,colour,0.5
019,65,0,1,8,28,378,581.9576859485824,582.6320755460765,"[60, 0, 194]",194,l,0.1564991322811693,colour,0.5
019,65,0,1,8,29,379,583.1409855294041,583.8644093764015,"[94, 0, 160]",160,l,0.2061241513583809,colour,0.5
019,65,0,1,8,30,380,584.3755564063322,584.9280155429151,"[21, 0, 233]",233,a,0.033501742174848914,colour,0.5
019,65,0,1,8,31,381,585.437222486129,586.0319925232325,"[32, 0, 222]",222,a,0.07825921522453427,colour,0.5
019,65,0,1,8,32,382,586.5410765865818,587.1600189362653,"[0, 0, 254]",254,a,0.10250872187316418,colour,0.5
019,65,0,1,8,33,383,587.6701746550389,588.192478167126,"[77, 0, 177]",177,l,0.0024820188991725445,colour,0.5
019,65,0,1,8,34,384,588.7116947125178,589.3202269184403,"[86, 0, 168]",168,l,0.09113877476193011,colour,0.5
019,65,0,1,8,35,385,589.8304822805803,590.4320087498054,"[99, 0, 155]",155,l,0.08277663169428706,colour,0.5
019,65,0,1,8,36,386,590.9418726286385,591.5520826196298,"[26, 0, 228]",228,a,0.09109427034854889,colour,0.5
019,65,0,1,8,37,387,592.0612761720549,592.5920422582421,"[67, 0, 187]",187,l,0.013438033405691385,colour,0.5
019,65,0,1,8,38,388,593.1010408569127,593.7439853772521,"[19, 0, 235]",235,a,0.1258708923123777,colour,0.5
019,65,0,1,8,39,389,594.2533719146159,595.7520021174569,"[30, 0, 224]",224,a,0.9804841314908117,colour,0.5
019,65,0,1,8,40,390,596.2610558546148,596.8720342395827,"[39, 0, 215]",215,a,0.09363733534701169,colour,0.5
019,65,0,1,8,41,391,597.3806744380854,598.1120264099445,"[55, 0, 199]",199,l,0.2130936544854194,colour,0.5
019,65,0,1,8,42,392,598.6212695869617,599.2801349475048,"[78, 0, 176]",176,l,0.13956019980832934,colour,0.5
019,65,0,1,8,43,393,599.7893733985256,600.368016614113,"[96, 0, 158]",158,l,0.060304947197437286,colour,0.5
019,65,0,1,8,44,394,600.8769663758576,602.8800139580853,"[62, 0, 192]",192,l,1.4854379296302795,colour,0.5
019,65,0,1,8,45,395,603.3890775414184,604.0320149725303,"[34, 0, 220]",220,a,0.1266495264135301,colour,0.5
019,65,0,1,8,46,396,604.5410297189374,605.2640396335628,"[35, 0, 219]",219,a,0.2056093942373991,colour,0.5
019,65,0,1,8,47,397,605.7728259491269,606.5369112689514,"[74, 0, 180]",180,l,0.24367226962931454,colour,0.5
019,65,0,1,8,48,398,607.0470768339001,607.6639802416321,"[31, 0, 223]",223,a,0.09897946566343307,colour,0.5
019,65,0,1,8,49,399,608.1725979910698,608.7840163020883,"[38, 0, 216]",216,a,0.09499531704932451,colour,0.5
019,65,0,1,8,50,400,609.2928101008292,609.9440190906171,"[2, 0, 252]",252,a,0.1335973679088056,colour,0.5
019,65,0,1,9,1,401,615.9639914268628,616.5202255793847,"[99, 0, 155]",155,l,0.036774997832253575,colour,0.5
019,65,0,1,9,2,402,617.0298082521185,617.688035975676,"[16, 0, 238]",238,a,0.1419634495396167,colour,0.5
019,65,0,1,9,3,403,618.1970928634983,619.3520055832341,"[37, 0, 217]",217,a,0.6359513867646456,colour,0.5
019,65,0,1,9,4,404,619.8610061511863,620.7440133404452,"[46, 0, 208]",208,l,0.3660072104539722,colour,0.5
019,65,0,1,9,5,405,621.253309686901,621.8240172946826,"[66, 0, 188]",188,l,0.05313970288261771,colour,0.5
019,65,0,1,9,6,406,622.3347133705392,622.928201044444,"[12, 0, 242]",242,a,0.0721683835145086,colour,0.5
019,65,0,1,9,7,407,623.438511938788,624.6640188384335,"[39, 0, 215]",215,a,0.7071993513964117,colour,0.5
019,65,0,1,9,8,408,625.1734045881312,625.9444991892669,"[79, 0, 175]",175,l,0.2526023390237242,colour,0.5
019,65,0,1,9,9,409,626.4547104404774,627.09608627134,"[62, 0, 192]",192,l,0.12277526105754077,colour,0.5
019,65,0,1,9,10,410,627.6049915284384,628.2241973611526,"[15, 0, 239]",239,a,0.10085023520514369,colour,0.5
019,65,0,1,9,11,411,628.7335500277113,629.2880232937168,"[89, 0, 165]",165,l,0.03749494883231819,colour,0.5
019,65,0,1,9,12,412,629.7977312095463,630.3840394602157,"[74, 0, 180]",180,l,0.06672779144719243,colour,0.5
019,65,0,1,9,13,413,630.894153825473,631.5363453119062,"[6, 0, 248]",248,a,0.1233203443698585,colour,0.5
019,65,0,1,9,14,414,632.0460429876111,632.8960005703848,"[53, 0, 201]",201,l,0.33357791183516383,colour,0.5
019,65,0,1,9,15,415,633.4070235386025,634.0800988711417,"[58, 0, 196]",196,l,0.15227434365078807,colour,0.5
019,65,0,1,9,16,416,634.5894696547184,635.2961538552772,"[67, 0, 187]",187,l,0.18962514493614435,colour,0.5
019,65,0,1,9,17,417,635.8056041956879,636.376890757354,"[8, 0, 246]",246,a,0.05138590536080301,colour,0.5
019,65,0,1,9,18,418,636.8872343408875,638.4240416344255,"[84, 0, 170]",170,l,1.0190338008105755,colour,0.5
019,65,0,1,9,19,419,638.9330811931286,639.6240276922472,"[10, 0, 244]",244,a,0.1745294127613306,colour,0.5
019,65,0,1,9,20,420,640.1340215404052,640.6640491646249,"[88, 0, 166]",166,l,0.011278180638328195,colour,0.5
019,65,0,1,9,21,421,641.1731678864453,641.8160608131438,"[19, 0, 235]",235,a,0.12622929271310568,colour,0.5
019,65,0,1,9,22,422,642.3260294550564,643.1599929423537,"[13, 0, 241]",241,a,0.3155657483730465,colour,0.5
019,65,0,1,9,23,423,643.6697784457356,644.2320412027184,"[60, 0, 194]",194,l,0.045227332040667534,colour,0.5
019,65,0,1,9,24,424,644.7412056105677,645.4480410483666,"[71, 0, 183]",183,l,0.18996227742172778,colour,0.5
019,65,0,1,9,25,425,645.957779684104,646.7442835189868,"[52, 0, 202]",202,l,0.26959050237201154,colour,0.5
019,65,0,1,9,26,426,647.2553541427478,647.8800202596467,"[5, 0, 249]",249,a,0.10451576230116189,colour,0.5
019,65,0,1,9,27,427,648.3900404954329,649.368122558808,"[41, 0, 213]",213,a,0.4601061337161809,colour,0.5
019,65,0,1,9,28,428,649.8770211203955,650.4241341883317,"[75, 0, 179]",179,l,0.02988544595427811,colour,0.5
019,65,0,1,9,29,429,650.9334683439229,651.5680979827885,"[23, 0, 231]",231,a,0.11742486013099551,colour,0.5
019,65,0,1,9,30,430,652.0777263415512,652.6962713003159,"[9, 0, 245]",245,a,0.10091009992174804,colour,0.5
019,65,0,1,9,31,431,653.2060890991706,653.8649111364502,"[0, 0, 254]",254,a,0.13873351644724607,colour,0.5
019,65,0,1,9,32,432,654.3750408615451,654.9840409569442,"[70, 0, 184]",184,l,0.09226163057610393,colour,0.5
019,65,0,1,9,33,433,655.4938709649723,656.1760610810015,"[34, 0, 220]",220,a,0.16332448762841523,colour,0.5
019,65,0,1,9,34,434,656.6847473594826,657.2721225398127,"[64, 0, 190]",190,l,0.07039804453961551,colour,0.5
019,65,0,1,9,35,435,657.7812617416494,658.472004622221,"[18, 0, 236]",236,a,0.17439117282629013,colour,0.5
019,65,0,1,9,36,436,658.9828424828593,659.728046420496,"[51, 0, 203]",203,l,0.22499608132056892,colour,0.5
019,65,0,1,9,37,437,660.2371100035962,660.816609440837,"[25, 0, 229]",229,a,0.061489242827519774,colour,0.5
019,65,0,1,9,38,438,661.3263886428904,661.9360842704773,"[11, 0, 243]",243,a,0.09344868292100728,colour,0.5
019,65,0,1,9,39,439,662.4454554477707,663.9760624200571,"[68, 0, 186]",186,l,1.0128039410337806,colour,0.5
019,65,0,1,9,40,440,664.4853776709642,665.0960122281685,"[72, 0, 182]",182,l,0.09095445484854281,colour,0.5
019,65,0,1,9,41,441,665.6052203532308,666.4159985065926,"[45, 0, 209]",209,l,0.2930708269122988,colour,0.5
019,65,0,1,9,42,442,666.9266138439998,667.5920702212024,"[50, 0, 204]",204,l,0.14453290216624737,colour,0.5
019,65,0,1,9,43,443,668.1016851894092,668.6564231200609,"[76, 0, 178]",178,l,0.03425438213162124,colour,0.5
019,65,0,1,9,44,444,669.1660010665655,669.7761204729322,"[36, 0, 218]",218,a,0.09379684319719672,colour,0.5
019,65,0,1,9,45,445,670.2872946781572,671.6240139075089,"[96, 0, 158]",158,l,0.8162029914092273,colour,0.5
019,65,0,1,9,46,446,672.1331578355748,672.8480781486724,"[32, 0, 222]",222,l,0.19665530021302402,colour,0.5
019,65,0,1,9,47,447,673.3579861382023,673.928039567545,"[31, 0, 223]",223,a,0.05373086594045162,colour,0.5
019,65,0,1,9,48,448,674.4394989174325,675.0802768897265,"[78, 0, 176]",176,l,0.11994232516735792,colour,0.5
019,65,0,1,9,49,449,675.590042700991,676.8880972580519,"[27, 0, 227]",227,a,0.7817891016602516,colour,0.5
019,65,0,1,9,50,450,677.3979445954319,677.9535730124917,"[83, 0, 171]",171,l,0.035836068680509925,colour,0.5
019,65,0,1,10,1,451,684.036301594926,684.856000759406,"[23, 0, 231]",231,a,0.30154364090412855,colour,0.5
019,65,0,1,10,2,452,685.3654983611777,685.905123624485,"[77, 0, 177]",177,l,0.020302773220464587,colour,0.5
019,65,0,1,10,3,453,686.4149524511304,687.1920374531765,"[19, 0, 235]",235,l,0.25973962037824094,colour,0.5
019,65,0,1,10,4,454,687.7020521753002,689.0160752278753,"[92, 0, 162]",162,l,0.7947470364160836,colour,0.5
019,65,0,1,10,5,455,689.525795352878,690.0722101312131,"[8, 0, 246]",246,a,0.028562122490257025,colour,0.5
019,65,0,1,10,6,456,690.5818896901328,691.5680066104978,"[78, 0, 176]",176,l,0.468758147675544,colour,0.5
019,65,0,1,10,7,457,692.0774959414266,692.7444591743406,"[40, 0, 214]",214,a,0.1488786016125232,colour,0.5
019,65,0,1,10,8,458,693.2539311761502,694.2080323365517,"[41, 0, 213]",213,l,0.4379176248330623,colour,0.5
019,65,0,1,10,9,459,694.7180478461087,695.2800093106925,"[93, 0, 161]",161,l,0.043063146993517876,colour,0.5
019,65,0,1,10,10,460,695.789324167883,696.5680546597578,"[7, 0, 247]",247,l,0.2613591162953526,colour,0.5
019,65,0,1,10,11,461,697.0767267597839,697.6801050940994,"[35, 0, 219]",219,a,0.0864106509834528,colour,0.5
019,65,0,1,10,12,462,698.1890662773512,698.7284804389346,"[88, 0, 166]",166,l,0.019483179319649935,colour,0.5
019,65,0,1,10,13,463,699.2380063976161,699.8720543256495,"[25, 0, 229]",229,a,0.11755837383680046,colour,0.5
019,65,0,1,10,14,464,700.3812010104302,700.9200539411977,"[13, 0, 241]",241,a,0.021942748920992017,colour,0.5
019,65,0,1,10,15,465,701.4294499307871,702.7200162895024,"[74, 0, 180]",180,l,0.7714522134047002,colour,0.5
019,65,0,1,10,16,466,703.2298726853915,703.8720232117921,"[33, 0, 221]",221,a,0.12038422049954534,colour,0.5
019,65,0,1,10,17,467,704.3809414659627,705.0880269957706,"[3, 0, 251]",251,a,0.18800840619951487,colour,0.5
019,65,0,1,10,18,468,705.5970531639177,706.8720086393878,"[71, 0, 183]",183,l,0.7550386716611683,colour,0.5
019,65,0,1,10,19,469,707.3804448258597,708.7200446464121,"[1, 0, 253]",253,a,0.8195368996821344,colour,0.5
019,65,0,1,10,20,470,709.229063725099,710.1360506361816,"[48, 0, 206]",206,l,0.39077580627053976,colour,0.5
019,65,0,1,10,21,471,710.6457762748469,711.2160707379226,"[10, 0, 244]",244,a,0.053468958009034395,colour,0.5
019,65,0,1,10,22,472,711.7259279214777,712.2961664584,"[0, 0, 254]",254,a,0.052889216458424926,colour,0.5
019,65,0,1,10,23,473,712.8049063000362,713.7600507589523,"[42, 0, 212]",212,a,0.43754150159657,colour,0.5
019,65,0,1,10,24,474,714.2694991300814,715.0720592881553,"[58, 0, 196]",196,l,0.28479296690784395,colour,0.5
019,65,0,1,10,25,475,715.5811047544703,716.1760315424763,"[83, 0, 171]",171,l,0.07660466735251248,colour,0.5
019,65,0,1,10,26,476,716.6852365166415,717.2160384426825,"[96, 0, 158]",158,l,0.013252138160169125,colour,0.5
019,65,0,1,10,27,477,717.7259917245246,718.3120392493438,"[67, 0, 187]",187,l,0.06695582857355475,colour,0.5
019,65,0,1,10,28,478,718.8211272510234,719.3680875063874,"[82, 0, 172]",172,l,0.03049039375036955,colour,0.5
019,65,0,1,10,29,479,719.8774208743125,720.5520326010883,"[37, 0, 217]",217,l,0.15735968644730747,colour,0.5
019,65,0,1,10,30,480,721.0611643197481,721.5924128675833,"[81, 0, 173]",173,l,0.013418341055512428,colour,0.5
019,65,0,1,10,31,481,722.1028415218461,723.3841127157211,"[91, 0, 163]",163,l,0.7645851105917245,colour,0.5
019,65,0,1,10,32,482,723.8948454193305,725.1680687593762,"[84, 0, 170]",170,l,0.7536090100184083,colour,0.5
019,65,0,1,10,33,483,725.6769803180359,726.3122535014991,"[29, 0, 225]",225,a,0.11759972758591175,colour,0.5
019,65,0,1,10,34,484,726.8215896266047,727.5040526778903,"[95, 0, 159]",159,l,0.16558358957991004,colour,0.5
019,65,0,1,10,35,485,728.0131564333569,728.6249674092978,"[34, 0, 220]",220,a,0.09318756288848817,colour,0.5
019,65,0,1,10,36,486,729.1348529497627,729.6800428663846,"[66, 0, 188]",188,l,0.02731835632584989,colour,0.5
019,65,0,1,10,37,487,730.1889800250065,730.7679989698809,"[70, 0, 184]",184,l,0.06262745847925544,colour,0.5
019,65,0,1,10,38,488,731.2775190209504,732.0240553400945,"[55, 0, 199]",199,l,0.22928900504484773,colour,0.5
019,65,0,1,10,39,489,732.5340267391875,733.1680254363455,"[4, 0, 250]",250,a,0.1144485641270876,colour,0.5
019,65,0,1,10,40,490,733.6770937456749,734.3921290619764,"[47, 0, 207]",207,a,0.19745283899828792,colour,0.5
019,65,0,1,10,41,491,734.901811377611,735.6000716013368,"[87, 0, 167]",167,l,0.1783390874043107,colour,0.5
019,65,0,1,10,42,492,736.1093974863179,736.7520300804172,"[17, 0, 237]",237,a,0.12418444291688502,colour,0.5
019,65,0,1,10,43,493,737.2627423042431,738.000033083139,"[53, 0, 201]",201,l,0.21771228895522654,colour,0.5
019,65,0,1,10,44,494,738.5092628696002,739.3360595370177,"[72, 0, 182]",182,l,0.3100286640692502,colour,0.5
019,65,0,1,10,45,495,739.8451888926793,740.5040944255888,"[57, 0, 197]",197,l,0.1412206555251032,colour,0.5
019,65,0,1,10,46,496,741.0131068087649,741.6241107936949,"[68, 0, 186]",186,l,0.0914829964749515,colour,0.5
019,65,0,1,10,47,497,742.1332047032192,743.3920274495613,"[2, 0, 252]",252,a,0.7417243060190231,colour,0.5
019,65,0,1,10,48,498,743.9016735313926,745.1041203406639,"[94, 0, 160]",160,l,0.684455125592649,colour,0.5
019,65,0,1,10,49,499,745.6132268530782,746.1840545840096,"[16, 0, 238]",238,a,0.05374740739353001,colour,0.5
019,65,0,1,10,50,500,746.6932520749979,747.3444933602586,"[14, 0, 240]",240,a,0.1329798169899732,colour,0.5
019,65,0,1,11,1,501,751.8444338894915,752.4960367253516,"[18, 0, 236]",236,a,0.1341739585623145,colour,0.5
019,65,0,1,11,2,502,753.0049486779608,753.544857904315,"[79, 0, 175]",175,l,0.019916410092264414,colour,0.5
019,65,0,1,11,3,503,754.054735961603,754.7440558758099,"[61, 0, 193]",193,l,0.17247274774126709,colour,0.5
019,65,0,1,11,4,504,755.2538634347729,755.8560373871587,"[70, 0, 184]",184,l,0.0824647054541856,colour,0.5
019,65,0,1,11,5,505,756.3651817089412,757.6400170614943,"[76, 0, 178]",178,l,0.7584915217012167,colour,0.5
019,65,0,1,11,6,506,758.1499833404087,758.8240192639641,"[23, 0, 231]",231,a,0.1554420490283519,colour,0.5
019,65,0,1,11,7,507,759.3337819243316,760.0960555511992,"[24, 0, 230]",230,a,0.24606094672344625,colour,0.5
019,65,0,1,11,8,508,760.60496947309,761.2560603090096,"[97, 0, 157]",157,l,0.13301880774088204,colour,0.5
019,65,0,1,11,9,509,761.7650852953084,763.1440279914532,"[87, 0, 167]",167,l,0.8619915542658418,colour,0.5
019,65,0,1,11,10,510,763.6544637351763,764.4321265097242,"[84, 0, 170]",170,l,0.2580535646993667,colour,0.5
019,65,0,1,11,11,511,764.941343299346,765.8881027719472,"[90, 0, 164]",164,l,0.42788517964072526,colour,0.5
019,65,0,1,11,12,512,766.3971482382622,767.30403747526,"[52, 0, 202]",202,l,0.3884603842161596,colour,0.5
019,65,0,1,11,13,513,767.8139159264974,768.3521375218406,"[22, 0, 232]",232,a,0.01984394248574972,colour,0.5
019,65,0,1,11,14,514,768.862208957551,769.4480371098034,"[4, 0, 250]",250,a,0.06813697330653667,colour,0.5
019,65,0,1,11,15,515,769.9571239301004,770.5760418612044,"[17, 0, 237]",237,a,0.10282694944180548,colour,0.5
019,65,0,1,11,16,516,771.0852744046133,771.8162281976547,"[58, 0, 196]",196,l,0.21295068808831275,colour,0.5
019,65,0,1,11,17,517,772.3256352150347,772.9920604538638,"[51, 0, 203]",203,l,0.15012866957113147,colour,0.5
019,65,0,1,11,18,518,773.5010342402384,774.1440358683467,"[85, 0, 169]",169,l,0.12446761829778552,colour,0.5
019,65,0,1,11,19,519,774.6533463932574,776.136055362178,"[98, 0, 156]",156,l,0.9662658886518329,colour,0.5
019,65,0,1,11,20,520,776.6446037946735,777.3440219264012,"[41, 0, 213]",213,a,0.18177066976204515,colour,0.5
019,65,0,1,11,21,521,777.8538574483246,778.3760739204008,"[83, 0, 171]",171,l,0.005238154903054237,colour,0.5
019,65,0,1,11,22,522,778.8941483115777,779.5360499271192,"[66, 0, 188]",188,l,0.12120696529746056,colour,0.5
019,65,0,1,11,23,523,780.0452686860226,781.4240412404761,"[88, 0, 166]",166,l,0.8609573140274733,colour,0.5
019,65,0,1,11,24,524,781.9330339315347,782.4562885821797,"[91, 0, 163]",163,l,0.006648518145084381,colour,0.5
019,65,0,1,11,25,525,782.977324697189,783.6880210093223,"[30, 0, 224]",224,a,0.1943430290557444,colour,0.5
019,65,0,1,11,26,526,784.1990053807385,785.4240581758786,"[27, 0, 227]",227,a,0.7044566064141691,colour,0.5
019,65,0,1,11,27,527,785.933136331616,786.6880678771995,"[54, 0, 200]",200,l,0.23845577635802329,colour,0.5
019,65,0,1,11,28,528,787.1970920758322,787.9921159863006,"[68, 0, 186]",186,l,0.2764611497987062,colour,0.5
019,65,0,1,11,29,529,788.5018707697745,789.0882353405468,"[16, 0, 238]",238,a,0.06735125021077693,colour,0.5
019,65,0,1,11,30,530,789.5989507150371,790.4000339496415,"[48, 0, 206]",206,a,0.28034329204820096,colour,0.5
019,65,0,1,11,31,531,790.9107071824837,792.3440081416629,"[43, 0, 211]",211,a,0.9135696568991989,colour,0.5
019,65,0,1,11,32,532,792.853855479043,793.4400345482863,"[1, 0, 253]",253,a,0.0665816746186465,colour,0.5
019,65,0,1,11,33,533,793.9490871038288,794.5121119532268,"[8, 0, 246]",246,a,0.0448614489287138,colour,0.5
019,65,0,1,11,34,534,795.0230041646864,795.7200450403616,"[9, 0, 245]",245,a,0.17921027541160583,colour,0.5
019,65,0,1,11,35,535,796.2297194791026,796.9120919457637,"[59, 0, 195]",195,l,0.163652561372146,colour,0.5
019,65,0,1,11,36,536,797.4211929445155,798.0080163462553,"[36, 0, 218]",218,a,0.06977497995831072,colour,0.5
019,65,0,1,11,37,537,798.5167687910143,799.1201809961349,"[14, 0, 240]",240,l,0.08669855259358883,colour,0.5
019,65,0,1,11,38,538,799.629554142477,800.8000493883155,"[6, 0, 248]",248,a,0.649090884719044,colour,0.5
019,65,0,1,11,39,539,801.3093311625998,802.8560456580017,"[39, 0, 215]",215,a,1.027561359340325,colour,0.5
019,65,0,1,11,40,540,803.3654711858835,803.8960730379913,"[95, 0, 159]",159,l,0.01259047631174326,colour,0.5
019,65,0,1,11,41,541,804.4054950214922,805.1600701361895,"[11, 0, 243]",243,a,0.23598872334696352,colour,0.5
019,65,0,1,11,42,542,805.669689436676,806.25606424734,"[72, 0, 182]",182,l,0.06720316386781633,colour,0.5
019,65,0,1,11,43,543,806.7652282614727,807.8241606547963,"[94, 0, 160]",160,l,0.5419654976576567,colour,0.5
019,65,0,1,11,44,544,808.3341497767251,808.9120702843647,"[12, 0, 242]",242,a,0.05998632567934692,colour,0.5
019,65,0,1,11,45,545,809.4217270000372,810.0002544247545,"[93, 0, 161]",161,l,0.05644092196598649,colour,0.5
019,65,0,1,11,46,546,810.5097811713349,811.352044573985,"[50, 0, 204]",204,l,0.32610704260878265,colour,0.5
019,65,0,1,11,47,547,811.8610286004841,812.3922700588591,"[5, 0, 249]",249,a,0.012360076187178493,colour,0.5
019,65,0,1,11,48,548,812.9016916484106,813.6160448228475,"[20, 0, 234]",234,a,0.19772538030520082,colour,0.5
019,65,0,1,11,49,549,814.1252025354188,814.673384108115,"[26, 0, 228]",228,a,0.030011476716026664,colour,0.5
019,65,0,1,11,50,550,815.1842318149284,815.7921886115801,"[46, 0, 208]",208,a,0.08924595010466874,colour,0.5
019,65,0,1,12,1,551,821.156344350893,821.8404493471608,"[73, 0, 181]",181,l,0.16360530001111329,colour,0.5
019,65,0,1,12,2,552,822.3503896321636,823.0000618339982,"[76, 0, 178]",178,l,0.13053127494640648,colour,0.5
019,65,0,1,12,3,553,823.5086717063095,824.432060343679,"[89, 0, 165]",165,l,0.4064304062630981,colour,0.5
019,65,0,1,12,4,554,824.9422924686223,825.5046966164373,"[17, 0, 237]",237,a,0.04429352260194719,colour,0.5
019,65,0,1,12,5,555,826.0145337136928,827.0160890123807,"[49, 0, 205]",205,a,0.48249629186466336,colour,0.5
019,65,0,1,12,6,556,827.5263786390424,828.3521134972107,"[57, 0, 197]",197,a,0.3062000849749893,colour,0.5
019,65,0,1,12,7,557,828.861296022078,830.2720532228705,"[38, 0, 216]",216,a,0.8913539724890143,colour,0.5
019,65,0,1,12,8,558,830.7812357477378,831.3360307861585,"[46, 0, 208]",208,a,0.035973914666101336,colour,0.5
019,65,0,1,12,9,559,831.8449860617984,832.3761503265705,"[6, 0, 248]",248,a,0.014073307393118739,colour,0.5
019,65,0,1,12,10,560,832.8849736636039,833.5760489504319,"[7, 0, 247]",247,a,0.17256569559685886,colour,0.5
019,65,0,1,12,11,561,834.0854894446675,835.496036331635,"[26, 0, 228]",228,a,0.8926765080541372,colour,0.5
019,65,0,1,12,12,562,836.0057749673724,836.8320962623693,"[32, 0, 222]",222,a,0.30700116814114153,colour,0.5
019,65,0,1,12,13,563,837.3419762889389,838.1840829409193,"[43, 0, 211]",211,a,0.323790832888335,colour,0.5
019,65,0,1,12,14,564,838.6931429796387,839.2400626689196,"[78, 0, 176]",176,l,0.03069676924496889,colour,0.5
019,65,0,1,12,15,565,839.7495516061317,840.3200670168735,"[82, 0, 172]",172,l,0.05230789934284985,colour,0.5
019,65,0,1,12,16,566,840.8300506251398,841.4880357391667,"[37, 0, 217]",217,a,0.1410918675828725,colour,0.5
019,65,0,1,12,17,567,841.9971233471297,842.7040241633076,"[94, 0, 160]",160,l,0.1886755817104131,colour,0.5
019,65,0,1,12,18,568,843.2131716359872,843.7604969867971,"[92, 0, 162]",162,l,0.02912807953543961,colour,0.5
019,65,0,1,12,19,569,844.2717665028758,844.9840767970309,"[61, 0, 193]",193,l,0.19604050647467375,colour,0.5
019,65,0,1,12,20,570,845.493419223465,846.1361014423892,"[29, 0, 225]",225,a,0.126415581908077,colour,0.5
019,65,0,1,12,21,571,846.645266244188,847.2880788261537,"[63, 0, 191]",191,l,0.12386424606665969,colour,0.5
019,65,0,1,12,22,572,847.7977233326528,848.5120595716871,"[18, 0, 236]",236,a,0.19457421684637666,colour,0.5
019,65,0,1,12,23,573,849.0211345765274,850.4880373147316,"[93, 0, 161]",161,l,0.9484482852276415,colour,0.5
019,65,0,1,12,24,574,850.999413169222,851.6640672816429,"[62, 0, 192]",192,l,0.14522213325835764,colour,0.5
019,65,0,1,12,25,575,852.17371021281,852.8643061886542,"[22, 0, 232]",232,a,0.17027429793961346,colour,0.5
019,65,0,1,12,26,576,853.3752708677202,853.9920907800552,"[79, 0, 175]",175,l,0.09693264681845903,colour,0.5
019,65,0,1,12,27,577,854.5017132312059,855.1761146439239,"[54, 0, 200]",200,l,0.15635498450137675,colour,0.5
019,65,0,1,12,28,578,855.6855775874574,856.256017773645,"[36, 0, 218]",218,a,0.050478877732530236,colour,0.5
019,65,0,1,12,29,579,856.7651617014781,857.5280560301617,"[45, 0, 209]",209,l,0.24599044839851558,colour,0.5
019,65,0,1,12,30,580,858.0377678845543,858.7680698621552,"[85, 0, 169]",169,l,0.21169274323619902,colour,0.5
019,65,0,1,12,31,581,859.2773157961201,860.128079976188,"[53, 0, 201]",201,a,0.33302377024665475,colour,0.5
019,65,0,1,12,32,582,860.6374468209688,861.1920575394761,"[20, 0, 234]",234,a,0.03668992733582854,colour,0.5
019,65,0,1,12,33,583,861.7020919537172,862.6240745598916,"[52, 0, 202]",202,l,0.40352972876280546,colour,0.5
019,65,0,1,12,34,584,863.1327450845856,863.7520718281157,"[3, 0, 251]",251,a,0.10230707237496972,colour,0.5
019,65,0,1,12,35,585,864.2614705746528,864.8640805147588,"[27, 0, 227]",227,a,0.0856532845646143,colour,0.5
019,65,0,1,12,36,586,865.3730720244348,866.6800357771572,"[1, 0, 253]",253,a,0.7892024694010615,colour,0.5
019,65,0,1,12,37,587,867.1898441235535,867.7849627146497,"[68, 0, 186]",186,l,0.07504503638483584,colour,0.5
019,65,0,1,12,38,588,868.294772636611,868.8881563351024,"[8, 0, 246]",246,a,0.07619034126400948,colour,0.5
019,65,0,1,12,39,589,869.3977783923037,870.1680628515314,"[51, 0, 203]",203,l,0.2514869663864374,colour,0.5
019,65,0,1,12,40,590,870.6777971549891,871.3921330003068,"[71, 0, 183]",183,l,0.19379400741308928,colour,0.5
019,65,0,1,12,41,591,871.9020799808204,872.4640800422058,"[87, 0, 167]",167,l,0.04453258728608489,colour,0.5
019,65,0,1,12,42,592,872.9728238224052,873.6641503830906,"[59, 0, 195]",195,l,0.17231323989108205,colour,0.5
019,65,0,1,12,43,593,874.1743785697035,874.8160978346132,"[55, 0, 199]",199,l,0.12156103318557143,colour,0.5
019,65,0,1,12,44,594,875.325363461161,875.8960754012223,"[10, 0, 244]",244,a,0.05319956736639142,colour,0.5
019,65,0,1,12,45,595,876.4058506647125,876.9840476522222,"[25, 0, 229]",229,a,0.0609610949177295,colour,0.5
019,65,0,1,12,46,596,877.4930714571383,878.0642764926888,"[11, 0, 243]",243,a,0.050691948272287846,colour,0.5
019,65,0,1,12,47,597,878.5738524699118,879.1524633900262,"[74, 0, 180]",180,l,0.06134706432931125,colour,0.5
019,65,0,1,12,48,598,879.6626281675417,880.9520886060782,"[88, 0, 166]",166,l,0.7728550937026739,colour,0.5
019,65,0,1,12,49,599,881.461188029265,882.0561514450237,"[4, 0, 250]",250,a,0.07759400922805071,colour,0.5
019,65,0,1,12,50,600,882.565341453068,883.7040328278672,"[42, 0, 212]",212,a,0.621086448431015,colour,0.5
019,65,0,1,13,1,601,888.5646419820841,889.1121299914084,"[25, 0, 229]",229,a,0.03013475053012371,colour,0.5
019,65,0,1,13,2,602,889.6213633224834,890.3680650570896,"[58, 0, 196]",196,l,0.2298427529167384,colour,0.5
019,65,0,1,13,3,603,890.8770746835507,891.4721168684773,"[86, 0, 168]",168,l,0.07856484013609588,colour,0.5
019,65,0,1,13,4,604,891.9812076271046,892.8241366301663,"[40, 0, 214]",214,a,0.3240444699767977,colour,0.5
019,65,0,1,13,5,605,893.3332644102629,893.976074235281,"[35, 0, 219]",219,a,0.1240020920522511,colour,0.5
019,65,0,1,13,6,606,894.4865359729156,895.0564192603342,"[21, 0, 233]",233,a,0.04889167728833854,colour,0.5
019,65,0,1,13,7,607,895.5662476930302,896.1040663835593,"[90, 0, 164]",164,l,0.020799019373953342,colour,0.5
019,65,0,1,13,8,608,896.6131831363309,897.2642511290032,"[12, 0, 242]",242,a,0.1338935401290655,colour,0.5
019,65,0,1,13,9,609,897.7754225775134,898.4880853639916,"[50, 0, 204]",204,l,0.19294369337148964,colour,0.5
019,65,0,1,13,10,610,898.9987046397291,899.6400383291766,"[19, 0, 235]",235,a,0.12188438093289733,colour,0.5
019,65,0,1,13,11,611,900.1490719802678,901.5600524919573,"[69, 0, 185]",185,l,0.8946232900489122,colour,0.5
019,65,0,1,13,12,612,902.0702696507797,903.3200630785432,"[9, 0, 245]",245,a,0.72907908516936,colour,0.5
019,65,0,1,13,13,613,903.829188889591,904.5440717872698,"[51, 0, 203]",203,l,0.19780375598929822,colour,0.5
019,65,0,1,13,14,614,905.0549714816734,905.6161015368998,"[87, 0, 167]",167,l,0.04096591589041054,colour,0.5
019,65,0,1,13,15,615,906.1256046525668,907.3841009002645,"[92, 0, 162]",162,l,0.738777942257002,colour,0.5
019,65,0,1,13,16,616,907.8934307238087,908.5761289012153,"[73, 0, 181]",181,l,0.16585613111965358,colour,0.5
019,65,0,1,13,17,617,909.0844642629381,909.8481013856363,"[61, 0, 193]",193,l,0.24549695919267833,colour,0.5
019,65,0,1,13,18,618,910.3588199107908,911.0881266389042,"[28, 0, 226]",226,a,0.20989759196527302,colour,0.5
019,65,0,1,13,19,619,911.5972646591254,912.1841010579374,"[27, 0, 227]",227,a,0.06763639487326145,colour,0.5
019,65,0,1,13,20,620,912.6942106967326,913.3920703788754,"[57, 0, 197]",197,l,0.18012439250014722,colour,0.5
019,65,0,1,13,21,621,913.9019634022843,914.6721824831329,"[89, 0, 165]",165,l,0.25319389603100717,colour,0.5
019,65,0,1,13,22,622,915.181303961901,915.8721409719437,"[37, 0, 217]",217,a,0.1720210062339902,colour,0.5
019,65,0,1,13,23,623,916.3816598413978,916.9611061094329,"[2, 0, 252]",252,a,0.06142543978057802,colour,0.5
019,65,0,1,13,24,624,917.4709562035277,918.0241124478634,"[72, 0, 182]",182,l,0.03623976092785597,colour,0.5
019,65,0,1,13,25,625,918.5339719944168,919.2161250887439,"[34, 0, 220]",220,a,0.1631862474605441,colour,0.5
019,65,0,1,13,26,626,919.7248023089487,920.3201048262417,"[38, 0, 216]",216,a,0.07761606457643211,colour,0.5
019,65,0,1,13,27,627,920.8291668342426,921.5601375626866,"[14, 0, 240]",240,a,0.2122386139817536,colour,0.5
019,65,0,1,13,28,628,922.0707918908447,923.4320646759588,"[83, 0, 171]",171,l,0.8411472425796092,colour,0.5
019,65,0,1,13,29,629,923.9418832624797,924.4964309656061,"[91, 0, 163]",163,l,0.03391724987886846,colour,0.5
019,65,0,1,13,30,630,925.0060191520024,925.6489546140656,"[3, 0, 251]",251,a,0.12366102123633027,colour,0.5
019,65,0,1,13,31,631,926.1606943823863,926.6970377250109,"[97, 0, 157]",157,l,0.014433282893151045,colour,0.5
019,65,0,1,13,32,632,927.2077503425535,928.0480614495464,"[20, 0, 234]",234,a,0.3208263523411006,colour,0.5
019,65,0,1,13,33,633,928.5563105589245,929.6400497506838,"[23, 0, 231]",231,a,0.5662476930301636,colour,0.5
019,65,0,1,13,34,634,930.1492566941306,930.7200879696757,"[62, 0, 192]",192,l,0.053677303018048406,colour,0.5
019,65,0,1,13,35,635,931.2291192575358,931.9120683150832,"[70, 0, 184]",184,l,0.16573797725141048,colour,0.5
019,65,0,1,13,36,636,932.4215332276653,932.9443144751713,"[78, 0, 176]",176,l,0.004594610072672367,colour,0.5
019,65,0,1,13,37,637,933.4616031432524,934.1603619763628,"[63, 0, 191]",191,l,0.17899287235923111,colour,0.5
019,65,0,1,13,38,638,934.6700789504685,935.3280975415837,"[68, 0, 186]",186,l,0.14114188612438738,colour,0.5
019,65,0,1,13,39,639,935.8380685467273,936.3921263050288,"[17, 0, 237]",237,a,0.035737607162445784,colour,0.5
019,65,0,1,13,40,640,936.901869273046,937.6480964231305,"[6, 0, 248]",248,a,0.2273319831583649,colour,0.5
019,65,0,1,13,41,641,938.1587877729908,939.0960634283256,"[10, 0, 244]",244,a,0.41652074665762484,colour,0.5
019,65,0,1,13,42,642,939.6049915284384,940.464092251379,"[47, 0, 207]",207,a,0.342961298301816,colour,0.5
019,65,0,1,13,43,643,940.9746422104072,941.4964593225159,"[98, 0, 156]",156,l,0.0020952620543539524,colour,0.5
019,65,0,1,13,44,644,942.0129768396728,943.3841060204431,"[94, 0, 160]",160,l,0.8534911712631583,colour,0.5
019,65,0,1,13,45,645,943.8940151915886,944.6801066694316,"[36, 0, 218]",218,a,0.2672833511605859,colour,0.5
019,65,0,1,13,46,646,945.1901312374976,945.7443201467395,"[24, 0, 230]",230,a,0.03435363154858351,colour,0.5
019,65,0,1,13,47,647,946.2536180685274,946.9441210967489,"[16, 0, 238]",238,a,0.17266612639650702,colour,0.5
019,65,0,1,13,48,648,947.4525616152678,948.7281181004364,"[81, 0, 173]",173,l,0.7579637677408755,colour,0.5
019,65,0,1,13,49,649,949.2372116160113,949.9600509952288,"[67, 0, 187]",187,l,0.20645616366527975,colour,0.5
019,65,0,1,13,50,650,950.4692508494481,951.1520719069522,"[18, 0, 236]",236,a,0.1643201308324933,colour,0.5
019,65,0,1,14,1,651,956.5721093066968,958.1121351113543,"[93, 0, 161]",161,l,1.0219644103199244,colour,0.5
019,65,0,1,14,2,652,958.6215968732722,959.5521424841136,"[44, 0, 210]",210,l,0.4121356625109911,colour,0.5
019,65,0,1,14,3,653,960.0612226091325,960.8640970564447,"[51, 0, 203]",203,l,0.28546801931224763,colour,0.5
019,65,0,1,14,4,654,961.3731964796316,963.1920508439653,"[30, 0, 224]",224,a,1.3017917638644576,colour,0.5
019,65,0,1,14,5,655,963.7014180829283,964.3201111278031,"[64, 0, 190]",190,l,0.10032287519425154,colour,0.5
019,65,0,1,14,6,656,964.8292263050098,965.4240542375483,"[5, 0, 249]",249,a,0.07646957831457257,colour,0.5
019,65,0,1,14,7,657,965.9337948423345,966.5680814411025,"[73, 0, 181]",181,l,0.11557535803876817,colour,0.5
019,65,0,1,14,8,658,967.0771162738092,967.6162094506435,"[80, 0, 174]",174,l,0.02120822574943304,colour,0.5
019,65,0,1,14,9,659,968.1259461170994,968.7680946744513,"[45, 0, 209]",209,a,0.12302889814600348,colour,0.5
019,65,0,1,14,10,660,969.2771365961526,969.9120482290164,"[7, 0, 247]",247,a,0.11734845396131277,colour,0.5
019,65,0,1,14,11,661,970.4230113325175,971.072422808269,"[60, 0, 194]",194,l,0.1278361852746457,colour,0.5
019,65,0,1,14,12,662,971.5825300840661,972.1041006483138,"[90, 0, 164]",164,l,0.003128714393824339,colour,0.5
019,65,0,1,14,13,663,972.6148329579737,973.4080912559293,"[77, 0, 177]",177,l,0.2749798942822963,colour,0.5
019,65,0,1,14,14,664,973.9189409317914,974.4647251623683,"[13, 0, 241]",241,a,0.025439709657803178,colour,0.5
019,65,0,1,14,15,665,974.9742255210876,975.5200794625562,"[81, 0, 173]",173,l,0.02878543338738382,colour,0.5
019,65,0,1,14,16,666,976.0292218150571,977.5281040794216,"[88, 0, 166]",166,l,0.9817936702165753,colour,0.5
019,65,0,1,14,17,667,978.0380494846031,978.704072606517,"[72, 0, 182]",182,l,0.14925787574611604,colour,0.5
019,65,0,1,14,18,668,979.2134733221028,980.0001862894278,"[66, 0, 188]",188,l,0.26921398541890085,colour,0.5
019,65,0,1,14,19,669,980.5091147834901,981.0723936634604,"[29, 0, 225]",225,a,0.04564441507682204,colour,0.5
019,65,0,1,14,20,670,981.5822071300354,982.1040805620141,"[24, 0, 230]",230,a,0.004868726944550872,colour,0.5
019,65,0,1,14,21,671,982.6148494996596,984.1600933731534,"[84, 0, 170]",170,l,1.026232521981001,colour,0.5
019,65,0,1,14,22,672,984.6690813379828,985.5041235701647,"[50, 0, 204]",204,l,0.3179252811241895,colour,0.5
019,65,0,1,14,23,673,986.0134892335627,986.7200800925493,"[89, 0, 165]",165,a,0.18667996278963983,colour,0.5
019,65,0,1,14,24,674,987.2291035037488,988.2480927996803,"[0, 0, 254]",254,a,0.5016462772618979,colour,0.5
019,65,0,1,14,25,675,988.7580768016633,989.9920699063223,"[40, 0, 214]",214,a,0.7149403993971646,colour,0.5
019,65,0,1,14,26,676,990.5030353730544,991.9841752585489,"[87, 0, 167]",167,l,0.9619599678553641,colour,0.5
019,65,0,1,14,27,677,992.4932014264632,993.2003968395293,"[31, 0, 223]",223,a,0.18978307745419443,colour,0.5
019,65,0,1,14,28,678,993.7118861218914,994.448106033029,"[6, 0, 248]",248,a,0.2165618643630296,colour,0.5
019,65,0,1,14,29,679,994.9571255054325,996.0961004497949,"[22, 0, 232]",232,a,0.6200403929688036,colour,0.5
019,65,0,1,14,30,680,996.6053503223229,997.6721025323495,"[2, 0, 252]",252,a,0.5498451788444072,colour,0.5
019,65,0,1,14,31,681,998.1837375378236,999.048146126559,"[11, 0, 243]",243,a,0.34389510774053633,colour,0.5
019,65,0,1,14,32,682,999.557257759152,1000.3521702110302,"[59, 0, 195]",195,l,0.2768376669846475,colour,0.5
019,65,0,1,14,33,683,1000.8614129943307,1002.4081274897326,"[97, 0, 157]",157,l,1.0292513535823673,colour,0.5
019,65,0,1,14,34,684,1002.9172044638544,1003.5291395012755,"[34, 0, 220]",220,a,0.09326554462313652,colour,0.5
019,65,0,1,14,35,685,1004.0387422600761,1004.56809995207,"[98, 0, 156]",156,l,0.01214582403190434,colour,0.5
019,65,0,1,14,36,686,1005.0902411993593,1005.7844475638121,"[8, 0, 246]",246,a,0.17684995476156473,colour,0.5
019,65,0,1,14,37,687,1006.2941984087229,1007.3520780510735,"[14, 0, 240]",240,a,0.5406543835997581,colour,0.5
019,65,0,1,14,38,688,1007.8608553081285,1008.9681268122513,"[41, 0, 213]",213,a,0.5891659990884364,colour,0.5
019,65,0,1,14,39,689,1009.4775543094147,1010.0481016219128,"[95, 0, 159]",159,l,0.05317987501621246,colour,0.5
019,65,0,1,14,40,690,1010.5581403684337,1011.6400824398734,"[83, 0, 171]",171,l,0.5626321844756603,colour,0.5
019,65,0,1,14,41,691,1012.1503370143473,1013.1441910439171,"[23, 0, 231]",231,a,0.47367256111465394,colour,0.5
019,65,0,1,14,42,692,1013.6532747133169,1014.2082387118135,"[61, 0, 193]",193,l,0.037857681280002,colour,0.5
019,65,0,1,14,43,693,1014.7183739508037,1015.2401146565098,"[52, 0, 202]",202,l,0.004371693124994636,colour,0.5
019,65,0,1,14,44,694,1015.7608467221726,1016.3761196064297,"[39, 0, 215]",215,a,0.0980527454521507,colour,0.5
019,65,0,1,14,45,695,1016.8860862792935,1017.624136393657,"[1, 0, 253]",253,a,0.21975004929117858,colour,0.5
019,65,0,1,14,46,696,1018.1338088633493,1019.1681203532498,"[9, 0, 245]",245,a,0.515907843131572,colour,0.5
019,65,0,1,14,47,697,1019.6771016225684,1020.2325047596823,"[15, 0, 239]",239,a,0.037239342695102096,colour,0.5
019,65,0,1,14,48,698,1020.7424088108819,1021.2961042306852,"[86, 0, 168]",168,l,0.03723185951821506,colour,0.5
019,65,0,1,14,49,699,1021.8062642819714,1022.8960911550093,"[37, 0, 217]",217,a,0.5730821066536009,colour,0.5
019,65,0,1,14,50,700,1023.4056620122865,1024.3921022803988,"[54, 0, 200]",200,l,0.4679818768054247,colour,0.5
019,65,0,1,15,1,701,1028.596373385284,1029.1845126270782,"[2, 0, 252]",252,a,0.07036062912084162,colour,0.5
019,65,0,1,15,2,702,1029.6942229061387,1030.3365498755593,"[59, 0, 195]",195,l,0.12461373535916209,colour,0.5
019,65,0,1,15,3,703,1030.846692991443,1031.488206668524,"[10, 0, 244]",244,a,0.12341132271103561,colour,0.5
019,65,0,1,15,4,704,1031.997904344229,1032.528100534808,"[72, 0, 182]",182,l,0.01212573773227632,colour,0.5
019,65,0,1,15,5,705,1033.0387426537927,1033.6402718799654,"[30, 0, 224]",224,a,0.08244186243973672,colour,0.5
019,65,0,1,15,6,706,1034.1501416666433,1034.7920775469393,"[13, 0, 241]",241,a,0.12400839384645224,colour,0.5
019,65,0,1,15,7,707,1035.3006121946964,1036.0240734571125,"[71, 0, 183]",183,l,0.20601426833309233,colour,0.5
019,65,0,1,15,8,708,1036.534719120711,1037.1602595762815,"[25, 0, 229]",229,a,0.10466660535894334,colour,0.5
019,65,0,1,15,9,709,1037.671205744613,1039.0240781833418,"[81, 0, 173]",173,l,0.8321254069451243,colour,0.5
019,65,0,1,15,10,710,1039.5334938650485,1040.632066881517,"[3, 0, 251]",251,a,0.5800457019358873,colour,0.5
019,65,0,1,15,11,711,1041.1412608278915,1041.7601299220696,"[97, 0, 157]",157,l,0.10189707856625319,colour,0.5
019,65,0,1,15,12,712,1042.269813025603,1043.1840817593038,"[80, 0, 174]",174,l,0.3941439790651202,colour,0.5
019,65,0,1,15,13,713,1043.693093748996,1045.1762532778084,"[96, 0, 158]",158,l,0.9641418759711087,colour,0.5
019,65,0,1,15,14,714,1045.6853078026325,1046.2800739014056,"[36, 0, 218]",218,a,0.07620924571529031,colour,0.5
019,65,0,1,15,15,715,1046.7900712941773,1047.3361194017343,"[86, 0, 168]",168,l,0.027971747098490596,colour,0.5
019,65,0,1,15,16,716,1047.846870222129,1048.520114514744,"[29, 0, 225]",225,a,0.15381585783325136,colour,0.5
019,65,0,1,15,17,717,1049.029846061254,1050.0641311635263,"[54, 0, 200]",200,l,0.5179775052238256,colour,0.5
019,65,0,1,15,18,718,1050.5725964943413,1051.15211838088,"[4, 0, 250]",250,a,0.06269165547564626,colour,0.5
019,65,0,1,15,19,719,1051.6614958595019,1052.3041335737798,"[20, 0, 234]",234,a,0.1256527015939355,colour,0.5
019,65,0,1,15,20,720,1052.813542954158,1053.6160814506002,"[40, 0, 214]",214,a,0.28253977256827056,colour,0.5
019,65,0,1,15,21,721,1054.1257641601842,1055.072129786713,"[43, 0, 211]",211,a,0.4253444776404649,colour,0.5
019,65,0,1,15,22,722,1055.581355634611,1056.57609936269,"[22, 0, 232]",232,a,0.4754531397484243,colour,0.5
019,65,0,1,15,23,723,1057.0841212228406,1058.0481075295247,"[65, 0, 189]",189,l,0.4453754969872534,colour,0.5
019,65,0,1,15,24,724,1058.5568997529335,1059.4482222176157,"[69, 0, 185]",185,l,0.37470057839527726,colour,0.5
019,65,0,1,15,25,725,1059.9573204594199,1060.9201685504522,"[82, 0, 172]",172,l,0.44536131829954684,colour,0.5
019,65,0,1,15,26,726,1061.4295696599875,1062.40811055433,"[90, 0, 164]",164,l,0.46141370316036046,colour,0.5
019,65,0,1,15,27,727,1062.9170670113526,1063.8960986381862,"[93, 0, 161]",161,l,0.46100922324694693,colour,0.5
019,65,0,1,15,28,728,1064.4052216922864,1065.3601298432332,"[35, 0, 219]",219,a,0.4365915444213897,colour,0.5
019,65,0,1,15,29,729,1065.870250509819,1066.6802350631915,"[66, 0, 188]",188,l,0.2923307898454368,colour,0.5
019,65,0,1,15,30,730,1067.1892446896527,1068.9681795877405,"[74, 0, 180]",180,l,1.2606360143981874,colour,0.5
019,65,0,1,15,31,731,1069.4769024939742,1070.0801583421417,"[14, 0, 240]",240,a,0.08609833102673292,colour,0.5
019,65,0,1,15,32,732,1070.5890561160631,1071.5601166889537,"[49, 0, 205]",205,a,0.4535517448093742,colour,0.5
019,65,0,1,15,33,733,1072.0690770845395,1072.9761309493333,"[89, 0, 165]",165,l,0.38981954753398895,colour,0.5
019,65,0,1,15,34,734,1073.4864217573777,1074.128087459132,"[83, 0, 171]",171,l,0.1209588423371315,colour,0.5
019,65,0,1,15,35,735,1074.6370695163496,1075.304120970657,"[9, 0, 245]",245,a,0.14945164788514376,colour,0.5
019,65,0,1,15,36,736,1075.8131636802573,1077.2240937796887,"[99, 0, 155]",155,l,0.8931542437057942,colour,0.5
019,65,0,1,15,37,737,1077.7331353074405,1078.7121767802164,"[6, 0, 248]",248,a,0.46206709393300116,colour,0.5
019,65,0,1,15,38,738,1079.2213297667913,1080.272135536652,"[57, 0, 197]",197,l,0.5343729297164828,colour,0.5
019,65,0,1,15,39,739,1080.7827847450972,1082.9521535907406,"[44, 0, 210]",210,a,1.6505544173996896,colour,0.5
019,65,0,1,15,40,740,1083.461970995646,1084.1201999005862,"[41, 0, 213]",213,a,0.14180788025259972,colour,0.5
019,65,0,1,15,41,741,1084.628780234605,1085.1521798209287,"[8, 0, 246]",246,a,0.007119952235370874,colour,0.5
019,65,0,1,15,42,742,1085.6631811275147,1086.9840921568684,"[48, 0, 206]",206,a,0.8032686873339117,colour,0.5
019,65,0,1,15,43,743,1087.4934566388838,1088.768068286823,"[94, 0, 160]",160,l,0.7568999892100692,colour,0.5
019,65,0,1,15,44,744,1089.277509568492,1093.0561301773414,"[61, 0, 193]",193,a,3.2614233130589128,colour,0.5
019,65,0,1,15,45,745,1093.565309945261,1094.1841211440042,"[47, 0, 207]",207,a,0.10160563234239817,colour,0.5
019,65,0,1,15,46,746,1094.693942093756,1095.616127136862,"[38, 0, 216]",216,a,0.4059995384886861,colour,0.5
019,65,0,1,15,47,747,1096.1248039631173,1096.6641039093956,"[77, 0, 177]",177,l,0.02080610883422196,colour,0.5
019,65,0,1,15,48,748,1097.173132440308,1098.4961233716458,"[53, 0, 201]",201,a,0.805836564861238,colour,0.5
019,65,0,1,15,49,749,1099.0052519396413,1099.8960738258902,"[31, 0, 223]",223,a,0.37460408615879714,colour,0.5
019,65,0,1,15,50,750,1100.4069053847343,1102.0960925729014,"[98, 0, 156]",156,l,1.1696705319918692,colour,0.5
019,65,0,1,16,1,751,1107.7169714644551,1108.37613929878,"[13, 0, 241]",241,a,0.14076930773444474,colour,0.5
019,65,0,1,16,2,752,1108.8853241866454,1110.0801488896832,"[72, 0, 182]",182,l,0.6778747427742928,colour,0.5
019,65,0,1,16,3,753,1110.5887957836967,1111.184109722497,"[5, 0, 249]",249,a,0.07755541219376028,colour,0.5
019,65,0,1,16,4,754,1111.693189059617,1112.3602893510833,"[50, 0, 204]",204,l,0.1499226880259812,colour,0.5
019,65,0,1,16,5,755,1112.8697578082792,1113.4961048609111,"[96, 0, 158]",158,l,0.10735066724009812,colour,0.5
019,65,0,1,16,6,756,1114.0048927518073,1114.6241249721497,"[24, 0, 230]",230,a,0.10273597086779773,colour,0.5
019,65,0,1,16,7,757,1115.1339195340406,1115.9840838862583,"[37, 0, 217]",217,a,0.33167169615626335,colour,0.5
019,65,0,1,16,8,758,1116.4931691309903,1117.120117980754,"[67, 0, 187]",187,l,0.10746055049821734,colour,0.5
019,65,0,1,16,9,759,1117.6291599024553,1118.2162042518612,"[15, 0, 239]",239,a,0.07016488770022988,colour,0.5
019,65,0,1,16,10,760,1118.7243422965985,1119.296240107622,"[92, 0, 162]",162,l,0.05499708163551986,colour,0.5
019,65,0,1,16,11,761,1119.8045368723106,1120.7360923050437,"[58, 0, 196]",196,l,0.41443257383070886,colour,0.5
019,65,0,1,16,12,762,1121.2447821283713,1121.7921559221577,"[89, 0, 165]",165,l,0.028073753230273724,colour,0.5
019,65,0,1,16,13,763,1122.3029583366588,1123.4481013067998,"[91, 0, 163]",163,l,0.6268933173269033,colour,0.5
019,65,0,1,16,14,764,1123.9571270807646,1124.84009409789,"[69, 0, 185]",185,l,0.3627831854391843,colour,0.5
019,65,0,1,16,15,765,1125.3490525241941,1125.8882098980248,"[94, 0, 160]",160,l,0.021922662621363997,colour,0.5
019,65,0,1,16,16,766,1126.398272275459,1127.184134534793,"[29, 0, 225]",225,a,0.2676307235378772,colour,0.5
019,65,0,1,16,17,767,1127.6940350413788,1128.264117221348,"[77, 0, 177]",177,l,0.052838410483673215,colour,0.5
019,65,0,1,16,18,768,1128.7756179252174,1129.4721401054412,"[21, 0, 233]",233,a,0.1766546070575714,colour,0.5
019,65,0,1,16,19,769,1129.981222987175,1130.680146841798,"[47, 0, 207]",207,a,0.18059582635760307,colour,0.5
019,65,0,1,16,20,770,1131.1905766776763,1131.8961864658631,"[20, 0, 234]",234,a,0.18596158735454082,colour,0.5
019,65,0,1,16,21,771,1132.4051858521998,1133.000164627796,"[8, 0, 246]",246,a,0.07875191699713469,colour,0.5
019,65,0,1,16,22,772,1133.5094278911129,1134.6882120247465,"[12, 0, 242]",242,a,0.6610638101119548,colour,0.5
019,65,0,1,16,23,773,1135.1970452081878,1136.3682336234488,"[42, 0, 212]",212,a,0.6543266766238958,colour,0.5
019,65,0,1,16,24,774,1136.8768115942366,1137.984085067641,"[7, 0, 247]",247,a,0.5900379745289683,colour,0.5
019,65,0,1,16,25,775,1138.4931017833296,1141.032107920153,"[61, 0, 193]",193,a,2.0221203735563904,colour,0.5
019,65,0,1,16,26,776,1141.5409072327893,1142.1360813560896,"[56, 0, 198]",198,a,0.07767907995730639,colour,0.5
019,65,0,1,16,27,777,1142.6453899117187,1143.616119653685,"[73, 0, 181]",181,l,0.45245803357101977,colour,0.5
019,65,0,1,16,28,778,1144.1254435693845,1145.064241440501,"[32, 0, 222]",222,a,0.42049780604429543,colour,0.5
019,65,0,1,16,29,779,1145.5729092082474,1146.6481507739518,"[53, 0, 201]",201,a,0.5575960730202496,colour,0.5
019,65,0,1,16,30,780,1147.1580753051676,1148.2561713736504,"[40, 0, 214]",214,a,0.5766389321070164,colour,0.5
019,65,0,1,16,31,781,1148.7666295664385,1149.368120195577,"[25, 0, 229]",229,a,0.08329099486581981,colour,0.5
019,65,0,1,16,32,782,1149.8774074835237,1150.4321209960617,"[11, 0, 243]",243,a,0.03744177985936403,colour,0.5
019,65,0,1,16,33,783,1150.9410896622576,1151.6321649490856,"[19, 0, 235]",235,a,0.17361135710962117,colour,0.5
019,65,0,1,16,34,784,1152.1409307848662,1153.2960975354072,"[14, 0, 240]",240,a,0.6380679165013134,colour,0.5
019,65,0,1,16,35,785,1153.8049350508954,1154.9600966814905,"[23, 0, 231]",231,a,0.6377607164904475,colour,0.5
019,65,0,1,16,36,786,1155.469126000069,1156.0644533296581,"[84, 0, 170]",170,l,0.07830923376604915,colour,0.5
019,65,0,1,16,37,787,1156.5745657256339,1157.1441370870452,"[88, 0, 166]",166,l,0.05297665065154433,colour,0.5
019,65,0,1,16,38,788,1157.6540119934361,1158.2561067829374,"[43, 0, 211]",211,a,0.08356826263479888,colour,0.5
019,65,0,1,16,39,789,1158.7656197447795,1159.5681873857975,"[6, 0, 248]",248,a,0.28645933023653924,colour,0.5
019,65,0,1,16,40,790,1160.0766227843706,1161.3441203879192,"[98, 0, 156]",156,l,0.750149464700371,colour,0.5
019,65,0,1,16,41,791,1161.8536404389888,1163.4641150946263,"[54, 0, 200]",200,a,1.0930233290418983,colour,0.5
019,65,0,1,16,42,792,1163.9747544566635,1164.5522980534006,"[1, 0, 253]",253,a,0.057206558994948864,colour,0.5
019,65,0,1,16,43,793,1165.0624313231092,1165.6001440689433,"[95, 0, 159]",159,l,0.02145753032527864,colour,0.5
019,65,0,1,16,44,794,1166.1100796279497,1166.8241519900039,"[33, 0, 221]",221,a,0.19486684445291758,colour,0.5
019,65,0,1,16,45,795,1167.3337539611384,1167.960413333727,"[26, 0, 228]",228,a,0.10745621798560023,colour,0.5
019,65,0,1,16,46,796,1168.4699995510746,1169.0561943743378,"[70, 0, 184]",184,l,0.06873010587878525,colour,0.5
019,65,0,1,16,47,797,1169.565232357476,1170.504103483865,"[60, 0, 194]",194,l,0.42030954733490944,colour,0.5
019,65,0,1,16,48,798,1171.013339965837,1172.040135294199,"[82, 0, 172]",172,l,0.5089781186543405,colour,0.5
019,65,0,1,16,49,799,1172.5491823358461,1173.7841076746117,"[87, 0, 167]",167,l,0.7179726215545088,colour,0.5
019,65,0,1,16,50,800,1174.2934115040116,1174.8321183177177,"[83, 0, 171]",171,l,0.02247089659795165,colour,0.5
