id,age,condition,counterbalance,block,trialinblock,trial,tstart,tend,trialstim,trialintensity,response,RT,trialtype,colourfreq
122,21,1,2,Practice,1,NA,5.00003807246685e-06,0.7205217000446282,"[14, 0, 240]",240,a,0.1962554000201635,colour,0.5
122,21,1,2,Practice,2,NA,1.2227515000267886,1.9285689000389539,"[6, 0, 248]",248,a,0.18266099999891594,colour,0.5
122,21,1,2,Practice,3,NA,2.4289197000325657,3.2405362999998033,"[92, 0, 162]",162,l,0.28842190001159906,colour,0.5
122,21,1,2,Practice,4,NA,3.756917099992279,4.400532700004987,"[60, 0, 194]",194,a,0.12034929997753352,colour,0.5
122,21,1,2,Practice,5,NA,4.913455600035377,5.440503699996043,"[67, 0, 187]",187,a,0.0042057999526150525,colour,0.5
122,21,1,2,Practice,6,NA,5.959937300009187,6.6085234000347555,"[30, 0, 224]",224,a,0.12539370002923533,colour,0.5
122,21,1,2,Practice,7,NA,7.116078399994876,11.600580200029071,"[13, 0, 241]",241,a,3.9613224000204355,colour,0.5
122,21,1,2,Practice,8,NA,12.115667800011579,13.080564400006551,"[69, 0, 185]",185,l,0.4445105000049807,colour,0.5
122,21,1,2,Practice,9,NA,13.597096100042108,14.376519600045867,"[11, 0, 243]",243,a,0.2685439000488259,colour,0.5
122,21,1,2,Practice,10,NA,14.89713880000636,15.544556200038642,"[81, 0, 173]",173,l,0.12448130000848323,colour,0.5
122,21,1,2,1,1,1,5.25852540001506,6.432020900014322,"[28, 0, 226]",226,a,0.6495880000293255,colour,0.5
122,21,1,2,1,2,2,6.937380400020629,9.16000020003412,"[38, 0, 216]",216,a,1.6963520999997854,colour,0.5
122,21,1,2,1,3,3,9.674536900012754,10.280006300017703,"[71, 0, 183]",183,l,0.08219889999600127,colour,0.5
122,21,1,2,1,4,4,10.799474800005555,12.024007100029849,"[56, 0, 198]",198,a,0.7013588999980129,colour,0.5
122,21,1,2,1,5,5,12.533673500001896,13.471958699985407,"[24, 0, 230]",230,a,0.41519739996874705,colour,0.5
122,21,1,2,1,6,6,13.986688799981494,14.895989699987695,"[37, 0, 217]",217,a,0.38606359995901585,colour,0.5
122,21,1,2,1,7,7,15.411038200021721,16.063984700012952,"[34, 0, 220]",220,a,0.13036479998845607,colour,0.5
122,21,1,2,1,8,8,16.583009399997536,17.14398789999541,"[80, 0, 174]",174,l,0.037766599969472736,colour,0.5
122,21,1,2,1,9,9,17.661019399994984,18.591977400006726,"[4, 0, 250]",250,a,0.40766069997334853,colour,0.5
122,21,1,2,1,10,10,19.098423500021454,19.9359835999785,"[2, 0, 252]",252,a,0.3144323999877088,colour,0.5
122,21,1,2,1,11,11,20.43815549998544,21.18401329999324,"[65, 0, 189]",189,l,0.22260549996281043,colour,0.5
122,21,1,2,1,12,12,21.7036616000114,22.344002900004853,"[70, 0, 184]",184,l,0.11407660000259057,colour,0.5
122,21,1,2,1,13,13,22.860976800031494,23.767964800004847,"[95, 0, 159]",159,l,0.3836672999896109,colour,0.5
122,21,1,2,1,14,14,24.2845202999888,25.247980699990876,"[45, 0, 209]",209,a,0.44046710000839084,colour,0.5
122,21,1,2,1,15,15,25.76883070002077,26.59195810003439,"[17, 0, 237]",237,a,0.30003820004640147,colour,0.5
122,21,1,2,1,16,16,27.112391200033017,28.935961499984842,"[11, 0, 243]",243,a,1.3003957999753766,colour,0.5
122,21,1,2,1,17,17,29.456001300015487,30.455977400008123,"[44, 0, 210]",210,a,0.47663260000990704,colour,0.5
122,21,1,2,1,18,18,30.97160069999518,31.583988400001545,"[66, 0, 188]",188,l,0.0891455999808386,colour,0.5
122,21,1,2,1,19,19,32.0840752000222,32.85598920000484,"[10, 0, 244]",244,a,0.24883719999343157,colour,0.5
122,21,1,2,1,20,20,33.35273630003212,34.03198540001176,"[90, 0, 164]",164,l,0.15593629999784753,colour,0.5
122,21,1,2,1,21,21,34.54022660001647,35.67196700000204,"[25, 0, 229]",229,a,0.6085871999966912,colour,0.5
122,21,1,2,1,22,22,36.18118770001456,37.215942799986806,"[64, 0, 190]",190,l,0.511474700004328,colour,0.5
122,21,1,2,1,23,23,37.718733499990776,38.5839641999919,"[85, 0, 169]",169,l,0.33910879999166355,colour,0.5
122,21,1,2,1,24,24,39.09655200003181,39.84800160001032,"[86, 0, 168]",168,l,0.22819500003242865,colour,0.5
122,21,1,2,1,25,25,40.362260000023525,41.871971799992025,"[87, 0, 167]",167,l,0.986576099996455,colour,0.5
122,21,1,2,1,26,26,42.39331010001479,43.35198089998448,"[69, 0, 185]",185,l,0.43939859996316954,colour,0.5
122,21,1,2,1,27,27,43.8578303999966,44.67205890000332,"[91, 0, 163]",163,l,0.290896899998188,colour,0.5
122,21,1,2,1,28,28,45.18587240000488,46.03998350002803,"[72, 0, 182]",182,l,0.33085600001504645,colour,0.5
122,21,1,2,1,29,29,46.56078729999717,47.359945499978494,"[81, 0, 173]",173,l,0.27299879997735843,colour,0.5
122,21,1,2,1,30,30,47.87612139998237,49.29593930003466,"[62, 0, 192]",192,a,0.895767500041984,colour,0.5
122,21,1,2,1,31,31,49.81427370000165,50.91996550001204,"[21, 0, 233]",233,a,0.5824916000128724,colour,0.5
122,21,1,2,1,32,32,51.43916040001204,52.60801620001439,"[57, 0, 197]",197,a,0.6456402000039816,colour,0.5
122,21,1,2,1,33,33,53.12647990003461,53.975981800002046,"[33, 0, 221]",221,a,0.3265021999832243,colour,0.5
122,21,1,2,1,34,34,54.48982499999693,55.31994610000402,"[12, 0, 242]",242,a,0.3069157999707386,colour,0.5
122,21,1,2,1,35,35,55.83340719999978,56.63998119998723,"[26, 0, 228]",228,a,0.29575130000011995,colour,0.5
122,21,1,2,1,36,36,57.13820879999548,58.42396650003502,"[63, 0, 191]",191,l,0.7625430000480264,colour,0.5
122,21,1,2,1,37,37,58.93494980002288,59.95196770003531,"[18, 0, 236]",236,a,0.4940470000146888,colour,0.5
122,21,1,2,1,38,38,60.46392800001195,61.15196009998908,"[39, 0, 215]",215,a,0.16194959997665137,colour,0.5
122,21,1,2,1,39,39,61.66994330001762,62.49595240002964,"[19, 0, 235]",235,a,0.3029081000131555,colour,0.5
122,21,1,2,1,40,40,63.013529899995774,63.75199520000024,"[0, 0, 254]",254,a,0.21529000002192333,colour,0.5
122,21,1,2,1,41,41,64.25411630002782,64.99196379998466,"[60, 0, 194]",194,l,0.21276269998634234,colour,0.5
122,21,1,2,1,42,42,65.50586999999359,66.33594150003046,"[58, 0, 196]",196,l,0.3038632000098005,colour,0.5
122,21,1,2,1,43,43,66.85259080003016,67.69596280000405,"[89, 0, 165]",165,l,0.32019080000463873,colour,0.5
122,21,1,2,1,44,44,68.21196540002711,69.13595820002956,"[3, 0, 251]",251,a,0.3995355000370182,colour,0.5
122,21,1,2,1,45,45,69.65061070001684,70.70391779998317,"[41, 0, 213]",213,a,0.5302995999809355,colour,0.5
122,21,1,2,1,46,46,71.21300600003451,71.75996759999543,"[92, 0, 162]",162,l,0.023784999968484044,colour,0.5
122,21,1,2,1,47,47,72.27720080001745,73.03996140003437,"[31, 0, 223]",223,a,0.24905930005479604,colour,0.5
122,21,1,2,1,48,48,73.53686250001192,74.31200750003336,"[1, 0, 253]",253,a,0.25192629999946803,colour,0.5
122,21,1,2,1,49,49,74.81805160001386,75.56802260002587,"[94, 0, 160]",160,l,0.22688279999420047,colour,0.5
122,21,1,2,1,50,50,76.083592400013,76.91199970000889,"[68, 0, 186]",186,l,0.30532250000396743,colour,0.5
122,21,1,2,2,1,51,104.85208470001817,105.52789959998336,"[17, 0, 237]",237,a,0.15182379999896511,colour,0.5
122,21,1,2,2,2,52,106.0403815000318,107.23995090002427,"[66, 0, 188]",188,l,0.6767620000173338,colour,0.5
122,21,1,2,2,3,53,107.75891929998761,108.63191820000065,"[15, 0, 239]",239,a,0.35021250002318993,colour,0.5
122,21,1,2,2,4,54,109.14945129997795,110.11991479998687,"[53, 0, 201]",201,a,0.4473522999905981,colour,0.5
122,21,1,2,2,5,55,110.6336650000303,111.3839941000333,"[72, 0, 182]",182,l,0.2268177000223659,colour,0.5
122,21,1,2,2,6,56,111.89969009999186,112.85590169997886,"[43, 0, 211]",211,a,0.4330608999589458,colour,0.5
122,21,1,2,2,7,57,113.36831380001968,114.15997400000924,"[99, 0, 155]",155,l,0.2687158000189811,colour,0.5
122,21,1,2,2,8,58,114.68070790002821,115.67992790002609,"[47, 0, 207]",207,a,0.4760087000322528,colour,0.5
122,21,1,2,2,9,59,116.19618510000873,117.00788990000729,"[23, 0, 231]",231,a,0.28845900000305846,colour,0.5
122,21,1,2,2,10,60,117.52421140001388,118.2719488000148,"[75, 0, 179]",179,l,0.22446950001176447,colour,0.5
122,21,1,2,2,11,61,118.78972260002047,119.46389569999883,"[44, 0, 210]",210,a,0.1509323000209406,colour,0.5
122,21,1,2,2,12,62,119.9770972999977,120.70395290001761,"[68, 0, 186]",186,l,0.2035796000272967,colour,0.5
122,21,1,2,2,13,63,121.21143929997925,121.79992670001229,"[69, 0, 185]",185,l,0.06558659998700023,colour,0.5
122,21,1,2,2,14,64,122.32071160001215,123.33590240002377,"[18, 0, 236]",236,a,0.4920068000210449,colour,0.5
122,21,1,2,2,15,65,123.85187389998464,124.94392440002412,"[92, 0, 162]",162,l,0.5690601000096649,colour,0.5
122,21,1,2,2,16,66,125.46102550002979,126.83989780000411,"[57, 0, 197]",197,l,0.855676700011827,colour,0.5
122,21,1,2,2,17,67,127.35387589997845,128.6239042999805,"[54, 0, 200]",200,l,0.7468627999769524,colour,0.5
122,21,1,2,2,18,68,129.1349990000017,130.19991900003515,"[28, 0, 226]",226,a,0.541920600051526,colour,0.5
122,21,1,2,2,19,69,130.71297220000997,131.5038904999965,"[16, 0, 238]",238,a,0.2685373999993317,colour,0.5
122,21,1,2,2,20,70,132.02536470000632,132.80786499998067,"[77, 0, 177]",177,l,0.2593899999628775,colour,0.5
122,21,1,2,2,21,71,133.32208150002407,134.09594339999603,"[37, 0, 217]",217,a,0.2506598000181839,colour,0.5
122,21,1,2,2,22,72,134.6033138000057,135.1679196000332,"[26, 0, 228]",228,a,0.04144670005189255,colour,0.5
122,21,1,2,2,23,73,135.68126809998648,136.3598679000279,"[42, 0, 212]",212,a,0.1554183000116609,colour,0.5
122,21,1,2,2,24,74,136.8687251000083,137.5839523000177,"[7, 0, 247]",247,a,0.1919614000362344,colour,0.5
122,21,1,2,2,25,75,138.10302809998393,139.1279521000106,"[62, 0, 192]",192,l,0.5017682000179775,colour,0.5
122,21,1,2,2,26,76,139.63414139999077,140.47193719999632,"[49, 0, 205]",205,l,0.3148180000134744,colour,0.5
122,21,1,2,2,27,77,140.9933796999976,141.6318696999806,"[71, 0, 183]",183,l,0.11529729998437688,colour,0.5
122,21,1,2,2,28,78,142.14954970002873,142.67990699998336,"[59, 0, 195]",195,l,0.007197699975222349,colour,0.5
122,21,1,2,2,29,79,143.1962232000078,144.10389640001813,"[48, 0, 206]",206,a,0.382123599993065,colour,0.5
122,21,1,2,2,30,80,144.62040110002272,145.5599021000089,"[19, 0, 235]",235,a,0.4163270000135526,colour,0.5
122,21,1,2,2,31,81,146.07334910001373,146.79992160003167,"[39, 0, 215]",215,a,0.2041243000421673,colour,0.5
122,21,1,2,2,32,82,147.30750110000372,147.94389659998706,"[70, 0, 184]",184,l,0.11305609997361898,colour,0.5
122,21,1,2,2,33,83,148.46383700001752,149.84788880002452,"[24, 0, 230]",230,a,0.86091500002658,colour,0.5
122,21,1,2,2,34,84,150.35425680002663,150.94387950003147,"[64, 0, 190]",190,l,0.0665098000317812,colour,0.5
122,21,1,2,2,35,85,151.46351370000048,152.0239004000323,"[33, 0, 221]",221,a,0.03718680003657937,colour,0.5
122,21,1,2,2,36,86,152.54152050003177,153.80787870002678,"[83, 0, 171]",171,l,0.7435488000046462,colour,0.5
122,21,1,2,2,37,87,154.32265570003074,154.9598510999931,"[89, 0, 165]",165,l,0.10884269996313378,colour,0.5
122,21,1,2,2,38,88,155.46847130003152,156.12791550002294,"[86, 0, 168]",168,l,0.1364257000386715,colour,0.5
122,21,1,2,2,39,89,156.64030610001646,157.24792380002327,"[2, 0, 252]",252,a,0.08444440003950149,colour,0.5
122,21,1,2,2,40,90,157.7652195999981,158.93587679998018,"[21, 0, 233]",233,a,0.6474979999475181,colour,0.5
122,21,1,2,2,41,91,159.452564599982,159.99185200000647,"[80, 0, 174]",174,l,0.011966100020799786,colour,0.5
122,21,1,2,2,42,92,160.5034309999901,161.45584479998797,"[78, 0, 176]",176,l,0.428748500009533,colour,0.5
122,21,1,2,2,43,93,161.97264520003228,162.75989739998477,"[58, 0, 196]",196,l,0.264039599976968,colour,0.5
122,21,1,2,2,44,94,163.26927809999324,163.96789710002486,"[36, 0, 218]",218,a,0.17536590003874153,colour,0.5
122,21,1,2,2,45,95,164.48805939999875,165.5279628999997,"[6, 0, 248]",248,a,0.5273048999952152,colour,0.5
122,21,1,2,2,46,96,166.03985479997937,167.3439152999781,"[74, 0, 180]",180,l,0.7809178999741562,colour,0.5
122,21,1,2,2,47,97,167.83989200001815,168.6158940999885,"[87, 0, 167]",167,l,0.2527568999794312,colour,0.5
122,21,1,2,2,48,98,169.13669010001468,170.055847599986,"[97, 0, 157]",157,l,0.3943077999865636,colour,0.5
122,21,1,2,2,49,99,170.57572060002713,171.39182790002087,"[13, 0, 241]",241,a,0.29294439998921007,colour,0.5
122,21,1,2,2,50,100,171.90370730002178,172.68782589997863,"[1, 0, 253]",253,a,0.26095969998277724,colour,0.5
122,21,1,2,3,1,101,177.1684844000265,178.12784069997724,"[15, 0, 239]",239,a,0.4329219999490306,colour,0.5
122,21,1,2,3,2,102,178.62794269999722,179.45584790001158,"[17, 0, 237]",237,a,0.30482040002243593,colour,0.5
122,21,1,2,3,3,103,179.97159430000465,180.823855500028,"[42, 0, 212]",212,a,0.32909970002947375,colour,0.5
122,21,1,2,3,4,104,181.33078269998077,182.135870099999,"[7, 0, 247]",247,a,0.28187579999212176,colour,0.5
122,21,1,2,3,5,105,182.64318130002357,183.78390440001385,"[54, 0, 200]",200,l,0.617511700023897,colour,0.5
122,21,1,2,3,6,106,184.29924969997955,185.03191540000262,"[56, 0, 198]",198,l,0.20950769999762997,colour,0.5
122,21,1,2,3,7,107,185.54921139997896,186.25582510000095,"[21, 0, 233]",233,a,0.18342030001804233,colour,0.5
122,21,1,2,3,8,108,186.76780859997962,187.46383800002513,"[27, 0, 227]",227,a,0.1729903999948874,colour,0.5
122,21,1,2,3,9,109,187.97080980002647,188.86395279999124,"[43, 0, 211]",211,a,0.3698420999571681,colour,0.5
122,21,1,2,3,10,110,189.37696600001073,190.06386080000084,"[90, 0, 164]",164,l,0.1729860000195913,colour,0.5
122,21,1,2,3,11,111,190.57073650002712,191.2958190999925,"[77, 0, 177]",177,l,0.20195409998996183,colour,0.5
122,21,1,2,3,12,112,191.80495120002888,192.41586499998812,"[85, 0, 169]",169,l,0.08764819998759776,colour,0.5
122,21,1,2,3,13,113,192.92983179999283,193.63992059999146,"[67, 0, 187]",187,l,0.19654330000048503,colour,0.5
122,21,1,2,3,14,114,194.15490169997793,195.07188800000586,"[57, 0, 197]",197,l,0.3938962999964133,colour,0.5
122,21,1,2,3,15,115,195.59221179998713,196.567825599981,"[47, 0, 207]",207,a,0.452409399964381,colour,0.5
122,21,1,2,3,16,116,197.07650429999921,197.75987800001167,"[70, 0, 184]",184,l,0.17265500000212342,colour,0.5
122,21,1,2,3,17,117,198.26712410000619,198.903825699992,"[96, 0, 158]",158,l,0.11366400000406429,colour,0.5
122,21,1,2,3,18,118,199.42317810002714,199.97590459999628,"[38, 0, 216]",216,a,0.02941740001551807,colour,0.5
122,21,1,2,3,19,119,200.48566900001606,201.07989890000317,"[0, 0, 254]",254,a,0.07089259999338537,colour,0.5
122,21,1,2,3,20,120,201.594995499996,203.0958901999984,"[26, 0, 228]",228,a,0.9777468999964185,colour,0.5
122,21,1,2,3,21,121,203.60112389997812,204.1278369000065,"[61, 0, 193]",193,l,0.0035690999939106405,colour,0.5
122,21,1,2,3,22,122,204.64792999997735,207.1118766000145,"[46, 0, 208]",208,a,1.9407326999935322,colour,0.5
122,21,1,2,3,23,123,207.63208379998105,208.7039066000143,"[44, 0, 210]",210,a,0.5487163999932818,colour,0.5
122,21,1,2,3,24,124,209.21003940002993,209.81581539998297,"[20, 0, 234]",234,a,0.08258349995594472,colour,0.5
122,21,1,2,3,25,125,210.33492260001367,211.01581790001364,"[60, 0, 194]",194,l,0.15790560003370047,colour,0.5
122,21,1,2,3,26,126,211.52230680000503,213.02385220001452,"[13, 0, 241]",241,a,0.9783087000250816,colour,0.5
122,21,1,2,3,27,127,213.5378017000039,214.63183209998533,"[81, 0, 173]",173,l,0.57084489997942,colour,0.5
122,21,1,2,3,28,128,215.14701130002504,216.01583109999774,"[89, 0, 165]",165,l,0.3463967000134289,colour,0.5
122,21,1,2,3,29,129,216.52186740003526,217.4718560000183,"[73, 0, 181]",181,l,0.4267804999835789,colour,0.5
122,21,1,2,3,30,130,217.99047120002797,218.64784589997726,"[14, 0, 240]",240,a,0.1341147999628447,colour,0.5
122,21,1,2,3,31,131,219.16239210002823,219.92785039998125,"[93, 0, 161]",161,l,0.2423651999561116,colour,0.5
122,21,1,2,3,32,132,220.44342760002473,221.2558327000006,"[62, 0, 192]",192,l,0.28924600000027567,colour,0.5
122,21,1,2,3,33,133,221.7715016999864,222.43986199999927,"[8, 0, 246]",246,a,0.14525289996527135,colour,0.5
122,21,1,2,3,34,134,222.958844400011,223.7198187999893,"[24, 0, 230]",230,a,0.23782979999668896,colour,0.5
122,21,1,2,3,35,135,224.24084719998064,225.19986100000096,"[75, 0, 179]",179,l,0.43586729996604845,colour,0.5
122,21,1,2,3,36,136,225.70961740001803,226.31181290000677,"[3, 0, 251]",251,a,0.07908300001872703,colour,0.5
122,21,1,2,3,37,137,226.82074490003288,227.5278378999792,"[22, 0, 232]",232,a,0.18393929995363578,colour,0.5
122,21,1,2,3,38,138,228.0393637000234,229.17581450002035,"[33, 0, 221]",221,a,0.6132403000374325,colour,0.5
122,21,1,2,3,39,139,229.69724950002274,230.27182959998026,"[30, 0, 224]",224,a,0.05130389996338636,colour,0.5
122,21,1,2,3,40,140,230.79087650001748,231.82382280001184,"[12, 0, 242]",242,a,0.5096764999907464,colour,0.5
122,21,1,2,3,41,141,232.33766359998845,233.2719218999846,"[99, 0, 155]",155,l,0.41108759999042377,colour,0.5
122,21,1,2,3,42,142,233.7906032000319,234.60780440003145,"[80, 0, 174]",174,l,0.29397250001784414,colour,0.5
122,21,1,2,3,43,143,235.11863899999298,235.87186610000208,"[92, 0, 162]",162,l,0.23054939997382462,colour,0.5
122,21,1,2,3,44,144,236.3841354000033,237.2238178999978,"[79, 0, 175]",175,l,0.3166495999903418,colour,0.5
122,21,1,2,3,45,145,237.7449898000341,238.6638174999971,"[97, 0, 157]",157,l,0.39564649999374524,colour,0.5
122,21,1,2,3,46,146,239.17191829998046,239.75181350001367,"[78, 0, 176]",176,l,0.056852900015655905,colour,0.5
122,21,1,2,3,47,147,240.26836510002613,240.83981370000402,"[86, 0, 168]",168,l,0.04850650002481416,colour,0.5
122,21,1,2,3,48,148,241.34643239999423,241.95183959999122,"[29, 0, 225]",225,a,0.08209709997754544,colour,0.5
122,21,1,2,3,49,149,242.47135830001207,243.08779970003525,"[74, 0, 180]",180,l,0.09326540003530681,colour,0.5
122,21,1,2,3,50,150,243.5869336000178,244.11984430003213,"[49, 0, 205]",205,a,0.009702800016384572,colour,0.5
122,21,1,2,4,1,151,248.96067609998863,249.5678346999921,"[5, 0, 249]",249,a,0.08311609999509528,colour,0.5
122,21,1,2,4,2,152,250.08835199999157,250.89584469998954,"[49, 0, 205]",205,a,0.28426619997480884,colour,0.5
122,21,1,2,4,3,153,251.41643019998446,252.015828899981,"[79, 0, 175]",175,l,0.076281999994535,colour,0.5
122,21,1,2,4,4,154,252.52567330002785,253.0638375999988,"[15, 0, 239]",239,a,0.01508569996803999,colour,0.5
122,21,1,2,4,5,155,253.57239520002622,254.57587840000633,"[9, 0, 245]",245,a,0.4802540999953635,colour,0.5
122,21,1,2,4,6,156,255.0878826000262,255.96783109998796,"[98, 0, 156]",156,l,0.3567274999804795,colour,0.5
122,21,1,2,4,7,157,256.4783756000106,257.19178799999645,"[73, 0, 181]",181,l,0.19010599999455735,colour,0.5
122,21,1,2,4,8,158,257.71267600002466,258.38378179998836,"[75, 0, 179]",179,l,0.14794399996753782,colour,0.5
122,21,1,2,4,9,159,258.90003860002616,259.5517685000086,"[82, 0, 172]",172,l,0.12856230000033975,colour,0.5
122,21,1,2,4,10,160,260.07182509999257,260.959854500019,"[61, 0, 193]",193,l,0.3648090999922715,colour,0.5
122,21,1,2,4,11,161,261.47798800002784,262.47980010003084,"[60, 0, 194]",194,l,0.4786840000306256,colour,0.5
122,21,1,2,4,12,162,262.99348100001225,263.8238242000225,"[99, 0, 155]",155,l,0.30712140002287924,colour,0.5
122,21,1,2,4,13,163,264.33715259999735,265.327802099986,"[37, 0, 217]",217,a,0.4675526999635622,colour,0.5
122,21,1,2,4,14,164,265.8369877000223,266.64786169998115,"[83, 0, 171]",171,l,0.28763019997859374,colour,0.5
122,21,1,2,4,15,165,267.16501500003505,267.9997934999992,"[45, 0, 209]",209,a,0.31238209997536615,colour,0.5
122,21,1,2,4,16,166,268.5086069999961,269.18380729999626,"[43, 0, 211]",211,a,0.15201369998976588,colour,0.5
122,21,1,2,4,17,167,269.69604950002395,270.22456270002294,"[4, 0, 250]",250,a,0.015101600030902773,colour,0.5
122,21,1,2,4,18,168,270.72111980000045,271.43986099999165,"[93, 0, 161]",161,l,0.19544529996346682,colour,0.5
122,21,1,2,4,19,169,271.955399700033,272.69590490002884,"[25, 0, 229]",229,a,0.217325100034941,colour,0.5
122,21,1,2,4,20,170,273.2056183000095,274.2238270000089,"[8, 0, 246]",246,a,0.4949845999944955,colour,0.5
122,21,1,2,4,21,171,274.7367290999973,275.2958049000008,"[90, 0, 164]",164,l,0.03589220001595095,colour,0.5
122,21,1,2,4,22,172,275.81470450002234,276.35178800002905,"[70, 0, 184]",184,l,0.01116540003567934,colour,0.5
122,21,1,2,4,23,173,276.86227310000686,277.85577060002834,"[63, 0, 191]",191,l,0.4796174000366591,colour,0.5
122,21,1,2,4,24,174,278.36845310003264,278.9038166999817,"[91, 0, 163]",163,l,0.024408600002061576,colour,0.5
122,21,1,2,4,25,175,279.41849429998547,280.4318150000181,"[88, 0, 166]",166,l,0.49029690003953874,colour,0.5
122,21,1,2,4,26,176,280.9496438000351,281.48786430002656,"[28, 0, 226]",226,a,0.014981200045440346,colour,0.5
122,21,1,2,4,27,177,281.99054630001774,282.70380950003164,"[59, 0, 195]",195,a,0.19021260004956275,colour,0.5
122,21,1,2,4,28,178,283.2246599000064,283.87183880002704,"[41, 0, 213]",213,a,0.12385380000341684,colour,0.5
122,21,1,2,4,29,179,284.3808174000005,285.36782280000625,"[85, 0, 169]",169,l,0.4638861999846995,colour,0.5
122,21,1,2,4,30,180,285.86828539997805,286.73574869998265,"[67, 0, 187]",187,l,0.34449799999129027,colour,0.5
122,21,1,2,4,31,181,287.2432354000048,288.23982180003077,"[6, 0, 248]",248,a,0.4742064000456594,colour,0.5
122,21,1,2,4,32,182,288.75863769999705,289.5837598000071,"[48, 0, 206]",206,a,0.3043108999845572,colour,0.5
122,21,1,2,4,33,183,290.1025412000017,290.8878367000143,"[74, 0, 180]",180,l,0.26202120003290474,colour,0.5
122,21,1,2,4,34,184,291.3900216000038,292.1677868000115,"[44, 0, 210]",210,a,0.2546114000142552,colour,0.5
122,21,1,2,4,35,185,292.6884443000308,293.29577189998236,"[46, 0, 208]",208,a,0.08417319995351136,colour,0.5
122,21,1,2,4,36,186,293.8132779999869,294.59979680000106,"[1, 0, 253]",253,a,0.26210679998621345,colour,0.5
122,21,1,2,4,37,187,295.1111530000344,296.1678149999934,"[95, 0, 159]",159,l,0.5334226000122726,colour,0.5
122,21,1,2,4,38,188,296.6892068000161,297.51982119999593,"[33, 0, 221]",221,a,0.3066018999670632,colour,0.5
122,21,1,2,4,39,189,298.03562390001025,298.9917790000327,"[51, 0, 203]",203,a,0.4329966000514105,colour,0.5
122,21,1,2,4,40,190,299.5042099999846,300.51181799999904,"[86, 0, 168]",168,l,0.4843840000103228,colour,0.5
122,21,1,2,4,41,191,301.01973400003044,301.8957333000144,"[13, 0, 241]",241,a,0.35270809999201447,colour,0.5
122,21,1,2,4,42,192,302.41020159999607,303.1837972999783,"[16, 0, 238]",238,a,0.25036499998532236,colour,0.5
122,21,1,2,4,43,193,303.69123739999486,304.4717815000331,"[21, 0, 233]",233,a,0.2571746000321582,colour,0.5
122,21,1,2,4,44,194,304.9881094000302,305.9677961000125,"[27, 0, 227]",227,a,0.4564680000185035,colour,0.5
122,21,1,2,4,45,195,306.4879733999842,307.4077997999848,"[22, 0, 232]",232,a,0.3966471999883652,colour,0.5
122,21,1,2,4,46,196,307.92543370003114,308.96778350003297,"[53, 0, 201]",201,l,0.5193273000186309,colour,0.5
122,21,1,2,4,47,197,309.487730199995,310.30376530002104,"[34, 0, 220]",220,a,0.29289770004106686,colour,0.5
122,21,1,2,4,48,198,310.8157219000277,311.519773899985,"[94, 0, 160]",160,l,0.18087260000174865,colour,0.5
122,21,1,2,4,49,199,312.03441930003464,312.89577200001804,"[77, 0, 177]",177,l,0.33827690000180155,colour,0.5
122,21,1,2,4,50,200,313.3999254999799,314.9197704999824,"[35, 0, 219]",219,a,0.9966492999810725,colour,0.5
122,21,1,2,5,1,201,323.20542369998293,324.3197618999984,"[62, 0, 192]",192,l,0.5903722000075504,colour,0.4
122,21,1,2,5,2,202,324.83416590001434,325.9677331999992,"[38, 0, 216]",216,a,0.6105666999937966,colour,0.4
122,21,1,2,5,3,203,326.4745626000222,327.70380770001793,"[34, 0, 220]",220,a,0.7058607999933884,colour,0.4
122,21,1,2,5,4,204,328.19836690003285,329.11182789999293,"[53, 0, 201]",201,a,0.38854680000804365,colour,0.4
122,21,1,2,5,5,205,329.6218553999788,330.4637594000087,"[33, 0, 221]",221,a,0.3186691000009887,colour,0.4
122,21,1,2,5,6,206,330.98111290001543,331.7677134000114,"[48, 0, 206]",206,a,0.263394600013271,colour,0.4
122,21,1,2,5,7,207,332.27452690002974,333.03974720003316,"[55, 0, 199]",199,a,0.24213379999855533,colour,0.4
122,21,1,2,5,8,208,333.5555160000222,334.1437530000112,"[61, 0, 193]",193,a,0.06498179998015985,colour,0.4
122,21,1,2,5,9,209,334.6648544000345,335.61572579998756,"[28, 0, 226]",226,a,0.4276183999609202,colour,0.4
122,21,1,2,5,10,210,336.1334816000308,337.1277474000235,"[18, 0, 236]",236,a,0.47141060000285506,colour,0.4
122,21,1,2,5,11,211,337.648979199992,338.3837299000006,"[87, 0, 167]",167,l,0.21163729997351766,colour,0.4
122,21,1,2,5,12,212,338.898104300024,339.67174499999965,"[23, 0, 231]",231,a,0.25043279997771606,colour,0.4
122,21,1,2,5,13,213,340.1792587999953,340.9597261000308,"[86, 0, 168]",168,l,0.256068300048355,colour,0.4
122,21,1,2,5,14,214,341.4773484999896,342.59971400001086,"[73, 0, 181]",181,l,0.5992129999794997,colour,0.4
122,21,1,2,5,15,215,343.12218260002555,343.9517236999818,"[51, 0, 203]",203,a,0.3066953999805264,colour,0.4
122,21,1,2,5,16,216,344.46631420002086,345.5277786999941,"[93, 0, 161]",161,l,0.5388109000050463,colour,0.4
122,21,1,2,5,17,217,346.0436383000342,346.86376490001567,"[35, 0, 219]",219,a,0.29686070000752807,colour,0.4
122,21,1,2,5,18,218,347.3722940000007,348.05574169999454,"[89, 0, 165]",165,l,0.1602468999917619,colour,0.4
122,21,1,2,5,19,219,348.57537540001795,349.2237930999836,"[54, 0, 200]",200,a,0.12530610000248998,colour,0.4
122,21,1,2,5,20,220,349.7314051000285,350.631836000015,"[31, 0, 223]",223,a,0.3875982000026852,colour,0.4
122,21,1,2,5,21,221,351.1428010999807,351.9197687000269,"[66, 0, 188]",188,l,0.2538712000241503,colour,0.4
122,21,1,2,5,22,222,352.439645299979,353.40773989999434,"[12, 0, 242]",242,a,0.44498839997686446,colour,0.4
122,21,1,2,5,23,223,353.9238569000154,354.49578190001193,"[80, 0, 174]",174,l,0.05157640000106767,colour,0.4
122,21,1,2,5,24,224,355.0146965000313,355.67175590002444,"[29, 0, 225]",225,a,0.13393830001587048,colour,0.4
122,21,1,2,5,25,225,356.1864843000076,357.02371600002516,"[60, 0, 194]",194,a,0.3141149000148289,colour,0.4
122,21,1,2,5,26,226,357.5301092999871,358.64774839999154,"[74, 0, 180]",180,l,0.5944852000102401,colour,0.4
122,21,1,2,5,27,227,359.15495860000374,359.8957591999788,"[14, 0, 240]",240,a,0.22692549997009337,colour,0.4
122,21,1,2,5,28,228,360.40228049998404,361.0717591000139,"[9, 0, 245]",245,a,0.14691340003628284,colour,0.4
122,21,1,2,5,29,229,361.58972099999664,362.6317392999772,"[92, 0, 162]",162,l,0.5188304999610409,colour,0.4
122,21,1,2,5,30,230,363.1520255000214,364.03172359999735,"[44, 0, 210]",210,l,0.35646350000752136,colour,0.4
122,21,1,2,5,31,231,364.54258020001,365.12781720003113,"[78, 0, 176]",176,l,0.06206470000324771,colour,0.4
122,21,1,2,5,32,232,365.63621460000286,366.2797372000059,"[75, 0, 179]",179,l,0.1204522000043653,colour,0.4
122,21,1,2,5,33,233,366.79238930001156,367.503713699989,"[69, 0, 185]",185,l,0.18639240000629798,colour,0.4
122,21,1,2,5,34,234,368.0127804999938,368.77570689999266,"[57, 0, 197]",197,l,0.23674309998750687,colour,0.4
122,21,1,2,5,35,235,369.29697269998724,370.02370359998895,"[68, 0, 186]",186,l,0.20356130000436679,colour,0.4
122,21,1,2,5,36,236,370.5215256999945,372.2316828999901,"[58, 0, 196]",196,l,1.1869283999549225,colour,0.4
122,21,1,2,5,37,237,372.74009809998097,373.55170320003526,"[2, 0, 252]",252,a,0.2883774000220001,colour,0.4
122,21,1,2,5,38,238,374.0681029999978,375.0237567999866,"[90, 0, 164]",164,l,0.4326837999979034,colour,0.4
122,21,1,2,5,39,239,375.5367645000224,376.3197368999827,"[1, 0, 253]",253,a,0.2598545999499038,colour,0.4
122,21,1,2,5,40,240,376.8337727999897,378.24773140001344,"[13, 0, 241]",241,a,0.8907850999967195,colour,0.4
122,21,1,2,5,41,241,378.7556058000191,379.4637120999978,"[71, 0, 183]",183,l,0.18500990001484752,colour,0.4
122,21,1,2,5,42,242,379.97602290002396,380.6236813000287,"[64, 0, 190]",190,l,0.1244052000110969,colour,0.4
122,21,1,2,5,43,243,381.13223260000814,381.927737799997,"[98, 0, 156]",156,l,0.27261310000903904,colour,0.4
122,21,1,2,5,44,244,382.4446131000295,383.3597347000032,"[91, 0, 163]",163,l,0.39197599998442456,colour,0.4
122,21,1,2,5,45,245,383.86630930000683,384.63170450000325,"[94, 0, 160]",160,l,0.24023639998631552,colour,0.4
122,21,1,2,5,46,246,385.1515898000216,385.9277246000129,"[88, 0, 166]",166,l,0.25325160002103075,colour,0.4
122,21,1,2,5,47,247,386.4483282000292,387.2157750999904,"[97, 0, 157]",157,l,0.24408569996012375,colour,0.4
122,21,1,2,5,48,248,387.72967149998294,388.58369190001395,"[40, 0, 214]",214,a,0.3307833999861032,colour,0.4
122,21,1,2,5,49,249,389.10573850001674,389.91970229998697,"[43, 0, 211]",211,a,0.2906712999683805,colour,0.4
122,21,1,2,5,50,250,390.4337180000148,391.14369910000823,"[17, 0, 237]",237,a,0.1983481000061147,colour,0.4
122,21,1,2,6,1,251,396.1876888999832,396.7517947999877,"[75, 0, 179]",179,l,0.03889249998610467,colour,0.28
122,21,1,2,6,2,252,397.2676805999945,398.3277572999941,"[70, 0, 184]",184,l,0.537115300016012,colour,0.28
122,21,1,2,6,3,253,398.8456100000185,399.6556875000242,"[86, 0, 168]",168,l,0.2867590000387281,colour,0.28
122,21,1,2,6,4,254,400.17370119999396,400.7918067999999,"[29, 0, 225]",225,a,0.10432679997757077,colour,0.28
122,21,1,2,6,5,255,401.30489329999546,402.2557033000048,"[60, 0, 194]",194,l,0.4275204999721609,colour,0.28
122,21,1,2,6,6,256,402.7734972999897,403.6077253000112,"[76, 0, 178]",178,l,0.3110284000285901,colour,0.28
122,21,1,2,6,7,257,404.1171269000042,404.8956978999777,"[55, 0, 199]",199,a,0.25545539997983724,colour,0.28
122,21,1,2,6,8,258,405.4139034000109,406.1837255000137,"[61, 0, 193]",193,a,0.24672180000925437,colour,0.28
122,21,1,2,6,9,259,406.68577700003516,407.50368880003225,"[57, 0, 197]",197,a,0.2946565000456758,colour,0.28
122,21,1,2,6,10,260,408.0137720000348,408.82378530001733,"[63, 0, 191]",191,a,0.2868319000117481,colour,0.28
122,21,1,2,6,11,261,409.34172199998284,409.9676823000191,"[81, 0, 173]",173,l,0.11198940000031143,colour,0.28
122,21,1,2,6,12,262,410.47471400001086,411.24768189998576,"[88, 0, 166]",166,l,0.2503650999860838,colour,0.28
122,21,1,2,6,13,263,411.7435623999918,412.5356719000265,"[18, 0, 236]",236,a,0.26887080003507435,colour,0.28
122,21,1,2,6,14,264,413.0559171999921,414.10374649998266,"[53, 0, 201]",201,a,0.5246244999580085,colour,0.28
122,21,1,2,6,15,265,414.61829030001536,415.39175389998127,"[19, 0, 235]",235,a,0.2505210999515839,colour,0.28
122,21,1,2,6,16,266,415.8994567000191,416.5037479000166,"[6, 0, 248]",248,a,0.08104940003249794,colour,0.28
122,21,1,2,6,17,267,417.0243283000309,417.743782799982,"[66, 0, 188]",188,a,0.19617209996795282,colour,0.28
122,21,1,2,6,18,268,418.2587411000277,418.79977719997987,"[80, 0, 174]",174,l,0.018002400000113994,colour,0.28
122,21,1,2,6,19,269,419.3210858000093,420.0796918999986,"[62, 0, 192]",192,l,0.23587269999552518,colour,0.28
122,21,1,2,6,20,270,420.58652339997934,421.10370229999535,"[39, 0, 215]",215,l,0.0033113000099547207,colour,0.28
122,21,1,2,6,21,271,421.62389430002077,422.67971480003325,"[10, 0, 244]",244,a,0.5325789000489749,colour,0.28
122,21,1,2,6,22,272,423.1862593999831,423.94370770000387,"[97, 0, 157]",157,l,0.23426439997274429,colour,0.28
122,21,1,2,6,23,273,424.440010100021,425.37570259999484,"[67, 0, 187]",187,l,0.4123945999890566,colour,0.28
122,21,1,2,6,24,274,425.883770800021,426.5996940000332,"[90, 0, 164]",164,l,0.19284710002830252,colour,0.28
122,21,1,2,6,25,275,427.11995570000727,427.8556608000072,"[37, 0, 217]",217,a,0.21285100001841784,colour,0.28
122,21,1,2,6,26,276,428.3698022000026,429.16767340002116,"[56, 0, 198]",198,a,0.2747066000010818,colour,0.28
122,21,1,2,6,27,277,429.6821493000025,430.49575880001066,"[59, 0, 195]",195,a,0.29957370000192896,colour,0.28
122,21,1,2,6,28,278,431.01728070003446,432.65566490002675,"[84, 0, 170]",170,l,1.1156554000335746,colour,0.28
122,21,1,2,6,29,279,433.1733401999809,433.9676344000036,"[92, 0, 162]",162,l,0.2711328999721445,colour,0.28
122,21,1,2,6,30,280,434.4875396999996,435.4876680999878,"[79, 0, 175]",175,l,0.4768936999607831,colour,0.28
122,21,1,2,6,31,281,436.00105239998084,436.76769549999153,"[52, 0, 202]",202,a,0.2435643000062555,colour,0.28
122,21,1,2,6,32,282,437.2821872999775,437.93565470003523,"[21, 0, 233]",233,a,0.13020850002067164,colour,0.28
122,21,1,2,6,33,283,438.4540723999962,440.2397238999838,"[69, 0, 185]",185,l,1.2626348999910988,colour,0.28
122,21,1,2,6,34,284,440.7406287000049,441.3117621000274,"[87, 0, 167]",167,l,0.04818760004127398,colour,0.28
122,21,1,2,6,35,285,441.8185464999988,442.7676725999918,"[91, 0, 163]",163,l,0.4262120999628678,colour,0.28
122,21,1,2,6,36,286,443.2871812999947,445.0956758999964,"[7, 0, 247]",247,a,1.2856868999660946,colour,0.28
122,21,1,2,6,37,287,445.6021385000204,446.23967749997973,"[74, 0, 180]",180,l,0.11455189995467663,colour,0.28
122,21,1,2,6,38,288,446.7583507000236,447.44771490001585,"[73, 0, 181]",181,l,0.16614970000227913,colour,0.28
122,21,1,2,6,39,289,447.9490332999849,448.97569589997875,"[20, 0, 234]",234,a,0.5035115999635309,colour,0.28
122,21,1,2,6,40,290,449.4957223000238,450.04765670001507,"[96, 0, 158]",158,l,0.028707900026347488,colour,0.28
122,21,1,2,6,41,291,450.55807850003475,451.2476897999877,"[34, 0, 220]",220,a,0.1670979000045918,colour,0.28
122,21,1,2,6,42,292,451.76116860000184,452.8556725999806,"[2, 0, 252]",252,a,0.5713183999760076,colour,0.28
122,21,1,2,6,43,293,453.3704036999843,453.9036676000105,"[82, 0, 172]",172,l,0.007464500027708709,colour,0.28
122,21,1,2,6,44,294,454.41951059998246,455.03166069998406,"[16, 0, 238]",238,a,0.08876949996920303,colour,0.28
122,21,1,2,6,45,295,455.54458620003425,456.2477082000114,"[64, 0, 190]",190,l,0.17990799999097362,colour,0.28
122,21,1,2,6,46,296,456.7651554000331,457.37566999997944,"[89, 0, 165]",165,l,0.09657219995278865,colour,0.28
122,21,1,2,6,47,297,457.8963392000296,458.43168239999795,"[65, 0, 189]",189,l,0.012210700020659715,colour,0.28
122,21,1,2,6,48,298,458.94311140000354,459.48773569997866,"[25, 0, 229]",229,a,0.02224919997388497,colour,0.28
122,21,1,2,6,49,299,460.00573949998943,460.5676852000179,"[98, 0, 156]",156,l,0.038716699986252934,colour,0.28
122,21,1,2,6,50,300,461.0718503000098,461.7276344000129,"[93, 0, 161]",161,l,0.13257670000893995,colour,0.28
122,21,1,2,7,1,301,466.60179889999563,467.1676940000034,"[55, 0, 199]",199,l,0.04187409998849034,colour,0.14
122,21,1,2,7,2,302,467.6806006000261,468.31164089997765,"[69, 0, 185]",185,l,0.1171494999434799,colour,0.14
122,21,1,2,7,3,303,468.8274557000259,469.9836759000318,"[87, 0, 167]",167,l,0.6330145000247285,colour,0.14
122,21,1,2,7,4,304,470.5011190000223,471.21572460001335,"[93, 0, 161]",161,l,0.19154209998669103,colour,0.14
122,21,1,2,7,5,305,471.7352963000303,472.43167700001504,"[99, 0, 155]",155,l,0.17333840002538636,colour,0.14
122,21,1,2,7,6,306,472.9384914999828,473.72768990002805,"[84, 0, 170]",170,l,0.26602189999539405,colour,0.14
122,21,1,2,7,7,307,474.23510160000296,475.0236471000244,"[52, 0, 202]",202,a,0.2655996000394225,colour,0.14
122,21,1,2,7,8,308,475.53688490000786,476.2556541999802,"[76, 0, 178]",178,l,0.1955920999753289,colour,0.14
122,21,1,2,7,9,309,476.7728031000006,477.3036623999942,"[90, 0, 164]",164,l,0.007657299982383847,colour,0.14
122,21,1,2,7,10,310,477.8196844999911,478.43964260001667,"[75, 0, 179]",179,l,0.09684240003116429,colour,0.14
122,21,1,2,7,11,311,478.96021160000237,479.4956594000105,"[61, 0, 193]",193,a,0.012347900017630309,colour,0.14
122,21,1,2,7,12,312,480.0051548000192,480.55965880001895,"[95, 0, 159]",159,l,0.031323600036557764,colour,0.14
122,21,1,2,7,13,313,481.0552119000349,481.5996871999814,"[96, 0, 158]",158,l,0.033653799968305975,colour,0.14
122,21,1,2,7,14,314,482.12225690000923,483.2236444000155,"[97, 0, 157]",157,l,0.5784289999864995,colour,0.14
122,21,1,2,7,15,315,483.73152159998426,484.39966220001224,"[64, 0, 190]",190,a,0.14486030000261962,colour,0.14
122,21,1,2,7,16,316,484.91891659999965,485.5276666000136,"[89, 0, 165]",165,l,0.08373950002714992,colour,0.14
122,21,1,2,7,17,317,486.0458172999788,486.59166789997835,"[25, 0, 229]",229,a,0.022716699982993305,colour,0.14
122,21,1,2,7,18,318,487.1080971999909,487.7756216999842,"[44, 0, 210]",210,a,0.1567325999494642,colour,0.14
122,21,1,2,7,19,319,488.28374009998515,488.9996663000202,"[66, 0, 188]",188,l,0.19557010004064068,colour,0.14
122,21,1,2,7,20,320,489.51526339998236,490.7680961000151,"[27, 0, 227]",227,a,0.7296309000230394,colour,0.14
122,21,1,2,7,21,321,491.2807853000122,491.99968220002484,"[79, 0, 175]",175,l,0.19570640003075823,colour,0.14
122,21,1,2,7,22,322,492.51504349999595,493.063653899997,"[17, 0, 237]",237,a,0.02538589999312535,colour,0.14
122,21,1,2,7,23,323,493.57176050002454,494.12767720001284,"[38, 0, 216]",216,a,0.029654800018761307,colour,0.14
122,21,1,2,7,24,324,494.6371433000313,495.4236876000068,"[77, 0, 177]",177,l,0.26193550002062693,colour,0.14
122,21,1,2,7,25,325,495.9353463000152,496.5436298000277,"[22, 0, 232]",232,a,0.08531450002919883,colour,0.14
122,21,1,2,7,26,326,497.0601960000349,497.64761440001894,"[67, 0, 187]",187,l,0.06415990000823513,colour,0.14
122,21,1,2,7,27,327,498.1539140000241,498.7036511999904,"[71, 0, 183]",183,l,0.026662399992346764,colour,0.14
122,21,1,2,7,28,328,499.21623399999226,499.7756574000232,"[8, 0, 246]",246,a,0.03623540000990033,colour,0.14
122,21,1,2,7,29,329,500.2942557000206,501.1196404999937,"[70, 0, 184]",184,l,0.30211619997862726,colour,0.14
122,21,1,2,7,30,330,501.63797270000214,502.7996221000212,"[86, 0, 168]",168,l,0.638850099989213,colour,0.14
122,21,1,2,7,31,331,503.3096924999845,503.9276576000266,"[59, 0, 195]",195,l,0.09288060001563281,colour,0.14
122,21,1,2,7,32,332,504.43677129998105,505.49567760003265,"[53, 0, 201]",201,l,0.5360243000322953,colour,0.14
122,21,1,2,7,33,333,506.01478530000895,507.3676776000066,"[94, 0, 160]",160,l,0.8297339000273496,colour,0.14
122,21,1,2,7,34,334,507.87395440001274,508.68763340002624,"[68, 0, 186]",186,l,0.2903884000261314,colour,0.14
122,21,1,2,7,35,335,509.2019761999836,509.80770310002845,"[60, 0, 194]",194,l,0.08279460004996508,colour,0.14
122,21,1,2,7,36,336,510.3270300999866,511.43168710003374,"[63, 0, 191]",191,l,0.5816043000086211,colour,0.14
122,21,1,2,7,37,337,511.95177689997945,512.6636542000342,"[74, 0, 180]",180,l,0.1889352000434883,colour,0.14
122,21,1,2,7,38,338,513.1703876000247,513.711637600034,"[82, 0, 172]",172,l,0.018053900043014437,colour,0.14
122,21,1,2,7,39,339,514.2328400000115,514.8396202999866,"[51, 0, 203]",203,a,0.08357689995318651,colour,0.14
122,21,1,2,7,40,340,515.3577370999847,516.5196301999968,"[83, 0, 171]",171,l,0.6386804999783635,colour,0.14
122,21,1,2,7,41,341,517.0295345000341,517.5836386000155,"[78, 0, 176]",176,l,0.03100399998947978,colour,0.14
122,21,1,2,7,42,342,518.0919121000334,518.7677282000077,"[57, 0, 197]",197,a,0.15270620002411306,colour,0.14
122,21,1,2,7,43,343,519.2793563000159,519.9036333999829,"[85, 0, 169]",169,l,0.10111479996703565,colour,0.14
122,21,1,2,7,44,344,520.4199089999893,521.3996162000112,"[98, 0, 156]",156,l,0.45651059999363497,colour,0.14
122,21,1,2,7,45,345,521.9197986000217,522.8636292000301,"[91, 0, 163]",163,l,0.4206435000523925,colour,0.14
122,21,1,2,7,46,346,523.3727740999893,525.8236104000243,"[58, 0, 196]",196,a,1.927545300044585,colour,0.14
122,21,1,2,7,47,347,526.3413449000218,527.1196479999926,"[92, 0, 162]",162,l,0.25516389997210354,colour,0.14
122,21,1,2,7,48,348,527.6379795999965,528.4556544999941,"[56, 0, 198]",198,a,0.2943845000118017,colour,0.14
122,21,1,2,7,49,349,528.9661053000018,529.799666100007,"[65, 0, 189]",189,a,0.31043190002674237,colour,0.14
122,21,1,2,7,50,350,530.3097178000025,531.1276177000254,"[50, 0, 204]",204,a,0.2932950000395067,colour,0.14
122,21,1,2,8,1,351,538.6910022000084,539.5595643999986,"[66, 0, 188]",188,l,0.3445625000167638,colour,0.06
122,21,1,2,8,2,352,540.0551752999891,541.0636135999812,"[73, 0, 181]",181,l,0.4852221999899484,colour,0.06
122,21,1,2,8,3,353,541.5707347000134,542.567623400013,"[76, 0, 178]",178,l,0.4694471000111662,colour,0.06
122,21,1,2,8,4,354,543.0665309000178,543.9836803000071,"[87, 0, 167]",167,l,0.3939363000099547,colour,0.06
122,21,1,2,8,5,355,544.5060335000162,545.5117993000313,"[62, 0, 192]",192,a,0.48253700003260747,colour,0.06
122,21,1,2,8,6,356,546.0215018999879,546.8796848999918,"[91, 0, 163]",163,l,0.33583729999372736,colour,0.06
122,21,1,2,8,7,357,547.3839030999807,548.3116233000183,"[86, 0, 168]",168,l,0.40157620003446937,colour,0.06
122,21,1,2,8,8,358,548.826627500006,549.8076425000327,"[63, 0, 191]",191,a,0.4577960000024177,colour,0.06
122,21,1,2,8,9,359,550.3265078000259,551.4075856999843,"[82, 0, 172]",172,l,0.5583738999557681,colour,0.06
122,21,1,2,8,10,360,551.9201990999863,553.1355724000023,"[72, 0, 182]",182,l,0.6921460999874398,colour,0.06
122,21,1,2,8,11,361,553.654411400028,554.663583800022,"[78, 0, 176]",176,l,0.48607990000164136,colour,0.06
122,21,1,2,8,12,362,555.1699897000217,556.295644400001,"[75, 0, 179]",179,l,0.6025551999919116,colour,0.06
122,21,1,2,8,13,363,556.8103390000178,557.5756622999907,"[81, 0, 173]",173,l,0.2421055999584496,colour,0.06
122,21,1,2,8,14,364,558.0913959000027,558.7835776000284,"[55, 0, 199]",199,a,0.1689087999984622,colour,0.06
122,21,1,2,8,15,365,559.2945825000061,560.0235650999821,"[24, 0, 230]",230,a,0.20594659994821995,colour,0.06
122,21,1,2,8,16,366,560.5444490999798,562.3676072999951,"[80, 0, 174]",174,l,1.2999578000162728,colour,0.06
122,21,1,2,8,17,367,562.8880308999796,563.823632900021,"[85, 0, 169]",169,l,0.41252260003238916,colour,0.06
122,21,1,2,8,18,368,564.3409301000065,565.0475852999953,"[52, 0, 202]",202,a,0.18327099998714402,colour,0.06
122,21,1,2,8,19,369,565.5595810000086,566.0956386000034,"[77, 0, 177]",177,l,0.012848899990785867,colour,0.06
122,21,1,2,8,20,370,566.6064473000006,567.1916190999909,"[96, 0, 158]",158,l,0.06223949999548495,colour,0.06
122,21,1,2,8,21,371,567.700040100026,568.3356153999921,"[64, 0, 190]",190,a,0.11241659999359399,colour,0.06
122,21,1,2,8,22,372,568.8562412000028,569.3916130000143,"[58, 0, 196]",196,a,0.012951200013048947,colour,0.06
122,21,1,2,8,23,373,569.9030426000245,570.5275504000019,"[83, 0, 171]",171,l,0.10145349998492748,colour,0.06
122,21,1,2,8,24,374,571.0435875999974,571.5835695000133,"[97, 0, 157]",157,l,0.01683710003271699,colour,0.06
122,21,1,2,8,25,375,572.0903048000182,572.7755929999985,"[61, 0, 193]",193,a,0.1620441999984905,colour,0.06
122,21,1,2,8,26,376,573.2933146000141,574.655579800019,"[79, 0, 175]",175,l,0.8391670000273734,colour,0.06
122,21,1,2,8,27,377,575.1681439999957,575.863623799989,"[69, 0, 185]",185,a,0.1724638000014238,colour,0.06
122,21,1,2,8,28,378,576.371165300021,576.9116233999957,"[70, 0, 184]",184,a,0.01719539996702224,colour,0.06
122,21,1,2,8,29,379,577.4179471000098,577.9996230999823,"[92, 0, 162]",162,l,0.05847029999131337,colour,0.06
122,21,1,2,8,30,380,578.4991446000058,579.0636621000012,"[65, 0, 189]",189,a,0.041276699979789555,colour,0.06
122,21,1,2,8,31,381,579.5771723000216,581.4795780000277,"[71, 0, 183]",183,a,1.3791989000164904,colour,0.06
122,21,1,2,8,32,382,582.0007155000349,583.2715658000088,"[50, 0, 204]",204,a,0.7477087000152096,colour,0.06
122,21,1,2,8,33,383,583.7817694999976,584.3675625000033,"[56, 0, 198]",198,a,0.07140120002441108,colour,0.06
122,21,1,2,8,34,384,584.8852274999954,585.4081761999987,"[68, 0, 186]",186,a,0.011917099996935576,colour,0.06
122,21,1,2,8,35,385,585.9198649000027,586.4955550000304,"[57, 0, 197]",197,a,0.052486600005067885,colour,0.06
122,21,1,2,8,36,386,587.0134253000142,587.5515865000198,"[93, 0, 161]",161,l,0.014965999987907708,colour,0.06
122,21,1,2,8,37,387,588.0601666999864,589.36754810001,"[98, 0, 156]",156,l,0.7841102000093088,colour,0.06
122,21,1,2,8,38,388,589.8883106000139,590.9916043999838,"[53, 0, 201]",201,a,0.5808207999798469,colour,0.06
122,21,1,2,8,39,389,591.5131269000121,592.3515735000256,"[74, 0, 180]",180,l,0.31529240001691505,colour,0.06
122,21,1,2,8,40,390,592.8723237999948,593.4315884999814,"[1, 0, 253]",253,a,0.0483953999937512,colour,0.06
122,21,1,2,8,41,391,593.9380510000046,594.7035614000051,"[51, 0, 203]",203,a,0.2422867999994196,colour,0.06
122,21,1,2,8,42,392,595.2192485000123,595.7676069000154,"[84, 0, 170]",170,l,0.025258000008761883,colour,0.06
122,21,1,2,8,43,393,596.2821638000314,596.8955364000285,"[47, 0, 207]",207,a,0.09072080004261807,colour,0.06
122,21,1,2,8,44,394,597.4065476999967,598.0235315000173,"[90, 0, 164]",164,l,0.09369910001987591,colour,0.06
122,21,1,2,8,45,395,598.5313621999812,599.1036175999907,"[59, 0, 195]",195,a,0.04900140000972897,colour,0.06
122,21,1,2,8,46,396,599.6250822999864,600.719571100024,"[95, 0, 159]",159,l,0.5713349000434391,colour,0.06
122,21,1,2,8,47,397,601.2342903999961,602.1835047000204,"[88, 0, 166]",166,l,0.42617880000034347,colour,0.06
122,21,1,2,8,48,398,602.6892018999788,605.1515616999823,"[54, 0, 200]",200,a,1.9391458999598399,colour,0.06
122,21,1,2,8,49,399,605.6576656000107,606.4475908000022,"[94, 0, 160]",160,l,0.26679199998034164,colour,0.06
122,21,1,2,8,50,400,606.9543720000074,607.8235526999924,"[89, 0, 165]",165,l,0.3514689999865368,colour,0.06
122,21,1,2,9,1,401,612.185731799982,612.8476024999982,"[78, 0, 176]",176,l,0.13784969999687746,colour,0.06
122,21,1,2,9,2,402,613.3581944000325,613.9596100000199,"[99, 0, 155]",155,l,0.07798699999693781,colour,0.06
122,21,1,2,9,3,403,614.467629300023,615.087603699998,"[56, 0, 198]",198,a,0.09689539996907115,colour,0.06
122,21,1,2,9,4,404,615.608044099994,616.447595399979,"[79, 0, 175]",175,l,0.31614969996735454,colour,0.06
122,21,1,2,9,5,405,616.9674324999796,617.7115146000287,"[71, 0, 183]",183,l,0.22104170004604384,colour,0.06
122,21,1,2,9,6,406,618.2328450999921,618.9755735999788,"[96, 0, 158]",158,l,0.21940750000067055,colour,0.06
122,21,1,2,9,7,407,619.4827411000151,620.2075634999783,"[86, 0, 168]",168,l,0.20214169996324927,colour,0.06
122,21,1,2,9,8,408,620.7170557000209,621.6316302000196,"[72, 0, 182]",182,l,0.3914465000270866,colour,0.06
122,21,1,2,9,9,409,622.1387678000028,622.8636178000015,"[90, 0, 164]",164,l,0.20153399999253452,colour,0.06
122,21,1,2,9,10,410,623.3730373000144,624.391531500034,"[61, 0, 193]",193,a,0.49519980000332,colour,0.06
122,21,1,2,9,11,411,624.904131599993,625.7195793000283,"[60, 0, 194]",194,a,0.2929240000084974,colour,0.06
122,21,1,2,9,12,412,626.2322502000025,626.8155406999867,"[50, 0, 204]",204,a,0.06013219995656982,colour,0.06
122,21,1,2,9,13,413,627.3277708999813,628.0315843999851,"[81, 0, 173]",173,l,0.180662399972789,colour,0.06
122,21,1,2,9,14,414,628.546404200024,629.1595167000196,"[59, 0, 195]",195,a,0.08989280002424493,colour,0.06
122,21,1,2,9,15,415,629.6712651000125,631.2795155000058,"[68, 0, 186]",186,l,1.085066600004211,colour,0.06
122,21,1,2,9,16,416,631.7961181999999,632.5195663000341,"[98, 0, 156]",156,l,0.20022230001632124,colour,0.06
122,21,1,2,9,17,417,633.0304044000222,633.7676018999773,"[84, 0, 170]",170,a,0.2139531999710016,colour,0.06
122,21,1,2,9,18,418,634.2803909999784,634.9995525000268,"[77, 0, 177]",177,l,0.19595160003518686,colour,0.06
122,21,1,2,9,19,419,635.5146876000217,636.1674914000323,"[55, 0, 199]",199,a,0.12975220003863797,colour,0.06
122,21,1,2,9,20,420,636.6864321000176,637.4555022999994,"[51, 0, 203]",203,a,0.24586879997514188,colour,0.06
122,21,1,2,9,21,421,637.9676232000347,638.6475599000114,"[80, 0, 174]",174,l,0.15701120003359392,colour,0.06
122,21,1,2,9,22,422,639.1573934000335,639.9515348999994,"[69, 0, 185]",185,a,0.2710395000176504,colour,0.06
122,21,1,2,9,23,423,640.4696994000115,641.103518399992,"[88, 0, 166]",166,l,0.11069949995726347,colour,0.06
122,21,1,2,9,24,424,641.6051711000036,642.2235289000091,"[95, 0, 159]",159,l,0.09535259997937828,colour,0.06
122,21,1,2,9,25,425,642.7300986000337,643.3275799999828,"[76, 0, 178]",178,a,0.07413439999800175,colour,0.06
122,21,1,2,9,26,426,643.8395974999876,644.4875119000208,"[62, 0, 192]",192,a,0.12473800004227087,colour,0.06
122,21,1,2,9,27,427,644.9957919000299,645.8955248999991,"[75, 0, 179]",179,a,0.3765465000178665,colour,0.06
122,21,1,2,9,28,428,646.4019101000158,646.999494299991,"[92, 0, 162]",162,l,0.07474619999993593,colour,0.06
122,21,1,2,9,29,429,647.4988586999825,648.1195631999872,"[82, 0, 172]",172,l,0.0982800999772735,colour,0.06
122,21,1,2,9,30,430,648.6390595000121,649.3995279999799,"[73, 0, 181]",181,a,0.2370865999837406,colour,0.06
122,21,1,2,9,31,431,649.9203895999817,650.687522799999,"[54, 0, 200]",200,a,0.24401049996959046,colour,0.06
122,21,1,2,9,32,432,651.2014953999897,651.8875147000072,"[57, 0, 197]",197,a,0.16301650000968948,colour,0.06
122,21,1,2,9,33,433,652.4046209999942,653.0634918999858,"[64, 0, 190]",190,a,0.13574669999070466,colour,0.06
122,21,1,2,9,34,434,653.576336099999,654.6395802000188,"[93, 0, 161]",161,l,0.5401205000234768,colour,0.06
122,21,1,2,9,35,435,655.1542928999988,655.9835094999871,"[52, 0, 202]",202,a,0.3059580999542959,colour,0.06
122,21,1,2,9,36,436,656.497936300002,657.2794909999939,"[12, 0, 242]",242,a,0.2584391999989748,colour,0.06
122,21,1,2,9,37,437,657.7946713999845,658.6555215999833,"[58, 0, 196]",196,a,0.3375982999568805,colour,0.06
122,21,1,2,9,38,438,659.169519499992,660.1435440999921,"[97, 0, 157]",157,l,0.4536303000058979,colour,0.06
122,21,1,2,9,39,439,660.6385767000029,661.4955634999787,"[94, 0, 160]",160,l,0.33375369996065274,colour,0.06
122,21,1,2,9,40,440,662.013434500026,662.8634922000347,"[66, 0, 188]",188,a,0.32676860003266484,colour,0.06
122,21,1,2,9,41,441,663.3727680000011,664.2155605999869,"[29, 0, 225]",225,a,0.31947909999871626,colour,0.06
122,21,1,2,9,42,442,664.7320296000107,665.5355101000168,"[63, 0, 191]",191,a,0.2803321999963373,colour,0.06
122,21,1,2,9,43,443,666.0443977999967,666.7115198000101,"[67, 0, 187]",187,a,0.14395479997619987,colour,0.06
122,21,1,2,9,44,444,667.2318189999787,668.135492899979,"[24, 0, 230]",230,a,0.38081529998453334,colour,0.06
122,21,1,2,9,45,445,668.6535519000026,669.5354995999951,"[74, 0, 180]",180,l,0.3587317999918014,colour,0.06
122,21,1,2,9,46,446,670.0456621000194,670.8555379000027,"[89, 0, 165]",165,l,0.28665470000123605,colour,0.06
122,21,1,2,9,47,447,671.373675299983,672.1115265000262,"[70, 0, 184]",184,a,0.21462740004062653,colour,0.06
122,21,1,2,9,48,448,672.6236971000326,673.487581000023,"[53, 0, 201]",201,a,0.3406826000427827,colour,0.06
122,21,1,2,9,49,449,673.9985808000201,674.6955887000076,"[91, 0, 163]",163,l,0.17378790001384914,colour,0.06
122,21,1,2,9,50,450,675.2016245999839,675.9275686999899,"[65, 0, 189]",189,a,0.20296049996977672,colour,0.06
122,21,1,2,10,1,451,680.3297927000094,680.9674771000282,"[79, 0, 175]",175,l,0.12293880002107471,colour,0.06
122,21,1,2,10,2,452,681.4775620999862,682.0635097000049,"[78, 0, 176]",176,l,0.059872400015592575,colour,0.06
122,21,1,2,10,3,453,682.5741451000213,683.2874943999923,"[9, 0, 245]",245,a,0.1902725999825634,colour,0.06
122,21,1,2,10,4,454,683.808403300005,684.4555294000311,"[92, 0, 162]",162,l,0.12391170003684238,colour,0.06
122,21,1,2,10,5,455,684.964530199999,685.8315433000098,"[85, 0, 169]",169,l,0.3530880000325851,colour,0.06
122,21,1,2,10,6,456,686.3487088999827,686.9834556999849,"[93, 0, 161]",161,l,0.1207486999919638,colour,0.06
122,21,1,2,10,7,457,687.4831397000235,688.5115213000099,"[88, 0, 166]",166,l,0.505190700001549,colour,0.06
122,21,1,2,10,8,458,689.0299081000267,689.5755039000069,"[89, 0, 165]",165,l,0.02250249998178333,colour,0.06
122,21,1,2,10,9,459,690.0923065000097,690.6475608000183,"[77, 0, 177]",177,l,0.03217730001779273,colour,0.06
122,21,1,2,10,10,460,691.1547309000161,691.9514826000086,"[70, 0, 184]",184,a,0.2735291999997571,colour,0.06
122,21,1,2,10,11,461,692.4670761000016,693.0955175000126,"[50, 0, 204]",204,a,0.1052790000103414,colour,0.06
122,21,1,2,10,12,462,693.6075047000195,694.3194631999941,"[60, 0, 194]",194,a,0.18847809999715537,colour,0.06
122,21,1,2,10,13,463,694.829006600019,695.4074538000277,"[99, 0, 155]",155,l,0.053205200005322695,colour,0.06
122,21,1,2,10,14,464,695.9261912999791,696.85551329999,"[59, 0, 195]",195,a,0.4061078999657184,colour,0.06
122,21,1,2,10,15,465,697.3511992000276,698.1434713000199,"[61, 0, 193]",193,a,0.2661077000084333,colour,0.06
122,21,1,2,10,16,466,698.6508753999951,699.3514964000206,"[58, 0, 196]",196,a,0.17749470000853762,colour,0.06
122,21,1,2,10,17,467,699.8696437000181,700.6874919999973,"[66, 0, 188]",188,a,0.295237599988468,colour,0.06
122,21,1,2,10,18,468,701.1976628000266,702.2314750999794,"[69, 0, 185]",185,a,0.5106419999501668,colour,0.06
122,21,1,2,10,19,469,702.7443591000047,703.4635325000272,"[55, 0, 199]",199,a,0.19606810004916042,colour,0.06
122,21,1,2,10,20,470,703.9804480000166,704.5515014000121,"[86, 0, 168]",168,l,0.049320399994030595,colour,0.06
122,21,1,2,10,21,471,705.0726550000254,705.8635003999807,"[98, 0, 156]",156,l,0.2647450999938883,colour,0.06
122,21,1,2,10,22,472,706.3724045000272,707.0314675000263,"[72, 0, 182]",182,a,0.13575920002767816,colour,0.06
122,21,1,2,10,23,473,707.5442187000299,708.1194818000076,"[64, 0, 190]",190,a,0.052049599995370954,colour,0.06
122,21,1,2,10,24,474,708.6379406999913,709.5835207999917,"[19, 0, 235]",235,a,0.42251319997012615,colour,0.06
122,21,1,2,10,25,475,710.0908185000299,710.7914666000288,"[97, 0, 157]",157,l,0.1898998999968171,colour,0.06
122,21,1,2,10,26,476,711.3126366999932,711.9594878000207,"[52, 0, 202]",202,a,0.12358060001861304,colour,0.06
122,21,1,2,10,27,477,712.4596312000067,713.7194927000091,"[57, 0, 197]",197,a,0.7366678999969736,colour,0.06
122,21,1,2,10,28,478,714.2407051000046,714.8074862000067,"[84, 0, 170]",170,l,0.0435173999867402,colour,0.06
122,21,1,2,10,29,479,715.3188069000025,716.0795765999937,"[62, 0, 192]",192,a,0.2379429999855347,colour,0.06
122,21,1,2,10,30,480,716.5998635999858,717.575490600022,"[95, 0, 159]",159,l,0.4523862000205554,colour,0.06
122,21,1,2,10,31,481,718.0872569999774,718.8394671999849,"[74, 0, 180]",180,l,0.22915259998990223,colour,0.06
122,21,1,2,10,32,482,719.35280220001,720.1275092000142,"[2, 0, 252]",252,a,0.2515869000344537,colour,0.06
122,21,1,2,10,33,483,720.6338114999817,721.2634919999982,"[53, 0, 201]",201,a,0.10652279999339953,colour,0.06
122,21,1,2,10,34,484,721.7743708000053,722.4474576999783,"[87, 0, 167]",167,l,0.1499018999747932,colour,0.06
122,21,1,2,10,35,485,722.9618193000206,723.5674475000123,"[91, 0, 163]",163,l,0.08238650002749637,colour,0.06
122,21,1,2,10,36,486,724.0867168999976,724.9355498999939,"[76, 0, 178]",178,l,0.32564039999851957,colour,0.06
122,21,1,2,10,37,487,725.4460376999923,726.3994753999868,"[90, 0, 164]",164,l,0.4303405999671668,colour,0.06
122,21,1,2,10,38,488,726.91458099999,727.6794545000303,"[82, 0, 172]",172,l,0.24173310003243387,colour,0.06
122,21,1,2,10,39,489,728.1957492000074,730.2234777000267,"[54, 0, 200]",200,a,1.5046738000237383,colour,0.06
122,21,1,2,10,40,490,730.7424328000052,731.6154377000057,"[71, 0, 183]",183,l,0.34994470002129674,colour,0.06
122,21,1,2,10,41,491,732.1329060000135,732.815486699983,"[83, 0, 171]",171,l,0.1599094999837689,colour,0.06
122,21,1,2,10,42,492,733.3358726000297,734.0954348000232,"[51, 0, 203]",203,a,0.23630300001241267,colour,0.06
122,21,1,2,10,43,493,734.6014728000155,735.3034753000247,"[96, 0, 158]",158,l,0.17899620003299788,colour,0.06
122,21,1,2,10,44,494,735.8201918000123,736.8874801999773,"[65, 0, 189]",189,a,0.5442573999753222,colour,0.06
122,21,1,2,10,45,495,737.3856542999856,738.1754898999934,"[56, 0, 198]",198,a,0.26673599996138364,colour,0.06
122,21,1,2,10,46,496,738.6824691999936,739.3194600000279,"[94, 0, 160]",160,l,0.1138737000292167,colour,0.06
122,21,1,2,10,47,497,739.838553300011,740.439474600018,"[68, 0, 186]",186,a,0.07771159999538213,colour,0.06
122,21,1,2,10,48,498,740.9354274999932,741.6874510000343,"[63, 0, 191]",191,a,0.2275919000385329,colour,0.06
122,21,1,2,10,49,499,742.201971500006,742.919469400018,"[75, 0, 179]",179,a,0.1943326999899,colour,0.06
122,21,1,2,10,50,500,743.436383399996,744.1914337000344,"[80, 0, 174]",174,a,0.23184670001501217,colour,0.06
122,21,1,2,11,1,501,760.3594773000223,762.2314616999938,"[80, 0, 174]",174,l,1.3479959999676794,colour,0.06
122,21,1,2,11,2,502,762.7515336999786,763.9594949000166,"[63, 0, 191]",191,a,0.6856348000001162,colour,0.06
122,21,1,2,11,3,503,764.4570002999972,765.5194514000323,"[68, 0, 186]",186,a,0.5392462000017986,colour,0.06
122,21,1,2,11,4,504,766.0349096999853,767.9914590999833,"[56, 0, 198]",198,a,1.4334921999834478,colour,0.06
122,21,1,2,11,5,505,768.5035376999876,769.119394999987,"[65, 0, 189]",189,a,0.09183319995645434,colour,0.06
122,21,1,2,11,6,506,769.631368900009,770.8313999000238,"[87, 0, 167]",167,l,0.6861278000287712,colour,0.06
122,21,1,2,11,7,507,771.340734700032,772.0955206999788,"[91, 0, 163]",163,l,0.23167209996609017,colour,0.06
122,21,1,2,11,8,508,772.6062168999924,773.3594157000189,"[52, 0, 202]",202,a,0.22997520002536476,colour,0.06
122,21,1,2,11,9,509,773.8716580999899,774.8474660000065,"[90, 0, 164]",164,l,0.4495448999805376,colour,0.06
122,21,1,2,11,10,510,775.3590900999843,775.9274504000205,"[55, 0, 199]",199,a,0.04524800000945106,colour,0.06
122,21,1,2,11,11,511,776.4369824000169,777.3354054000229,"[79, 0, 175]",175,l,0.37521040003048256,colour,0.06
122,21,1,2,11,12,512,777.8431628000108,778.5034672000329,"[51, 0, 203]",203,a,0.13709280005423352,colour,0.06
122,21,1,2,11,13,513,779.0149451000034,779.7674125999911,"[97, 0, 157]",157,l,0.22633639996638522,colour,0.06
122,21,1,2,11,14,514,780.2834857000271,780.9354495999869,"[36, 0, 218]",218,a,0.12876389996381477,colour,0.06
122,21,1,2,11,15,515,781.4552875999943,782.0474365000264,"[75, 0, 179]",179,l,0.06899460003478453,colour,0.06
122,21,1,2,11,16,516,782.564512300014,783.6473983000033,"[82, 0, 172]",172,l,0.5595435000141151,colour,0.06
122,21,1,2,11,17,517,784.1489634999889,785.0314127000165,"[64, 0, 190]",190,l,0.35924690001411363,colour,0.06
122,21,1,2,11,18,518,785.5395225000102,786.4074381000246,"[58, 0, 196]",196,a,0.3447844000183977,colour,0.06
122,21,1,2,11,19,519,786.914403999981,787.6393910000334,"[7, 0, 247]",247,a,0.2019461000454612,colour,0.06
122,21,1,2,11,20,520,788.148657999991,789.0074752999935,"[95, 0, 159]",159,l,0.33566819998668507,colour,0.06
122,21,1,2,11,21,521,789.523493500019,790.3274034999777,"[71, 0, 183]",183,l,0.2806488999631256,colour,0.06
122,21,1,2,11,22,522,790.835870800016,791.671420800034,"[85, 0, 169]",169,l,0.31234950001817197,colour,0.06
122,21,1,2,11,23,523,792.1794850000297,793.2394250999787,"[86, 0, 168]",168,l,0.5367593999835663,colour,0.06
122,21,1,2,11,24,524,793.7576054999954,794.5434814000037,"[70, 0, 184]",184,l,0.26282240002183244,colour,0.06
122,21,1,2,11,25,525,795.0558757000254,795.9273919999832,"[84, 0, 170]",170,l,0.3483069999492727,colour,0.06
122,21,1,2,11,26,526,796.4481831000303,797.975475299987,"[88, 0, 166]",166,l,1.0040404999745078,colour,0.06
122,21,1,2,11,27,527,798.4949814000283,799.4073716999847,"[92, 0, 162]",162,l,0.3920727999648079,colour,0.06
122,21,1,2,11,28,528,799.9139126000227,800.7194009000086,"[66, 0, 188]",188,a,0.28231009998125955,colour,0.06
122,21,1,2,11,29,529,801.2138125000056,802.0794105000095,"[57, 0, 197]",197,a,0.34267550002550706,colour,0.06
122,21,1,2,11,30,530,802.588793300034,803.3994002999971,"[50, 0, 204]",204,a,0.28632509999442846,colour,0.06
122,21,1,2,11,31,531,803.9184989000205,804.7833964999882,"[59, 0, 195]",195,a,0.3420724999741651,colour,0.06
122,21,1,2,11,32,532,805.293326199986,806.0474094999954,"[61, 0, 193]",193,a,0.2308140000095591,colour,0.06
122,21,1,2,11,33,533,806.5590474000201,807.2153887000168,"[76, 0, 178]",178,l,0.133266500022728,colour,0.06
122,21,1,2,11,34,534,807.7307437999989,808.5594460000284,"[45, 0, 209]",209,a,0.3054787000291981,colour,0.06
122,21,1,2,11,35,535,809.0776474000304,809.9594372999854,"[73, 0, 181]",181,l,0.36307329998817295,colour,0.06
122,21,1,2,11,36,536,810.45539930003,811.1754162000143,"[78, 0, 176]",176,l,0.19717549998313189,colour,0.06
122,21,1,2,11,37,537,811.6802689000033,812.3993703000015,"[54, 0, 200]",200,a,0.1959400000050664,colour,0.06
122,21,1,2,11,38,538,812.9145051999949,813.5113864000305,"[89, 0, 165]",165,l,0.07360640005208552,colour,0.06
122,21,1,2,11,39,539,814.0257700000075,814.6474384000176,"[60, 0, 194]",194,a,0.10126000002492219,colour,0.06
122,21,1,2,11,40,540,815.1635475999792,816.1514137000195,"[69, 0, 185]",185,a,0.464746700017713,colour,0.06
122,21,1,2,11,41,541,816.6633095000288,817.3113998000044,"[83, 0, 171]",171,l,0.1341478999820538,colour,0.06
122,21,1,2,11,42,542,817.8148462999961,818.4793716000277,"[94, 0, 160]",160,l,0.1414521000115201,colour,0.06
122,21,1,2,11,43,543,818.9892370000016,819.7273743000114,"[53, 0, 201]",201,a,0.21493920002831146,colour,0.06
122,21,1,2,11,44,544,820.239117900026,821.4234543999773,"[96, 0, 158]",158,l,0.6601154999807477,colour,0.06
122,21,1,2,11,45,545,821.9433406000026,822.7513586999848,"[72, 0, 182]",182,a,0.2817235999973491,colour,0.06
122,21,1,2,11,46,546,823.2588086000178,823.9193563000299,"[67, 0, 187]",187,a,0.13746490003541112,colour,0.06
122,21,1,2,11,47,547,824.4305866999784,825.0793960000155,"[62, 0, 192]",192,a,0.12621620000572875,colour,0.06
122,21,1,2,11,48,548,825.5868441999773,826.1273786000093,"[98, 0, 156]",156,l,0.017477500019595027,colour,0.06
122,21,1,2,11,49,549,826.6211275000242,827.4153972999775,"[74, 0, 180]",180,l,0.27116099995328113,colour,0.06
122,21,1,2,11,50,550,827.9336022000061,828.5754483999917,"[93, 0, 161]",161,l,0.1187396000023,colour,0.06
122,21,1,2,12,1,551,833.0296005000127,833.9113925999845,"[70, 0, 184]",184,a,0.37031039997236803,colour,0.06
122,21,1,2,12,2,552,834.42415169999,835.0633687999798,"[68, 0, 186]",186,a,0.12915069999871776,colour,0.06
122,21,1,2,12,3,553,835.5836138000013,836.2553726999904,"[67, 0, 187]",187,a,0.15138850000221282,colour,0.06
122,21,1,2,12,4,554,836.7709770000074,837.439345300023,"[97, 0, 157]",157,l,0.1453283000155352,colour,0.06
122,21,1,2,12,5,555,837.9582978999824,838.695358099998,"[92, 0, 162]",162,l,0.22612439998192713,colour,0.06
122,21,1,2,12,6,556,839.2114371000207,839.9594008999993,"[62, 0, 192]",192,a,0.22460469999350607,colour,0.06
122,21,1,2,12,7,557,840.4646039999789,841.0953905999777,"[63, 0, 191]",191,a,0.10759409994352609,colour,0.06
122,21,1,2,12,8,558,841.6051851999946,842.3033861999866,"[7, 0, 247]",247,a,0.17495099996449426,colour,0.06
122,21,1,2,12,9,559,842.8237997000106,843.4073950999882,"[3, 0, 251]",251,a,0.06105580000439659,colour,0.06
122,21,1,2,12,10,560,843.9175309999846,844.5514236000017,"[88, 0, 166]",166,l,0.11086040001828223,colour,0.06
122,21,1,2,12,11,561,845.0580702000298,846.1274047000334,"[69, 0, 185]",185,l,0.5460309000336565,colour,0.06
122,21,1,2,12,12,562,846.6360448999912,847.3753462000168,"[72, 0, 182]",182,l,0.21610369998961687,colour,0.06
122,21,1,2,12,13,563,847.8858593000332,848.527392900025,"[52, 0, 202]",202,a,0.11831540003186092,colour,0.06
122,21,1,2,12,14,564,849.0420950999833,850.0474266000092,"[51, 0, 203]",203,a,0.4821695000282489,colour,0.06
122,21,1,2,12,15,565,850.5451489000116,851.6074260000023,"[65, 0, 189]",189,a,0.5390803000191227,colour,0.06
122,21,1,2,12,16,566,852.1231452000211,852.895354599983,"[78, 0, 176]",176,l,0.24933999998029321,colour,0.06
122,21,1,2,12,17,567,853.4058328000247,854.0153584000072,"[56, 0, 198]",198,a,0.08620130002964288,colour,0.06
122,21,1,2,12,18,568,854.5308711000253,855.2473663000274,"[64, 0, 190]",190,a,0.2059533999999985,colour,0.06
122,21,1,2,12,19,569,855.7683437999804,856.9194120999891,"[71, 0, 183]",183,l,0.6279663000022992,colour,0.06
122,21,1,2,12,20,570,857.4400830999948,858.1513244999805,"[60, 0, 194]",194,a,0.18766529997810721,colour,0.06
122,21,1,2,12,21,571,858.6590280000237,859.3113716000225,"[98, 0, 156]",156,l,0.1262787000159733,colour,0.06
122,21,1,2,12,22,572,859.8180375000229,860.5913642999949,"[57, 0, 197]",197,a,0.25013369997031987,colour,0.06
122,21,1,2,12,23,573,861.0992287999834,861.8393436000333,"[75, 0, 179]",179,l,0.21685550000984222,colour,0.06
122,21,1,2,12,24,574,862.3490908999811,862.9994005000335,"[81, 0, 173]",173,l,0.12705440004356205,colour,0.06
122,21,1,2,12,25,575,863.5052792000351,864.1994137000293,"[53, 0, 201]",201,a,0.17097930004820228,colour,0.06
122,21,1,2,12,26,576,864.7084636000218,865.4393319999799,"[66, 0, 188]",188,a,0.20762049994664267,colour,0.06
122,21,1,2,12,27,577,865.9584136999911,866.7273796999943,"[25, 0, 229]",229,a,0.2457423000014387,colour,0.06
122,21,1,2,12,28,578,867.239573800005,867.9433530999813,"[90, 0, 164]",164,l,0.18048989999806508,colour,0.06
122,21,1,2,12,29,579,868.4565399999847,869.3273661999847,"[59, 0, 195]",195,a,0.34754539997084066,colour,0.06
122,21,1,2,12,30,580,869.8470877999789,871.1833991000312,"[84, 0, 170]",170,l,0.8131922000320628,colour,0.06
122,21,1,2,12,31,581,871.6813530999934,872.6473300000071,"[76, 0, 178]",178,l,0.4429064000141807,colour,0.06
122,21,1,2,12,32,582,873.1655567000271,873.8793185999966,"[91, 0, 163]",163,l,0.1905034999945201,colour,0.06
122,21,1,2,12,33,583,874.3997875999776,874.927400399989,"[99, 0, 155]",155,l,0.004370799986645579,colour,0.06
122,21,1,2,12,34,584,875.4465457000188,876.3513591000228,"[94, 0, 160]",160,l,0.3815726999891922,colour,0.06
122,21,1,2,12,35,585,876.8684388999827,877.6153867000248,"[80, 0, 174]",174,l,0.22398619999876246,colour,0.06
122,21,1,2,12,36,586,878.1339122999925,878.7113148000208,"[77, 0, 177]",177,l,0.05436060001375154,colour,0.06
122,21,1,2,12,37,587,879.2303077999968,880.2313913999824,"[54, 0, 200]",200,a,0.47783419996267185,colour,0.06
122,21,1,2,12,38,588,880.7457737000077,881.5993874000269,"[95, 0, 159]",159,l,0.3276321000303142,colour,0.06
122,21,1,2,12,39,589,882.1077479000087,882.7913690999849,"[79, 0, 175]",175,l,0.16032359999371693,colour,0.06
122,21,1,2,12,40,590,883.3107819000143,884.3753469000221,"[58, 0, 196]",196,a,0.541305500024464,colour,0.06
122,21,1,2,12,41,591,884.8888189999852,885.7193998000002,"[55, 0, 199]",199,a,0.3073655000189319,colour,0.06
122,21,1,2,12,42,592,886.2324438000214,887.0393441999913,"[83, 0, 171]",171,l,0.2837593999574892,colour,0.06
122,21,1,2,12,43,593,887.5604523000075,888.3913556000334,"[50, 0, 204]",204,a,0.31156810000538826,colour,0.06
122,21,1,2,12,44,594,888.9020138999913,889.70336829999,"[85, 0, 169]",169,l,0.2782965999795124,colour,0.06
122,21,1,2,12,45,595,890.2020533999894,891.1193295000121,"[82, 0, 172]",172,l,0.39440839999588206,colour,0.06
122,21,1,2,12,46,596,891.6394136000308,892.5113057999988,"[89, 0, 165]",165,l,0.3486661000060849,colour,0.06
122,21,1,2,12,47,597,893.0298805999919,893.8153759000124,"[86, 0, 168]",168,l,0.2603370000142604,colour,0.06
122,21,1,2,12,48,598,894.328611999983,895.2793586000334,"[61, 0, 193]",193,a,0.42757980001624674,colour,0.06
122,21,1,2,12,49,599,895.7972225000267,896.6553628999973,"[96, 0, 158]",158,l,0.33474999997997656,colour,0.06
122,21,1,2,12,50,600,897.1722299000248,899.1513572999975,"[74, 0, 180]",180,l,1.4559237000066787,colour,0.06
122,21,1,2,13,1,601,904.1121468000347,905.8553585000336,"[62, 0, 192]",192,l,1.2192380000487901,colour,0.06
122,21,1,2,13,2,602,906.350465000025,907.2554144000169,"[80, 0, 174]",174,l,0.3818584000109695,colour,0.06
122,21,1,2,13,3,603,907.7721404000185,908.415387200017,"[68, 0, 186]",186,l,0.12004469998646528,colour,0.06
122,21,1,2,13,4,604,908.9282938999822,909.4793219999992,"[79, 0, 175]",175,l,0.027816099987830967,colour,0.06
122,21,1,2,13,5,605,909.9907059000107,910.5273994000163,"[88, 0, 166]",166,l,0.026023700018413365,colour,0.06
122,21,1,2,13,6,606,911.0407004000153,911.6153221999994,"[60, 0, 194]",194,a,0.051350199966691434,colour,0.06
122,21,1,2,13,7,607,912.1343863999937,912.7113157000276,"[50, 0, 204]",204,a,0.05393170000752434,colour,0.06
122,21,1,2,13,8,608,913.2280637000222,913.775391000032,"[94, 0, 160]",160,l,0.024173400015570223,colour,0.06
122,21,1,2,13,9,609,914.2904354000348,914.9033139999956,"[58, 0, 196]",196,a,0.08965340000577271,colour,0.06
122,21,1,2,13,10,610,915.4152896000305,916.4633144999971,"[95, 0, 159]",159,l,0.5248592999996617,colour,0.06
122,21,1,2,13,11,611,916.9776617999887,917.7353415000252,"[86, 0, 168]",168,l,0.2345187000464648,colour,0.06
122,21,1,2,13,12,612,918.2306209999952,919.5192871000036,"[69, 0, 185]",185,a,0.7654160999809392,colour,0.06
122,21,1,2,13,13,613,920.0274590000045,921.0393343000324,"[59, 0, 195]",195,a,0.4886943000019528,colour,0.06
122,21,1,2,13,14,614,921.5586145999841,922.3432945000241,"[55, 0, 199]",199,a,0.26242879999335855,colour,0.06
122,21,1,2,13,15,615,922.8553588999785,923.5753126000054,"[61, 0, 193]",193,a,0.1969880000106059,colour,0.06
122,21,1,2,13,16,616,924.0896807999816,924.8953327999916,"[90, 0, 164]",164,l,0.2823929999722168,colour,0.06
122,21,1,2,13,17,617,925.40211179998,926.3593196999864,"[91, 0, 163]",163,l,0.43152879999252036,colour,0.06
122,21,1,2,13,18,618,926.8731827000156,927.7833979999996,"[54, 0, 200]",200,a,0.3870646000141278,colour,0.06
122,21,1,2,13,19,619,928.2950608999818,928.8633219000185,"[98, 0, 156]",156,l,0.04525160003686324,colour,0.06
122,21,1,2,13,20,620,929.3730310000246,930.1112913999823,"[78, 0, 176]",176,l,0.21501089999219403,colour,0.06
122,21,1,2,13,21,621,930.6229335999815,931.5993159000063,"[97, 0, 157]",157,l,0.45314699999289587,colour,0.06
122,21,1,2,13,22,622,932.1071313000284,933.0152820000076,"[89, 0, 165]",165,l,0.3851501999888569,colour,0.06
122,21,1,2,13,23,623,933.5288687000284,934.3993131000316,"[73, 0, 181]",181,a,0.3471739000524394,colour,0.06
122,21,1,2,13,24,624,934.9194332000334,935.7033433000324,"[96, 0, 158]",158,l,0.2606890000170097,colour,0.06
122,21,1,2,13,25,625,936.2162764000241,936.9752995999879,"[81, 0, 173]",173,l,0.23589279997395352,colour,0.06
122,21,1,2,13,26,626,937.4692305999924,938.2073264999781,"[87, 0, 167]",167,l,0.2130971999722533,colour,0.06
122,21,1,2,13,27,627,938.7209149000118,939.5992774000042,"[76, 0, 178]",178,a,0.35517549997894093,colour,0.06
122,21,1,2,13,28,628,940.1115259000217,940.8233694999944,"[67, 0, 187]",187,a,0.1886240000021644,colour,0.06
122,21,1,2,13,29,629,941.3301146000158,941.8633355000056,"[64, 0, 190]",190,a,0.009988799982238561,colour,0.06
122,21,1,2,13,30,630,942.3768794999924,943.415296000021,"[74, 0, 180]",180,a,0.5155075000366196,colour,0.06
122,21,1,2,13,31,631,943.9236973000225,944.647308500018,"[85, 0, 169]",169,a,0.20038039999781176,colour,0.06
122,21,1,2,13,32,632,945.1454869000008,945.9353143000044,"[75, 0, 179]",179,a,0.2666961000068113,colour,0.06
122,21,1,2,13,33,633,946.4422219999833,947.0553054999909,"[63, 0, 191]",191,a,0.09048419998725876,colour,0.06
122,21,1,2,13,34,634,947.5554071000079,948.1672818000079,"[57, 0, 197]",197,a,0.08865619997959584,colour,0.06
122,21,1,2,13,35,635,948.6803528000019,949.2078107999987,"[65, 0, 189]",189,a,0.004358300007879734,colour,0.06
122,21,1,2,13,36,636,949.7270709000295,950.4393156000297,"[56, 0, 198]",198,a,0.18897320004180074,colour,0.06
122,21,1,2,13,37,637,950.9457640000037,951.4713207000168,"[32, 0, 222]",222,a,0.0023225999902933836,colour,0.06
122,21,1,2,13,38,638,951.9925496000214,953.0313118000049,"[49, 0, 205]",205,a,0.5184994000010192,colour,0.06
122,21,1,2,13,39,639,953.5520089999773,954.2233903000015,"[92, 0, 162]",162,l,0.1485013000201434,colour,0.06
122,21,1,2,13,40,640,954.7393994000158,955.4072759000119,"[84, 0, 170]",170,l,0.14465520001249388,colour,0.06
122,21,1,2,13,41,641,955.9274577000178,956.5353138999781,"[77, 0, 177]",177,l,0.08464709995314479,colour,0.06
122,21,1,2,13,42,642,957.0523379999795,957.7992796000326,"[72, 0, 182]",182,a,0.22166200005449355,colour,0.06
122,21,1,2,13,43,643,958.3198623000062,959.0953356000246,"[24, 0, 230]",230,a,0.25218960002530366,colour,0.06
122,21,1,2,13,44,644,959.601142200001,960.3593282999936,"[66, 0, 188]",188,a,0.2349470999906771,colour,0.06
122,21,1,2,13,45,645,960.8666546000168,961.8473272999981,"[93, 0, 161]",161,l,0.4575718999840319,colour,0.06
122,21,1,2,13,46,646,962.3665016000159,963.7673382000066,"[70, 0, 184]",184,a,0.8776375000015832,colour,0.06
122,21,1,2,13,47,647,964.2881908999989,965.0313113000011,"[82, 0, 172]",172,l,0.2198406999814324,colour,0.06
122,21,1,2,13,48,648,965.5381625000155,966.1832768000313,"[52, 0, 202]",202,a,0.12201160000404343,colour,0.06
122,21,1,2,13,49,649,966.6818090000306,967.6473202999914,"[83, 0, 171]",171,l,0.4393944999901578,colour,0.06
122,21,1,2,13,50,650,968.1534522000002,969.2153361000237,"[99, 0, 155]",155,l,0.5386320000397973,colour,0.06
122,21,1,2,14,1,651,973.6537073000218,974.3992787000025,"[85, 0, 169]",169,l,0.23407100001350045,colour,0.06
122,21,1,2,14,2,652,974.9054444999783,975.4873382999795,"[63, 0, 191]",191,a,0.058697599975857884,colour,0.06
122,21,1,2,14,3,653,975.9991063000052,976.7752833000268,"[4, 0, 250]",250,a,0.2530126000056043,colour,0.06
122,21,1,2,14,4,654,977.2957801999873,978.0952363000251,"[88, 0, 166]",166,l,0.27620820002630353,colour,0.06
122,21,1,2,14,5,655,978.6081851000199,979.2552889999934,"[53, 0, 201]",201,a,0.12375289999181405,colour,0.06
122,21,1,2,14,6,656,979.7643801000086,980.5192980000284,"[68, 0, 186]",186,a,0.2317382000037469,colour,0.06
122,21,1,2,14,7,657,981.0252362000174,981.6472702000174,"[70, 0, 184]",184,a,0.09869950002757832,colour,0.06
122,21,1,2,14,8,658,982.1658845000202,982.7352510000346,"[81, 0, 173]",173,l,0.04317130002891645,colour,0.06
122,21,1,2,14,9,659,983.2471858999925,984.1673100999906,"[80, 0, 174]",174,l,0.39697780000278726,colour,0.06
122,21,1,2,14,10,660,984.6844914000249,985.3752961999853,"[76, 0, 178]",178,l,0.16446129995165393,colour,0.06
122,21,1,2,14,11,661,985.8905615999829,986.4313263000222,"[77, 0, 177]",177,l,0.017676200019195676,colour,0.06
122,21,1,2,14,12,662,986.9373037000187,987.6392539999797,"[89, 0, 165]",165,l,0.1787997999927029,colour,0.06
122,21,1,2,14,13,663,988.1559308000142,988.7512867000187,"[51, 0, 203]",203,a,0.07209860003786162,colour,0.06
122,21,1,2,14,14,664,989.2652116999961,990.1992624999839,"[94, 0, 160]",160,l,0.4108171999687329,colour,0.06
122,21,1,2,14,15,665,990.7182519999915,991.6313186000334,"[95, 0, 159]",159,l,0.38996790000237525,colour,0.06
122,21,1,2,14,16,666,992.1400146000087,992.727262200031,"[87, 0, 167]",167,l,0.06403260002844036,colour,0.06
122,21,1,2,14,17,667,993.2336762000341,993.9753136999789,"[83, 0, 171]",171,l,0.21840719995088875,colour,0.06
122,21,1,2,14,18,668,994.4834672000143,995.3192885000026,"[90, 0, 164]",164,l,0.31258500000694767,colour,0.06
122,21,1,2,14,19,669,995.8271793000167,996.4552239000332,"[41, 0, 213]",213,a,0.11427420005202293,colour,0.06
122,21,1,2,14,20,670,996.9742123000324,997.7752667000168,"[91, 0, 163]",163,l,0.2778152000391856,colour,0.06
122,21,1,2,14,21,671,998.2866572000203,999.2792599999812,"[73, 0, 181]",181,l,0.47017719998257235,colour,0.06
122,21,1,2,14,22,672,999.7894195999834,1000.695252000005,"[64, 0, 190]",190,a,0.3826730999862775,colour,0.06
122,21,1,2,14,23,673,1001.2111449000076,1001.7512507999782,"[50, 0, 204]",204,a,0.01691099995514378,colour,0.06
122,21,1,2,14,24,674,1002.2578869999852,1002.9592619999894,"[62, 0, 192]",192,a,0.17812529997900128,colour,0.06
122,21,1,2,14,25,675,1003.4765614999924,1004.1192484999774,"[74, 0, 180]",180,l,0.11958569998387247,colour,0.06
122,21,1,2,14,26,676,1004.6332695999881,1005.3832880000118,"[72, 0, 182]",182,l,0.22685570002067834,colour,0.06
122,21,1,2,14,27,677,1005.9019604999921,1006.4312556000077,"[60, 0, 194]",194,a,0.006401800026651472,colour,0.06
122,21,1,2,14,28,678,1006.9506121000159,1007.5833162000054,"[78, 0, 176]",176,l,0.10963289998471737,colour,0.06
122,21,1,2,14,29,679,1008.0911936000339,1008.727220300003,"[71, 0, 183]",183,l,0.11403689999133348,colour,0.06
122,21,1,2,14,30,680,1009.2460074999835,1010.2232370999991,"[54, 0, 200]",200,a,0.45403899997472763,colour,0.06
122,21,1,2,14,31,681,1010.7302732000244,1011.5832794000162,"[67, 0, 187]",187,a,0.34243010001955554,colour,0.06
122,21,1,2,14,32,682,1012.0926835000282,1012.8152316000196,"[86, 0, 168]",168,l,0.1964358999975957,colour,0.06
122,21,1,2,14,33,683,1013.3298141999985,1013.9512880999828,"[66, 0, 188]",188,a,0.09880819998215884,colour,0.06
122,21,1,2,14,34,684,1014.4704615999945,1015.0712967999862,"[82, 0, 172]",172,l,0.07770619995426387,colour,0.06
122,21,1,2,14,35,685,1015.5799003000138,1016.2472587000229,"[59, 0, 195]",195,a,0.14425010001286864,colour,0.06
122,21,1,2,14,36,686,1016.7534098000033,1017.3753006000188,"[57, 0, 197]",197,a,0.09860590001335368,colour,0.06
122,21,1,2,14,37,687,1017.8939400999807,1018.4952097000205,"[58, 0, 196]",196,a,0.08753930003149435,colour,0.06
122,21,1,2,14,38,688,1019.0096837999881,1019.7672444999916,"[56, 0, 198]",198,a,0.23450759996194392,colour,0.06
122,21,1,2,14,39,689,1020.2750755000161,1020.8552100000088,"[99, 0, 155]",155,l,0.05683010001666844,colour,0.06
122,21,1,2,14,40,690,1021.3687694999971,1021.9272350000101,"[98, 0, 156]",156,l,0.03560160001507029,colour,0.06
122,21,1,2,14,41,691,1022.4468017999898,1022.9752527999808,"[92, 0, 162]",162,l,0.005265199986752123,colour,0.06
122,21,1,2,14,42,692,1023.4936006999924,1024.45529860002,"[97, 0, 157]",157,l,0.4387074999976903,colour,0.06
122,21,1,2,14,43,693,1024.9621886999812,1025.6872351000202,"[96, 0, 158]",158,l,0.20177879999391735,colour,0.06
122,21,1,2,14,44,694,1026.196482600004,1026.9672543000197,"[31, 0, 223]",223,a,0.25690570002188906,colour,0.06
122,21,1,2,14,45,695,1027.4818204999901,1028.2952367999824,"[61, 0, 193]",193,a,0.29021989996545017,colour,0.06
122,21,1,2,14,46,696,1028.8116275999928,1030.5832929000026,"[65, 0, 189]",189,a,1.2486864000093192,colour,0.06
122,21,1,2,14,47,697,1031.0928017999977,1031.9112521000206,"[52, 0, 202]",202,a,0.2954046000377275,colour,0.06
122,21,1,2,14,48,698,1032.4207352999947,1033.2072296999977,"[84, 0, 170]",170,l,0.26332389999879524,colour,0.06
122,21,1,2,14,49,699,1033.7174942999845,1034.615221199987,"[79, 0, 175]",175,l,0.37458599999081343,colour,0.06
122,21,1,2,14,50,700,1035.1236736000283,1035.7032251000055,"[93, 0, 161]",161,l,0.056600900017656386,colour,0.06
122,21,1,2,15,1,701,1040.1692967999843,1041.0232279000338,"[71, 0, 183]",183,l,0.329948200029321,colour,0.06
122,21,1,2,15,2,702,1041.5293845999986,1042.2712895000004,"[52, 0, 202]",202,a,0.21876979997614399,colour,0.06
122,21,1,2,15,3,703,1042.7791919999872,1043.4152668000315,"[69, 0, 185]",185,l,0.11280660005286336,colour,0.06
122,21,1,2,15,4,704,1043.935803500004,1044.6552650000085,"[63, 0, 191]",191,a,0.19653349998407066,colour,0.06
122,21,1,2,15,5,705,1045.1699483999982,1045.9352079000091,"[59, 0, 195]",195,a,0.24207189999287948,colour,0.06
122,21,1,2,15,6,706,1046.4405106999911,1047.0312070000218,"[73, 0, 181]",181,l,0.0675016000168398,colour,0.06
122,21,1,2,15,7,707,1047.5497542999801,1048.319251000008,"[39, 0, 215]",215,a,0.2463580999756232,colour,0.06
122,21,1,2,15,8,708,1048.830782999983,1049.7672133999877,"[90, 0, 164]",164,l,0.4132054999936372,colour,0.06
122,21,1,2,15,9,709,1050.2861115999985,1051.295221999986,"[56, 0, 198]",198,a,0.48595489998115227,colour,0.06
122,21,1,2,15,10,710,1051.801566499984,1052.3512307000346,"[99, 0, 155]",155,l,0.026539000042248517,colour,0.06
122,21,1,2,15,11,711,1052.8639763999963,1053.455260800023,"[61, 0, 193]",193,a,0.06809170002816245,colour,0.06
122,21,1,2,15,12,712,1053.973217700026,1054.9352434999892,"[96, 0, 158]",158,l,0.43918039998970926,colour,0.06
122,21,1,2,15,13,713,1055.443457300018,1056.5592523000087,"[70, 0, 184]",184,a,0.6049831000273116,colour,0.06
122,21,1,2,15,14,714,1057.0727874999866,1057.6712323999964,"[50, 0, 204]",204,a,0.07518250000430271,colour,0.06
122,21,1,2,15,15,715,1058.1820674000192,1059.1672614000272,"[53, 0, 201]",201,a,0.4743515000445768,colour,0.06
122,21,1,2,15,16,716,1059.6726822000346,1060.3671623999835,"[85, 0, 169]",169,l,0.18045210000127554,colour,0.06
122,21,1,2,15,17,717,1060.8821286000311,1061.831180899986,"[62, 0, 192]",192,a,0.4262373999808915,colour,0.06
122,21,1,2,15,18,718,1062.3507256000303,1063.119206400006,"[48, 0, 206]",206,a,0.24530569999478757,colour,0.06
122,21,1,2,15,19,719,1063.6318256999948,1064.303258800006,"[65, 0, 189]",189,a,0.14825119997840375,colour,0.06
122,21,1,2,15,20,720,1064.8193011999829,1065.439270300034,"[64, 0, 190]",190,a,0.09697540005436167,colour,0.06
122,21,1,2,15,21,721,1065.9598561000312,1066.6472281999886,"[51, 0, 203]",203,a,0.1767268999828957,colour,0.06
122,21,1,2,15,22,722,1067.166039200034,1067.9192028000252,"[95, 0, 159]",159,l,0.23013360000913963,colour,0.06
122,21,1,2,15,23,723,1068.4315005000099,1069.2231817999855,"[97, 0, 157]",157,l,0.26843419997021556,colour,0.06
122,21,1,2,15,24,724,1069.7438375999918,1070.5272692000144,"[92, 0, 162]",162,l,0.26017209998099133,colour,0.06
122,21,1,2,15,25,725,1071.0406385000097,1071.7992611000082,"[58, 0, 196]",196,a,0.2446959000080824,colour,0.06
122,21,1,2,15,26,726,1072.3125199999777,1072.967199900013,"[37, 0, 217]",217,a,0.14063350000651553,colour,0.06
122,21,1,2,15,27,727,1073.4750672000227,1074.263224299997,"[79, 0, 175]",175,l,0.2647897999850102,colour,0.06
122,21,1,2,15,28,728,1074.771943400032,1075.4792080000043,"[66, 0, 188]",188,l,0.1841862999717705,colour,0.06
122,21,1,2,15,29,729,1075.9905022000312,1076.6311915999977,"[76, 0, 178]",178,l,0.11748269997769967,colour,0.06
122,21,1,2,15,30,730,1077.1467192000127,1077.7512935000123,"[75, 0, 179]",179,l,0.08142740000039339,colour,0.06
122,21,1,2,15,31,731,1078.2727645999985,1078.919260499999,"[68, 0, 186]",186,l,0.12329059996409342,colour,0.06
122,21,1,2,15,32,732,1079.4288425000268,1080.4151527999784,"[60, 0, 194]",194,a,0.475547399953939,colour,0.06
122,21,1,2,15,33,733,1080.931906600017,1081.583206499985,"[78, 0, 176]",176,l,0.12812489998759702,colour,0.06
122,21,1,2,15,34,734,1082.103726100002,1082.6312542000087,"[55, 0, 199]",199,a,0.004336500016506761,colour,0.06
122,21,1,2,15,35,735,1083.1505689999904,1083.8632524000132,"[91, 0, 163]",163,l,0.18961689999559894,colour,0.06
122,21,1,2,15,36,736,1084.3709549999912,1085.0152008000296,"[74, 0, 180]",180,l,0.1301810000441037,colour,0.06
122,21,1,2,15,37,737,1085.5335137000075,1086.5512506000232,"[67, 0, 187]",187,a,0.49439870001515374,colour,0.06
122,21,1,2,15,38,738,1087.0652377000079,1087.743246500031,"[88, 0, 166]",166,l,0.15543690003687516,colour,0.06
122,21,1,2,15,39,739,1088.2521278000204,1088.9271695000352,"[57, 0, 197]",197,a,0.16400130005786195,colour,0.06
122,21,1,2,15,40,740,1089.4333005999797,1090.367229000025,"[93, 0, 161]",161,l,0.41070140001829714,colour,0.06
122,21,1,2,15,41,741,1090.8863312000176,1091.7031935999985,"[87, 0, 167]",167,l,0.29133829998318106,colour,0.06
122,21,1,2,15,42,742,1092.20450599998,1092.9671969999908,"[82, 0, 172]",172,l,0.23938569996971637,colour,0.06
122,21,1,2,15,43,743,1093.485677700024,1094.0152084000292,"[83, 0, 171]",171,l,0.006558000051882118,colour,0.06
122,21,1,2,15,44,744,1094.5325118000037,1095.2872307000216,"[94, 0, 160]",160,l,0.23156230000313371,colour,0.06
122,21,1,2,15,45,745,1095.7979391000117,1096.5511884000152,"[81, 0, 173]",173,l,0.23003350000362843,colour,0.06
122,21,1,2,15,46,746,1097.0635157999932,1097.6792258999776,"[77, 0, 177]",177,l,0.10511829995084554,colour,0.06
122,21,1,2,15,47,747,1098.1915192999877,1098.9672379000112,"[98, 0, 156]",156,l,0.252451199979987,colour,0.06
122,21,1,2,15,48,748,1099.4884175999905,1100.2152227000333,"[84, 0, 170]",170,l,0.20375540002714843,colour,0.06
122,21,1,2,15,49,749,1100.7231416000286,1101.3672438000212,"[89, 0, 165]",165,l,0.1184656000114046,colour,0.06
122,21,1,2,15,50,750,1101.8818529000273,1102.5911601000116,"[80, 0, 174]",174,l,0.18611260002944618,colour,0.06
122,21,1,2,16,1,751,1107.0495294000139,1107.6151782000088,"[70, 0, 184]",184,l,0.04177070001605898,colour,0.06
122,21,1,2,16,2,752,1108.1312848000089,1108.7431876999908,"[61, 0, 193]",193,a,0.08899339998606592,colour,0.06
122,21,1,2,16,3,753,1109.256344399997,1109.9191886000335,"[50, 0, 204]",204,a,0.1397642000229098,colour,0.06
122,21,1,2,16,4,754,1110.4279556000256,1111.0311594000086,"[57, 0, 197]",197,a,0.08003419998567551,colour,0.06
122,21,1,2,16,5,755,1111.5372646999895,1112.1752115000272,"[54, 0, 200]",200,a,0.1146992000285536,colour,0.06
122,21,1,2,16,6,756,1112.693346999993,1113.655191500031,"[92, 0, 162]",162,l,0.4395145000307821,colour,0.06
122,21,1,2,16,7,757,1114.162059299997,1114.8312686000136,"[89, 0, 165]",165,l,0.1459869000245817,colour,0.06
122,21,1,2,16,8,758,1115.3419982999912,1116.0711770000053,"[82, 0, 172]",172,l,0.20594419998815283,colour,0.06
122,21,1,2,16,9,759,1116.5918580000289,1117.1672357000061,"[81, 0, 173]",173,l,0.061374499986413866,colour,0.06
122,21,1,2,16,10,760,1117.6763457999914,1118.3992050000234,"[79, 0, 175]",175,l,0.19971940002869815,colour,0.06
122,21,1,2,16,11,761,1118.910553499998,1119.6151735000312,"[72, 0, 182]",182,l,0.1813532000523992,colour,0.06
122,21,1,2,16,12,762,1120.1292002000264,1120.99118740001,"[64, 0, 190]",190,a,0.3481655999785289,colour,0.06
122,21,1,2,16,13,763,1121.5104400999844,1122.2311660000123,"[88, 0, 166]",166,l,0.19449610001174733,colour,0.06
122,21,1,2,16,14,764,1122.747665300034,1123.343178900017,"[98, 0, 156]",156,l,0.07233659998746589,colour,0.06
122,21,1,2,16,15,765,1123.8569162000204,1124.647193300014,"[74, 0, 180]",180,l,0.26681649999227375,colour,0.06
122,21,1,2,16,16,766,1125.1537776000332,1125.8632036999916,"[91, 0, 163]",163,l,0.18634919996839017,colour,0.06
122,21,1,2,16,17,767,1126.3723413000116,1126.9431942999945,"[68, 0, 186]",186,a,0.04768389998935163,colour,0.06
122,21,1,2,16,18,768,1127.450422600028,1128.1031857000198,"[51, 0, 203]",203,a,0.12963209999725223,colour,0.06
122,21,1,2,16,19,769,1128.6222015999956,1129.9031560000149,"[13, 0, 241]",241,a,0.757735799998045,colour,0.06
122,21,1,2,16,20,770,1130.4188425000175,1131.3591335000237,"[56, 0, 198]",198,a,0.41987260000314564,colour,0.06
122,21,1,2,16,21,771,1131.8690869000275,1132.5431709000259,"[77, 0, 177]",177,l,0.15121070004533976,colour,0.06
122,21,1,2,16,22,772,1133.0582507000072,1133.7511587000336,"[94, 0, 160]",160,l,0.16969790001166984,colour,0.06
122,21,1,2,16,23,773,1134.261291600007,1135.0391738000326,"[73, 0, 181]",181,a,0.25462510000215843,colour,0.06
122,21,1,2,16,24,774,1135.5580437000026,1136.2711686000112,"[63, 0, 191]",191,a,0.18715230002999306,colour,0.06
122,21,1,2,16,25,775,1136.779467299988,1137.3752136999974,"[86, 0, 168]",168,l,0.07256339996820316,colour,0.06
122,21,1,2,16,26,776,1137.8892172999913,1138.4392173999804,"[97, 0, 157]",157,l,0.027258999994955957,colour,0.06
122,21,1,2,16,27,777,1138.9514115999918,1139.927125199989,"[93, 0, 161]",161,l,0.4516503000049852,colour,0.06
122,21,1,2,16,28,778,1140.4367532000178,1141.1591347000212,"[53, 0, 201]",201,a,0.19914899999275804,colour,0.06
122,21,1,2,16,29,779,1141.6710029999958,1142.5752217000118,"[78, 0, 176]",176,l,0.37796110002091154,colour,0.06
122,21,1,2,16,30,780,1143.095794700028,1143.8311571999802,"[84, 0, 170]",170,l,0.20894119999138638,colour,0.06
122,21,1,2,16,31,781,1144.3489937999984,1145.0951325999922,"[83, 0, 171]",171,l,0.22299759997986257,colour,0.06
122,21,1,2,16,32,782,1145.6145419999957,1146.647170500015,"[85, 0, 169]",169,l,0.5094369000289589,colour,0.06
122,21,1,2,16,33,783,1147.161180199997,1147.919172200025,"[55, 0, 199]",199,a,0.23340620001545176,colour,0.06
122,21,1,2,16,34,784,1148.4284397999872,1149.0791301000281,"[80, 0, 174]",174,l,0.12750560004496947,colour,0.06
122,21,1,2,16,35,785,1149.58788180002,1150.3111351000261,"[60, 0, 194]",194,a,0.2000914000091143,colour,0.06
122,21,1,2,16,36,786,1150.8221867000102,1151.5272016000235,"[67, 0, 187]",187,a,0.18179990001954138,colour,0.06
122,21,1,2,16,37,787,1152.0407392000197,1152.703179300006,"[14, 0, 240]",240,a,0.13918170001124963,colour,0.06
122,21,1,2,16,38,788,1153.2125448000152,1153.887250800035,"[62, 0, 192]",192,a,0.15153930004453287,colour,0.06
122,21,1,2,16,39,789,1154.3999485999811,1155.0151682000142,"[96, 0, 158]",158,l,0.09202029998414218,colour,0.06
122,21,1,2,16,40,790,1155.5247805999825,1156.1511347999913,"[99, 0, 155]",155,l,0.10298540000803769,colour,0.06
122,21,1,2,16,41,791,1156.6653816000326,1157.3271522999858,"[69, 0, 185]",185,a,0.13852569996379316,colour,0.06
122,21,1,2,16,42,792,1157.8393627000041,1158.439191100013,"[71, 0, 183]",183,a,0.07366619998356327,colour,0.06
122,21,1,2,16,43,793,1158.9516535000294,1159.6951736999908,"[76, 0, 178]",178,l,0.22029460000339895,colour,0.06
122,21,1,2,16,44,794,1160.2091288000229,1160.8951581000001,"[66, 0, 188]",188,a,0.16276679997099563,colour,0.06
122,21,1,2,16,45,795,1161.412174600002,1162.367124499986,"[87, 0, 167]",167,l,0.4316565999761224,colour,0.06
122,21,1,2,16,46,796,1162.8809285000316,1163.591146300023,"[52, 0, 202]",202,a,0.18709290004335344,colour,0.06
122,21,1,2,16,47,797,1164.099559299997,1164.7751697999774,"[90, 0, 164]",164,l,0.15242949995445088,colour,0.06
122,21,1,2,16,48,798,1165.287024500023,1166.0551140999887,"[21, 0, 233]",233,a,0.24486809998052195,colour,0.06
122,21,1,2,16,49,799,1166.568090500019,1167.4151488000061,"[59, 0, 195]",195,a,0.3240036999923177,colour,0.06
122,21,1,2,16,50,800,1167.9273746000254,1168.9271586000104,"[95, 0, 159]",159,l,0.4767724000266753,colour,0.06
