id,age,condition,counterbalance,block,trialinblock,trial,tstart,tend,trialstim,trialintensity,response,RT,trialtype,colourfreq
148,24,1,1,Practice,1,NA,6.301503162831068e-06,0.8928184615797363,"[54, 0, 200]",200,a,0.3676304593682289,colour,0.5
148,24,1,1,Practice,2,NA,1.4101724807405844,5.396817963744979,"[34, 0, 220]",220,l,3.4634211949887685,colour,0.5
148,24,1,1,Practice,3,NA,5.912151948781684,8.172792672587093,"[96, 0, 158]",158,l,1.737529469479341,colour,0.5
148,24,1,1,Practice,4,NA,8.693253739736974,9.556777570978738,"[27, 0, 227]",227,a,0.3403349893633276,colour,0.5
148,24,1,1,Practice,5,NA,10.068145530705806,12.116805549769197,"[95, 0, 159]",159,l,1.5252352636889555,colour,0.5
148,24,1,1,Practice,6,NA,12.631036767037585,14.740818474208936,"[9, 0, 245]",245,l,1.5872497997479513,colour,0.5
148,24,1,1,Practice,7,NA,15.255644792225212,17.004791525716428,"[94, 0, 160]",160,l,1.2258283164119348,colour,0.5
148,24,1,1,Practice,8,NA,17.52132555830758,18.156797420757357,"[25, 0, 229]",229,a,0.1121743192197755,colour,0.5
148,24,1,1,Practice,9,NA,18.677479041507468,22.484838913194835,"[37, 0, 217]",217,l,3.2840379099943675,colour,0.5
148,24,1,1,Practice,10,NA,23.005625296849757,23.54890105256345,"[53, 0, 201]",201,a,0.01994867401663214,colour,0.5
148,24,1,1,1,1,1,4.536444503581151,7.336032225983217,"[67, 0, 187]",187,l,2.2755434478167444,colour,0.5
148,24,1,1,1,2,2,7.849677007179707,8.759963703167159,"[24, 0, 230]",230,a,0.38694189122179523,colour,0.5
148,24,1,1,1,3,3,9.271627440932207,9.807999870798085,"[92, 0, 162]",162,l,0.013210369448643178,colour,0.5
148,24,1,1,1,4,4,10.318475376348943,12.224004417366814,"[3, 0, 251]",251,l,1.3823268083506264,colour,0.5
148,24,1,1,1,5,5,12.74032695486676,13.552012039057445,"[99, 0, 155]",155,l,0.2883981747436337,colour,0.5
148,24,1,1,1,6,6,14.068405468773562,15.87997751927469,"[25, 0, 229]",229,l,1.2885832822066732,colour,0.5
148,24,1,1,1,7,7,16.39657614257885,18.416003758844454,"[28, 0, 226]",226,l,1.4957949104136787,colour,0.5
148,24,1,1,1,8,8,18.927791164140217,20.072028848400805,"[44, 0, 210]",210,l,0.6214655310614035,colour,0.5
148,24,1,1,1,9,9,20.584043108741753,21.80803098459728,"[40, 0, 214]",214,l,0.7007175079197623,colour,0.5
148,24,1,1,1,10,10,22.323040047020186,23.688108146830928,"[50, 0, 204]",204,l,0.8421187161002308,colour,0.5
148,24,1,1,1,11,11,24.185528064263053,25.928059766825754,"[74, 0, 180]",180,l,1.2187032554065809,colour,0.5
148,24,1,1,1,12,12,26.436304530885536,27.015983830264304,"[55, 0, 199]",199,a,0.05630180548178032,colour,0.5
148,24,1,1,1,13,13,27.530074050824624,28.095940003113355,"[47, 0, 207]",207,a,0.04480860283365473,colour,0.5
148,24,1,1,1,14,14,28.59545596688986,30.375969352491666,"[4, 0, 250]",250,l,1.2573044575983658,colour,0.5
148,24,1,1,1,15,15,30.89226038235938,31.503963268361986,"[97, 0, 157]",157,l,0.08838171203387901,colour,0.5
148,24,1,1,1,16,16,32.00647088338155,34.200001890421845,"[77, 0, 177]",177,l,1.6705008849385194,colour,0.5
148,24,1,1,1,17,17,34.711064619827084,36.359985916060396,"[53, 0, 201]",201,l,1.125540257722605,colour,0.5
148,24,1,1,1,18,18,36.86735870590201,38.3919456996955,"[98, 0, 156]",156,l,1.001272515160963,colour,0.5
148,24,1,1,1,19,19,38.88929039257346,39.41601793729933,"[87, 0, 167]",167,l,0.003478838305454701,colour,0.5
148,24,1,1,1,20,20,39.9361139095854,41.367950262036175,"[41, 0, 213]",213,l,0.9089117809780873,colour,0.5
148,24,1,1,1,21,21,41.889366798626725,42.55194114684127,"[79, 0, 175]",175,l,0.1394591554417275,colour,0.5
148,24,1,1,1,22,22,43.06123669096269,44.543956320907455,"[15, 0, 239]",239,l,0.9593732498469763,colour,0.5
148,24,1,1,1,23,23,45.06122093711747,46.719927327590995,"[21, 0, 233]",233,l,1.1353438626392744,colour,0.5
148,24,1,1,1,24,24,47.220761492615566,47.887913508340716,"[8, 0, 246]",246,a,0.14395569078624249,colour,0.5
148,24,1,1,1,25,25,48.40824854490347,49.22397369740065,"[73, 0, 181]",181,l,0.2924366676597856,colour,0.5
148,24,1,1,1,26,26,49.73637392645469,55.887930049852,"[7, 0, 247]",247,l,5.62858074583346,colour,0.5
148,24,1,1,1,27,27,56.40818395424867,57.039931612613145,"[88, 0, 166]",166,l,0.10843672434566543,colour,0.5
148,24,1,1,1,28,28,57.54879904654808,60.37595753715141,"[64, 0, 190]",190,l,2.3039050580118783,colour,0.5
148,24,1,1,1,29,29,60.89263650489738,62.615916640206706,"[43, 0, 211]",211,l,1.1999191828654148,colour,0.5
148,24,1,1,1,30,30,63.12689863122068,63.85596514621284,"[60, 0, 194]",194,l,0.20574258407577872,colour,0.5
148,24,1,1,1,31,31,64.36303349339869,65.84792833268875,"[45, 0, 209]",209,l,0.9614724469720386,colour,0.5
148,24,1,1,1,32,32,66.36306657642126,67.6878919256269,"[31, 0, 223]",223,l,0.8014549444778822,colour,0.5
148,24,1,1,1,33,33,68.20681896409951,69.8718962011626,"[11, 0, 243]",243,l,1.1418482228764333,colour,0.5
148,24,1,1,1,34,34,70.37870854872745,71.04791486315662,"[93, 0, 161]",161,l,0.14590640808455646,colour,0.5
148,24,1,1,1,35,35,71.5661648811074,73.35992683924269,"[51, 0, 203]",203,l,1.2704143964801915,colour,0.5
148,24,1,1,1,36,36,73.87875423481455,75.20787525805645,"[42, 0, 212]",212,l,0.8058896460570395,colour,0.5
148,24,1,1,1,37,37,75.72242785338312,76.2399157800246,"[90, 0, 164]",164,l,0.005364177224691957,colour,0.5
148,24,1,1,1,38,38,76.7527673561708,78.17589814518578,"[69, 0, 185]",185,l,0.8982165094930679,colour,0.5
148,24,1,1,1,39,39,78.69177484948887,80.4879250873928,"[61, 0, 193]",193,l,1.2728385162190534,colour,0.5
148,24,1,1,1,40,40,81.00428779714275,82.37588979565771,"[23, 0, 231]",231,l,0.8483198152389377,colour,0.5
148,24,1,1,1,41,41,82.89493341249181,83.43189582310151,"[89, 0, 165]",165,l,0.013613273564260453,colour,0.5
148,24,1,1,1,42,42,83.94175220333273,85.4798670061864,"[49, 0, 205]",205,l,1.0147353396750987,colour,0.5
148,24,1,1,1,43,43,85.98870096326573,86.51995064324001,"[16, 0, 238]",238,a,0.008096678066067398,colour,0.5
148,24,1,1,1,44,44,87.03549218492117,89.49629903276218,"[17, 0, 237]",237,l,1.9375104861101136,colour,0.5
148,24,1,1,1,45,45,89.99520335427951,90.53590769204311,"[36, 0, 218]",218,a,0.017406006809324026,colour,0.5
148,24,1,1,1,46,46,91.04206349892775,93.03190464526415,"[13, 0, 241]",241,l,1.4665762922377326,colour,0.5
148,24,1,1,1,47,47,93.54441318183672,96.59189796564169,"[95, 0, 159]",159,l,2.5232195618445985,colour,0.5
148,24,1,1,1,48,48,97.10977816249942,98.73593045631424,"[56, 0, 198]",198,l,1.1027751937508583,colour,0.5
148,24,1,1,1,49,49,99.25042121787556,100.0880315832328,"[96, 0, 158]",158,l,0.3143577204900794,colour,0.5
148,24,1,1,1,50,50,100.59552646521479,101.83984307612991,"[22, 0, 232]",232,l,0.7208831909229048,colour,0.5
148,24,1,1,2,1,51,107.22457785654115,107.79985947586829,"[24, 0, 230]",230,a,0.06344577099662274,colour,0.5
148,24,1,1,2,2,52,108.30676870944444,111.43189779232489,"[32, 0, 222]",222,l,2.602444363408722,colour,0.5
148,24,1,1,2,3,53,111.9474109770963,113.59189442102797,"[35, 0, 219]",219,l,1.1211862945347093,colour,0.5
148,24,1,1,2,4,54,114.10361566022038,115.16783651942387,"[62, 0, 192]",192,a,0.5398587512318045,colour,0.5
148,24,1,1,2,5,55,115.6827624803409,118.76793868292589,"[51, 0, 203]",203,l,2.5618849607999437,colour,0.5
148,24,1,1,2,6,56,119.2765276680584,121.39196893660119,"[86, 0, 168]",168,l,1.5920633808127604,colour,0.5
148,24,1,1,2,7,57,121.903416453104,123.19181777862832,"[64, 0, 190]",190,l,0.7636741226888262,colour,0.5
148,24,1,1,2,8,58,123.70171905728057,124.95180550642544,"[50, 0, 204]",204,l,0.7257617564755492,colour,0.5
148,24,1,1,2,9,59,125.46833796362625,127.11980901635252,"[81, 0, 173]",173,l,1.1280766234267503,colour,0.5
148,24,1,1,2,10,60,127.64026929583633,128.19187606777996,"[38, 0, 216]",216,a,0.028319468605332077,colour,0.5
148,24,1,1,2,11,61,128.702702883631,129.31188240082702,"[58, 0, 196]",196,a,0.08596665074583143,colour,0.5
148,24,1,1,2,12,62,129.8280273139826,133.27983636502177,"[17, 0, 237]",237,l,2.9287832612753846,colour,0.5
148,24,1,1,2,13,63,133.79677566472674,135.76786227693083,"[19, 0, 235]",235,l,1.4478942257119343,colour,0.5
148,24,1,1,2,14,64,136.26851094060112,137.62391406920506,"[31, 0, 223]",223,l,0.8306637165369466,colour,0.5
148,24,1,1,2,15,65,138.14456536376383,139.44817582529504,"[5, 0, 249]",249,l,0.7781184104969725,colour,0.5
148,24,1,1,2,16,66,139.9593122037477,141.84788697888143,"[1, 0, 253]",253,l,1.3637916462030262,colour,0.5
148,24,1,1,2,17,67,142.36992539773928,143.06383095198544,"[85, 0, 169]",169,l,0.1803950744215399,colour,0.5
148,24,1,1,2,18,68,143.5733663481078,145.3439898765646,"[94, 0, 160]",160,l,1.2445572505821474,colour,0.5
148,24,1,1,2,19,69,145.8568469665479,146.9278010102571,"[15, 0, 239]",239,l,0.5478715401259251,colour,0.5
148,24,1,1,2,20,70,147.43516277242452,148.35981774399988,"[59, 0, 195]",195,a,0.40123888076050207,colour,0.5
148,24,1,1,2,21,71,148.87265041552018,149.4560677036061,"[34, 0, 220]",220,a,0.060237504658289254,colour,0.5
148,24,1,1,2,22,72,149.9665270615369,150.48792823817348,"[18, 0, 236]",236,a,0.011040280165616423,colour,0.5
148,24,1,1,2,23,73,151.00136782578193,153.9279534285306,"[25, 0, 229]",229,l,2.4035275175701827,colour,0.5
148,24,1,1,2,24,74,154.43904293939704,156.99989563092822,"[63, 0, 191]",191,l,2.0380801444407552,colour,0.5
148,24,1,1,2,25,75,157.51746390206972,159.03187825757777,"[30, 0, 224]",224,l,0.9918529096757993,colour,0.5
148,24,1,1,2,26,76,159.54844734241487,160.44785050879,"[76, 0, 178]",178,l,0.37689922197023407,colour,0.5
148,24,1,1,2,27,77,160.95460614253534,162.12784149759682,"[22, 0, 232]",232,a,0.6500583285233006,colour,0.5
148,24,1,1,2,28,78,162.64504821848823,164.40788423770573,"[54, 0, 200]",200,l,1.23955738049699,colour,0.5
148,24,1,1,2,29,79,164.92605706193717,166.63997548702173,"[60, 0, 194]",194,l,1.1911974718095735,colour,0.5
148,24,1,1,2,30,80,167.15149350190768,169.19181226479122,"[26, 0, 228]",228,l,1.5172764315502718,colour,0.5
148,24,1,1,2,31,81,169.69819413911318,172.07180002407404,"[96, 0, 158]",158,l,1.8506655597011559,colour,0.5
148,24,1,1,2,32,82,172.5889071020647,173.8957333129365,"[0, 0, 254]",254,l,0.7835790798417293,colour,0.5
148,24,1,1,2,33,83,174.41698404058116,175.83180074876873,"[72, 0, 182]",182,l,0.8914699341985397,colour,0.5
148,24,1,1,2,34,84,176.33888760668924,177.6237478663097,"[75, 0, 179]",179,l,0.7616619654581882,colour,0.5
148,24,1,1,2,35,85,178.13573416363215,179.4237495205016,"[98, 0, 156]",156,l,0.7646886690054089,colour,0.5
148,24,1,1,2,36,86,179.9326579143526,181.15975677670212,"[9, 0, 245]",245,l,0.7041238786187023,colour,0.5
148,24,1,1,2,37,87,181.74976900953334,182.79976022680057,"[20, 0, 234]",234,l,0.5313351445365697,colour,0.5
148,24,1,1,2,38,88,183.30758200061973,184.66391933098203,"[12, 0, 242]",242,l,0.8356568911694922,colour,0.5
148,24,1,1,2,39,89,185.180061881023,186.53576827066718,"[23, 0, 231]",231,l,0.8325490553979762,colour,0.5
148,24,1,1,2,40,90,187.05496154882712,188.25577397359302,"[66, 0, 188]",188,l,0.6775629306212068,colour,0.5
148,24,1,1,2,41,91,188.7736801642459,189.35181283194106,"[53, 0, 201]",201,a,0.05477013986092061,colour,0.5
148,24,1,1,2,42,92,189.8675032472238,191.06375218287576,"[74, 0, 180]",180,a,0.6728954662685283,colour,0.5
148,24,1,1,2,43,93,191.57063109031878,192.58374811836984,"[57, 0, 197]",197,l,0.4899191277218051,colour,0.5
148,24,1,1,2,44,94,193.1018476872705,194.15176761848852,"[89, 0, 165]",165,l,0.5266550771193579,colour,0.5
148,24,1,1,2,45,95,194.66436555801192,195.5197391481488,"[7, 0, 247]",247,l,0.33235095109557733,colour,0.5
148,24,1,1,2,46,96,196.03928216121858,196.7997295068344,"[48, 0, 206]",206,l,0.23723369144136086,colour,0.5
148,24,1,1,2,47,97,197.3213134278194,198.70371073455317,"[47, 0, 207]",207,a,0.859033597400412,colour,0.5
148,24,1,1,2,48,98,199.21207995380973,200.6480508974637,"[41, 0, 213]",213,a,0.9127813141094521,colour,0.5
148,24,1,1,2,49,99,201.16509377857437,201.68775604886468,"[84, 0, 170]",170,l,0.008614978869445622,colour,0.5
148,24,1,1,2,50,100,202.2025863053277,203.55168514722027,"[68, 0, 186]",186,l,0.8256898403051309,colour,0.5
148,24,1,1,3,1,101,208.62370454333723,209.2238173406804,"[22, 0, 232]",232,a,0.07601299061207101,colour,0.5
148,24,1,1,3,2,102,209.73380959767383,210.42369792668615,"[89, 0, 165]",165,l,0.16653013351606205,colour,0.5
148,24,1,1,3,3,103,210.9370630775229,211.55972077918705,"[4, 0, 250]",250,a,0.09973431174876168,colour,0.5
148,24,1,1,3,4,104,212.077581283811,216.1036826139898,"[18, 0, 236]",236,a,3.502984168182593,colour,0.5
148,24,1,1,3,5,105,216.61175054131309,217.6396970381611,"[99, 0, 155]",155,a,0.504681248916313,colour,0.5
148,24,1,1,3,6,106,218.15862880286295,218.76778429548722,"[44, 0, 210]",210,a,0.08592372154816985,colour,0.5
148,24,1,1,3,7,107,219.27425793575821,220.983652256371,"[27, 0, 227]",227,l,1.1859723221277818,colour,0.5
148,24,1,1,3,8,108,221.49303050804883,222.33573684177827,"[43, 0, 211]",211,a,0.3193497136235237,colour,0.5
148,24,1,1,3,9,109,222.85236460965825,223.55970305617666,"[0, 0, 254]",254,a,0.18400112487142906,colour,0.5
148,24,1,1,3,10,110,224.071143089619,224.67171865556156,"[32, 0, 222]",222,a,0.07750487775774673,colour,0.5
148,24,1,1,3,11,111,225.180518348061,228.66367120819632,"[94, 0, 160]",160,l,2.959944325964898,colour,0.5
148,24,1,1,3,12,112,229.18056994187646,229.87167170917382,"[88, 0, 166]",166,l,0.1678239163593389,colour,0.5
148,24,1,1,3,13,113,230.38364658498904,231.42366878211033,"[93, 0, 161]",161,a,0.5167155953822657,colour,0.5
148,24,1,1,3,14,114,231.93050200346624,233.67170290177455,"[92, 0, 162]",162,l,1.2187410646583885,colour,0.5
148,24,1,1,3,15,115,234.18054237263277,234.74374711012933,"[55, 0, 199]",199,a,0.04000250482931733,colour,0.5
148,24,1,1,3,16,116,235.2585978466086,235.78372598427814,"[31, 0, 223]",223,a,0.0018242928781546652,colour,0.5
148,24,1,1,3,17,117,236.30545011430513,236.8557075712015,"[3, 0, 251]",251,a,0.027056799619458616,colour,0.5
148,24,1,1,3,18,118,237.36795971432002,238.63967892131768,"[90, 0, 164]",164,l,0.7483484084368683,colour,0.5
148,24,1,1,3,19,119,239.1492060465971,240.31968054390745,"[70, 0, 184]",184,l,0.6471186648705043,colour,0.5
148,24,1,1,3,20,120,240.83672893891344,242.05565826169914,"[62, 0, 192]",192,a,0.6962946216808632,colour,0.5
148,24,1,1,3,21,121,242.57108952658018,243.25567078602035,"[6, 0, 248]",248,a,0.16123330389382318,colour,0.5
148,24,1,1,3,22,122,243.77418074203888,244.47165847598808,"[54, 0, 200]",200,a,0.17409787693759426,colour,0.5
148,24,1,1,3,23,123,244.99317229248118,245.91162104491377,"[95, 0, 159]",159,l,0.3953359227743931,colour,0.5
148,24,1,1,3,24,124,246.4304523789324,247.4959800178185,"[29, 0, 225]",225,a,0.5422679047915153,colour,0.5
148,24,1,1,3,25,125,248.00858819735004,248.94363636075286,"[50, 0, 204]",204,a,0.4117596785654314,colour,0.5
148,24,1,1,3,26,126,249.46163864980917,250.07964385329979,"[61, 0, 193]",193,a,0.09456823888467625,colour,0.5
148,24,1,1,3,27,127,250.58670550509123,251.2397133433842,"[34, 0, 220]",220,a,0.1297059627249837,colour,0.5
148,24,1,1,3,28,128,251.7585387697327,252.29629714234034,"[52, 0, 202]",202,a,0.014386392489541322,colour,0.5
148,24,1,1,3,29,129,252.80542490817606,253.4556951256818,"[91, 0, 163]",163,l,0.1270577448885888,colour,0.5
148,24,1,1,3,30,130,253.97728849900886,254.51970330823679,"[64, 0, 190]",190,a,0.019320490304380655,colour,0.5
148,24,1,1,3,31,131,255.0304631703184,255.5917132520117,"[72, 0, 182]",182,a,0.03796041535679251,colour,0.5
148,24,1,1,3,32,132,256.10858993028523,259.07164209202165,"[56, 0, 198]",198,a,2.4397309877094813,colour,0.5
148,24,1,1,3,33,133,259.5929818287259,260.9196117785177,"[10, 0, 244]",244,a,0.8032469419995323,colour,0.5
148,24,1,1,3,34,134,261.4367302779574,261.9756524643162,"[8, 0, 246]",246,a,0.01559234771411866,colour,0.5
148,24,1,1,3,35,135,262.4835797887645,263.1836659621913,"[81, 0, 173]",173,l,0.1767114364192821,colour,0.5
148,24,1,1,3,36,136,263.70231533958577,266.4476602813811,"[19, 0, 235]",235,a,2.2312472381745465,colour,0.5
148,24,1,1,3,37,137,266.9618383295019,267.6796223493293,"[35, 0, 219]",219,l,0.19437659363029525,colour,0.5
148,24,1,1,3,38,138,268.19620561262127,269.20764367684023,"[38, 0, 216]",216,a,0.4872397960280068,colour,0.5
148,24,1,1,3,39,139,269.72834105137736,270.42361876374343,"[51, 0, 203]",203,a,0.17189982457784936,colour,0.5
148,24,1,1,3,40,140,270.9314641683013,271.86365970794577,"[2, 0, 252]",252,a,0.40976012439932674,colour,0.5
148,24,1,1,3,41,141,272.38463041133946,273.35966059961356,"[76, 0, 178]",178,a,0.4517302819294855,colour,0.5
148,24,1,1,3,42,142,273.8689451160026,275.32760392990895,"[42, 0, 212]",212,a,0.9353466983302496,colour,0.5
148,24,1,1,3,43,143,275.83771394676296,276.52764087263495,"[75, 0, 179]",179,l,0.16666482872096822,colour,0.5
148,24,1,1,3,44,144,277.0408914143918,277.67160956037696,"[49, 0, 205]",205,a,0.1075119748711586,colour,0.5
148,24,1,1,3,45,145,278.1814273437485,278.71969535254175,"[53, 0, 201]",201,a,0.014867277990560979,colour,0.5
148,24,1,1,3,46,146,279.22886053373804,280.15162977250293,"[11, 0, 243]",243,a,0.3993334556580521,colour,0.5
148,24,1,1,3,47,147,280.6664482136257,281.5916423597955,"[21, 0, 233]",233,a,0.40176624001469463,colour,0.5
148,24,1,1,3,48,148,282.1040150196641,283.0556153325597,"[23, 0, 231]",231,a,0.42836657259613276,colour,0.5
148,24,1,1,3,49,149,283.5726853890228,284.5356024616631,"[96, 0, 158]",158,l,0.43972311075776815,colour,0.5
148,24,1,1,3,50,150,285.04142507520737,286.11162332916865,"[7, 0, 247]",247,a,0.5468388769659214,colour,0.5
148,24,1,1,4,1,151,291.2125147593324,292.09558396670036,"[30, 0, 224]",224,a,0.3682480092975311,colour,0.5
148,24,1,1,4,2,152,292.61028898024233,293.7595958513557,"[52, 0, 202]",202,a,0.6260648600291461,colour,0.5
148,24,1,1,4,3,153,294.26653422950767,297.0796426717425,"[16, 0, 238]",238,a,2.289872338878922,colour,0.5
148,24,1,1,4,4,154,297.5965280146338,298.27956382383127,"[28, 0, 226]",226,a,0.15881036565406248,colour,0.5
148,24,1,1,4,5,155,298.80060108716134,299.43957029865123,"[9, 0, 245]",245,a,0.11555863451212645,colour,0.5
148,24,1,1,4,6,156,299.9568664224935,300.5515788088669,"[67, 0, 187]",187,l,0.07145225838758051,colour,0.5
148,24,1,1,4,7,157,301.06618772412185,301.5916596890311,"[83, 0, 171]",171,l,0.001899517374113202,colour,0.5
148,24,1,1,4,8,158,302.1131061579217,302.75159842241555,"[89, 0, 165]",165,l,0.11516636435408145,colour,0.5
148,24,1,1,4,9,159,303.2693171426072,303.871602392348,"[7, 0, 247]",247,a,0.0789829803397879,colour,0.5
148,24,1,1,4,10,160,304.37869200721616,304.9995963082183,"[74, 0, 180]",180,l,0.09761187771800905,colour,0.5
148,24,1,1,4,11,161,305.5193705086713,307.6635821991367,"[53, 0, 201]",201,a,1.6209172979579307,colour,0.5
148,24,1,1,4,12,162,308.1755645579542,308.7675657111686,"[86, 0, 168]",168,l,0.06861302541801706,colour,0.5
148,24,1,1,4,13,163,309.28489570575766,309.93560821184656,"[33, 0, 221]",221,a,0.12732949835481122,colour,0.5
148,24,1,1,4,14,164,310.4568353086943,311.3596212150296,"[48, 0, 206]",206,a,0.37960691057378426,colour,0.5
148,24,1,1,4,15,165,311.87875974865165,312.74358917807695,"[20, 0, 234]",234,a,0.3416913936380297,colour,0.5
148,24,1,1,4,16,166,313.2536141242599,314.2475878925179,"[57, 0, 197]",197,a,0.47058248973917216,colour,0.5
148,24,1,1,4,17,167,314.769306508766,315.3917208138737,"[34, 0, 220]",220,a,0.09912188182352111,colour,0.5
148,24,1,1,4,18,168,315.90992632723646,316.82355480320984,"[18, 0, 236]",236,a,0.3903010004432872,colour,0.5
148,24,1,1,4,19,169,317.33181729028,318.1355533885071,"[39, 0, 215]",215,a,0.2804720318526961,colour,0.5
148,24,1,1,4,20,170,318.6442912472412,319.51960405911086,"[21, 0, 233]",233,a,0.35200975474435836,colour,0.5
148,24,1,1,4,21,171,320.03493253031047,320.9515435990761,"[62, 0, 192]",192,l,0.3933525162283331,colour,0.5
148,24,1,1,4,22,172,321.4723965426674,322.3196005932987,"[36, 0, 218]",218,a,0.3239384088665247,colour,0.5
148,24,1,1,4,23,173,322.83170425659046,323.68756542756455,"[97, 0, 157]",157,l,0.33250927698099986,colour,0.5
148,24,1,1,4,24,174,324.20674137654714,325.023542515235,"[85, 0, 169]",169,l,0.2936595582868904,colour,0.5
148,24,1,1,4,25,175,325.5349152010749,326.30360573530197,"[15, 0, 239]",239,a,0.2453701479244046,colour,0.5
148,24,1,1,4,26,176,326.81609418580774,327.6395666752942,"[51, 0, 203]",203,a,0.30009578325552866,colour,0.5
148,24,1,1,4,27,177,328.1599076195853,329.0875900823157,"[90, 0, 164]",164,l,0.40436562104150653,colour,0.5
148,24,1,1,4,28,178,329.59737399499863,330.45556751970435,"[81, 0, 173]",173,l,0.334856990724802,colour,0.5
148,24,1,1,4,29,179,330.97239142266335,331.81554477114696,"[76, 0, 178]",178,l,0.3309886390925385,colour,0.5
148,24,1,1,4,30,180,332.3361224166583,333.2395242975326,"[78, 0, 176]",176,a,0.37900196376722306,colour,0.5
148,24,1,1,4,31,181,333.7590795197757,334.58357915864326,"[38, 0, 216]",216,a,0.30124896322377026,colour,0.5
148,24,1,1,4,32,182,335.1027547137346,335.9835309518967,"[55, 0, 199]",199,a,0.35743655340047553,colour,0.5
148,24,1,1,4,33,183,336.49399976211134,337.3195186734083,"[31, 0, 223]",223,a,0.3020913989748806,colour,0.5
148,24,1,1,4,34,184,337.8284526672214,338.6395312292152,"[56, 0, 198]",198,a,0.28776802180800587,colour,0.5
148,24,1,1,4,35,185,339.1566300363629,340.0075161496061,"[24, 0, 230]",230,a,0.3277831297018565,colour,0.5
148,24,1,1,4,36,186,340.51591215038206,341.2878148893942,"[60, 0, 194]",194,a,0.2486055896151811,colour,0.5
148,24,1,1,4,37,187,341.79720771335997,342.63954265072243,"[72, 0, 182]",182,l,0.31905275402823463,colour,0.5
148,24,1,1,4,38,188,343.15655599342426,343.91956451704027,"[42, 0, 212]",212,a,0.23980707867303863,colour,0.5
148,24,1,1,4,39,189,344.4378098087618,345.23954595898977,"[50, 0, 204]",204,a,0.2784732653526589,colour,0.5
148,24,1,1,4,40,190,345.7502526519238,346.9115422757459,"[41, 0, 213]",213,a,0.6379125236999243,colour,0.5
148,24,1,1,4,41,191,347.4221950118663,348.46363347780425,"[93, 0, 161]",161,l,0.5182854640297592,colour,0.5
148,24,1,1,4,42,192,348.98469988571014,349.75149169022916,"[10, 0, 244]",244,a,0.243493867397774,colour,0.5
148,24,1,1,4,43,193,350.2658816273324,351.01549270481337,"[8, 0, 246]",246,a,0.22625288198469207,colour,0.5
148,24,1,1,4,44,194,351.5314792919671,352.279527590028,"[45, 0, 209]",209,a,0.22462393651949242,colour,0.5
148,24,1,1,4,45,195,352.79757044516737,353.5595218871604,"[66, 0, 188]",188,l,0.23849990509916097,colour,0.5
148,24,1,1,4,46,196,354.07885773741873,354.8395059442846,"[1, 0, 253]",253,a,0.2373609035857953,colour,0.5
148,24,1,1,4,47,197,355.360123762046,356.12751460575964,"[29, 0, 225]",225,a,0.2440121682593599,colour,0.5
148,24,1,1,4,48,198,356.6444350008969,357.2155209829216,"[95, 0, 159]",159,l,0.04776086955098435,colour,0.5
148,24,1,1,4,49,199,357.72251174249686,358.4234848562046,"[92, 0, 162]",162,l,0.17789691168582067,colour,0.5
148,24,1,1,4,50,200,358.94122484407853,359.7195220604772,"[19, 0, 235]",235,a,0.254933113232255,colour,0.5
148,24,1,1,5,1,201,364.94040170672815,366.75164607772604,"[71, 0, 183]",183,l,1.2870965150068514,colour,0.4
148,24,1,1,5,2,202,367.2693372287322,367.99149844865315,"[80, 0, 174]",174,l,0.19883216900052503,colour,0.4
148,24,1,1,5,3,203,368.5037100256304,370.8234728833195,"[18, 0, 236]",236,a,1.7965117882122286,colour,0.4
148,24,1,1,5,4,204,371.3318669148139,372.2154800229473,"[51, 0, 203]",203,a,0.37236487749032676,colour,0.4
148,24,1,1,5,5,205,372.72593623009743,373.6634530177689,"[54, 0, 200]",200,a,0.41411684453487396,colour,0.4
148,24,1,1,5,6,206,374.1790335501428,375.0795174288214,"[31, 0, 223]",223,a,0.37708236020989716,colour,0.4
148,24,1,1,5,7,207,375.60101942997426,376.43950570799643,"[26, 0, 228]",228,a,0.3152375716017559,colour,0.4
148,24,1,1,5,8,208,376.9603582576965,377.7194747989997,"[3, 0, 251]",251,a,0.23644009255804121,colour,0.4
148,24,1,1,5,9,209,378.2259173254715,379.1114756370662,"[17, 0, 237]",237,a,0.3621343438862823,colour,0.4
148,24,1,1,5,10,210,379.6321816762211,380.45545842446154,"[57, 0, 197]",197,a,0.30001465103123337,colour,0.4
148,24,1,1,5,11,211,380.962164433673,381.8234862740501,"[66, 0, 188]",188,a,0.3387682714383118,colour,0.4
148,24,1,1,5,12,212,382.3287626237143,383.12749333807733,"[19, 0, 235]",235,a,0.2754386849119328,colour,0.4
148,24,1,1,5,13,213,383.6417123461724,384.4634979949333,"[6, 0, 248]",248,a,0.2984302101540379,colour,0.4
148,24,1,1,5,14,214,384.96993579529226,385.75949187611695,"[78, 0, 176]",176,l,0.26693989045452327,colour,0.4
148,24,1,1,5,15,215,386.2671509917127,387.2955169341876,"[68, 0, 186]",186,l,0.5055599185288884,colour,0.4
148,24,1,1,5,16,216,387.8135590016027,388.74349819973577,"[89, 0, 165]",165,l,0.4066322025610134,colour,0.4
148,24,1,1,5,17,217,389.25102458935,390.1274263843079,"[90, 0, 164]",164,l,0.3529912179801613,colour,0.4
148,24,1,1,5,18,218,390.6444913208252,391.5914797015721,"[13, 0, 241]",241,a,0.42366720677819103,colour,0.4
148,24,1,1,5,19,219,392.1130691364524,393.14345511299325,"[37, 0, 217]",217,a,0.5069986364687793,colour,0.4
148,24,1,1,5,20,220,393.65999977942556,394.47142138093477,"[38, 0, 216]",216,a,0.2881118489895016,colour,0.4
148,24,1,1,5,21,221,394.9881346132606,395.78349597845227,"[21, 0, 233]",233,a,0.2720453111687675,colour,0.4
148,24,1,1,5,22,222,396.30058572720736,397.0954886560794,"[56, 0, 198]",198,l,0.27165304095251486,colour,0.4
148,24,1,1,5,23,223,397.6130683487281,399.11945652455324,"[36, 0, 218]",218,a,0.9831138694426045,colour,0.4
148,24,1,1,5,24,224,399.62876782246167,400.38345320679946,"[98, 0, 156]",156,l,0.2314547948190011,colour,0.4
148,24,1,1,5,25,225,400.89432728412794,401.7114698869409,"[67, 0, 187]",187,a,0.29375762585550547,colour,0.4
148,24,1,1,5,26,226,402.2224432133371,403.0874427840463,"[70, 0, 184]",184,a,0.3417918242048472,colour,0.4
148,24,1,1,5,27,227,403.5974094410776,404.3594053876586,"[64, 0, 190]",190,a,0.2386637448798865,colour,0.4
148,24,1,1,5,28,228,404.87871524412185,405.6235103774234,"[72, 0, 182]",182,a,0.22149050084408373,colour,0.4
148,24,1,1,5,29,229,406.144295579521,407.9514400176704,"[55, 0, 199]",199,a,1.2837535534636118,colour,0.4
148,24,1,1,5,30,230,408.4724465610343,409.25547622627346,"[32, 0, 222]",222,a,0.2597585096373223,colour,0.4
148,24,1,1,5,31,231,409.7692753949668,410.55148231668863,"[59, 0, 195]",195,a,0.25884557550307363,colour,0.4
148,24,1,1,5,32,232,411.06613888725406,411.88744325668085,"[63, 0, 191]",191,a,0.2979422354255803,colour,0.4
148,24,1,1,5,33,233,412.3943142872304,413.159410192573,"[16, 0, 238]",238,a,0.24178418365772814,colour,0.4
148,24,1,1,5,34,234,413.6775030660792,414.43143778067315,"[22, 0, 232]",232,a,0.23052453150739893,colour,0.4
148,24,1,1,5,35,235,414.94378405285534,415.5914328339277,"[61, 0, 193]",193,a,0.12431736709550023,colour,0.4
148,24,1,1,5,36,236,416.10002142516896,416.7674546467024,"[0, 0, 254]",254,a,0.14415064436616376,colour,0.4
148,24,1,1,5,37,237,417.2875112344045,417.9274213431054,"[58, 0, 196]",196,a,0.11652552551822737,colour,0.4
148,24,1,1,5,38,238,418.4437769636279,419.19943120813696,"[82, 0, 172]",172,l,0.23233031359268352,colour,0.4
148,24,1,1,5,39,239,419.7094025913393,420.4074230444967,"[12, 0, 242]",242,a,0.17471857758937404,colour,0.4
148,24,1,1,5,40,240,420.9281857974129,421.75944185775006,"[69, 0, 185]",185,a,0.30877417128067464,colour,0.4
148,24,1,1,5,41,241,422.27188028983073,422.99942774232477,"[1, 0, 253]",253,a,0.20425817999057472,colour,0.4
148,24,1,1,5,42,242,423.506242452946,424.2794058917789,"[83, 0, 171]",171,l,0.25008605531184,colour,0.4
148,24,1,1,5,43,243,424.78753959131427,425.5433880017372,"[96, 0, 158]",158,l,0.23259458399843425,colour,0.4
148,24,1,1,5,44,244,426.0531163821579,426.83956541499356,"[73, 0, 181]",181,a,0.26313612959347665,colour,0.4
148,24,1,1,5,45,245,427.3499629391008,428.0234121523099,"[99, 0, 155]",155,l,0.1500744762015529,colour,0.4
148,24,1,1,5,46,246,428.5374921329203,429.24739333282923,"[24, 0, 230]",230,a,0.18567457486642525,colour,0.4
148,24,1,1,5,47,247,429.7572449869476,430.4554166768212,"[4, 0, 250]",250,l,0.1747233037604019,colour,0.4
148,24,1,1,5,48,248,430.9759915653849,431.78339554782724,"[81, 0, 173]",173,l,0.2847381675383076,colour,0.4
148,24,1,1,5,49,249,432.30413191305706,433.08746326406254,"[88, 0, 166]",166,l,0.25998694013105705,colour,0.4
148,24,1,1,5,50,250,433.6010410914896,434.4634204073227,"[60, 0, 194]",194,a,0.3390813787118532,colour,0.4
148,24,1,1,6,1,251,444.22517413884634,445.07939336745767,"[82, 0, 172]",172,l,0.3300922465277836,colour,0.28
148,24,1,1,6,2,252,445.60106472222833,446.22340301511576,"[37, 0, 217]",217,a,0.09912660799454898,colour,0.28
148,24,1,1,6,3,253,446.7417971804971,447.55141103063943,"[91, 0, 163]",163,l,0.28647935891058296,colour,0.28
148,24,1,1,6,4,254,448.06972839619266,448.77537330653286,"[88, 0, 166]",166,l,0.18230246868915856,colour,0.28
148,24,1,1,6,5,255,449.2883855716791,449.84738837037,"[59, 0, 195]",195,a,0.03566272009629756,colour,0.28
148,24,1,1,6,6,256,450.36653596244287,451.11939114617417,"[65, 0, 189]",189,a,0.2294835975044407,colour,0.28
148,24,1,1,6,7,257,451.63213914091466,452.9514864914818,"[36, 0, 218]",218,a,0.7959379551466554,colour,0.28
148,24,1,1,6,8,258,453.4603373839054,454.2153728969279,"[85, 0, 169]",169,l,0.23172182211419567,colour,0.28
148,24,1,1,6,9,259,454.7259378054878,455.4954991323175,"[51, 0, 203]",203,a,0.24623306363355368,colour,0.28
148,24,1,1,6,10,260,456.00714869168587,456.67937383271055,"[86, 0, 168]",168,l,0.14940415095770732,colour,0.28
148,24,1,1,6,11,261,457.1946861562319,457.751401105721,"[1, 0, 253]",253,a,0.031912128266412765,colour,0.28
148,24,1,1,6,12,262,458.2586620434304,458.8633540837327,"[56, 0, 198]",198,a,0.08137165399966761,colour,0.28
148,24,1,1,6,13,263,459.3836682465044,459.9354660335812,"[35, 0, 219]",219,a,0.028936624759808183,colour,0.28
148,24,1,1,6,14,264,460.44606953894254,462.31939539971063,"[61, 0, 193]",193,a,1.3498530561919324,colour,0.28
148,24,1,1,6,15,265,462.8368230679771,464.7993718950311,"[84, 0, 170]",170,l,1.4393631358980201,colour,0.28
148,24,1,1,6,16,266,465.3055017081206,466.1753664536518,"[69, 0, 185]",185,a,0.34667472215369344,colour,0.28
148,24,1,1,6,17,267,466.6960791881429,467.327388496371,"[66, 0, 188]",188,a,0.10789754969300702,colour,0.28
148,24,1,1,6,18,268,467.83673445275053,468.57536629610695,"[96, 0, 158]",158,l,0.2152708909707144,colour,0.28
148,24,1,1,6,19,269,469.0867752157501,469.8313450693968,"[93, 0, 161]",161,l,0.22123056271811947,colour,0.28
148,24,1,1,6,20,270,470.3523862711736,470.88744561973726,"[54, 0, 200]",200,a,0.012067035655491054,colour,0.28
148,24,1,1,6,21,271,471.39912511134753,473.30338518175995,"[94, 0, 160]",160,l,1.3807833273895085,colour,0.28
148,24,1,1,6,22,272,473.82110705273226,475.5993830014486,"[52, 0, 202]",202,a,1.2550040053902194,colour,0.28
148,24,1,1,6,23,273,476.1179859050317,476.9594669850776,"[72, 0, 182]",182,a,0.3181559675722383,colour,0.28
148,24,1,1,6,24,274,477.4773534834967,478.4234659516369,"[70, 0, 184]",184,a,0.42268653120845556,colour,0.28
148,24,1,1,6,25,275,478.93043741281144,479.6873543263646,"[53, 0, 201]",201,a,0.2344397507258691,colour,0.28
148,24,1,1,6,26,276,480.19600435748,480.9993257363094,"[4, 0, 250]",250,a,0.2798962295637466,colour,0.28
148,24,1,1,6,27,277,481.5086535757291,482.28741040994646,"[15, 0, 239]",239,a,0.25551442930009216,colour,0.28
148,24,1,1,6,28,278,482.80538473592605,483.4633479397162,"[19, 0, 235]",235,a,0.1347156788688153,colour,0.28
148,24,1,1,6,29,279,483.977329852758,484.96734429115895,"[28, 0, 226]",226,a,0.4674285741057247,colour,0.28
148,24,1,1,6,30,280,485.4774168926524,486.263359833858,"[68, 0, 186]",186,a,0.2636351319379173,colour,0.28
148,24,1,1,6,31,281,486.77421618811786,487.5753170654061,"[87, 0, 167]",167,l,0.2778923431178555,colour,0.28
148,24,1,1,6,32,282,488.08677482191706,488.72734422812937,"[57, 0, 197]",197,a,0.11732621362898499,colour,0.28
148,24,1,1,6,33,283,489.24295705585973,490.18347849167185,"[45, 0, 209]",209,a,0.41720616951351985,colour,0.28
148,24,1,1,6,34,284,490.68365887296386,491.42332968104165,"[97, 0, 157]",157,l,0.21636105555808172,colour,0.28
148,24,1,1,6,35,285,491.9337614697288,492.7353546540253,"[67, 0, 187]",187,a,0.27871823735767975,colour,0.28
148,24,1,1,6,36,286,493.24607631308027,494.0393002781202,"[62, 0, 192]",192,a,0.2698472588090226,colour,0.28
148,24,1,1,6,37,287,494.55863691610284,495.3513079218683,"[20, 0, 234]",234,a,0.26940693939104676,colour,0.28
148,24,1,1,6,38,288,495.8711809775559,496.69533875840716,"[90, 0, 164]",164,l,0.3016053934697993,colour,0.28
148,24,1,1,6,39,289,497.2148691684124,497.9993312501465,"[76, 0, 178]",178,l,0.2611464215442538,colour,0.28
148,24,1,1,6,40,290,498.5117476268788,499.27975050668465,"[46, 0, 208]",208,a,0.244623810518533,colour,0.28
148,24,1,1,6,41,291,499.7929821438156,500.5833412758657,"[58, 0, 196]",196,a,0.2670544995344244,colour,0.28
148,24,1,1,6,42,292,501.0788281990099,501.8473501673434,"[95, 0, 159]",159,l,0.24527798808412626,colour,0.28
148,24,1,1,6,43,293,502.35995401459513,503.1433523193118,"[77, 0, 177]",177,a,0.25994479859946296,colour,0.28
148,24,1,1,6,44,294,503.65684625762515,504.4313058423577,"[60, 0, 194]",194,a,0.2512175737065263,colour,0.28
148,24,1,1,6,45,295,504.9381244914257,505.74330442765495,"[12, 0, 242]",242,a,0.28220377094112337,colour,0.28
148,24,1,1,6,46,296,506.25064058986027,507.05535184982,"[75, 0, 179]",179,l,0.2814625535393134,colour,0.28
148,24,1,1,6,47,297,507.56308776530204,508.3593175600399,"[44, 0, 210]",210,a,0.2727770762867294,colour,0.28
148,24,1,1,6,48,298,508.87562079913914,509.75932173483307,"[73, 0, 181]",181,a,0.36035337403882295,colour,0.28
148,24,1,1,6,49,299,510.2662144268397,510.91931639425457,"[10, 0, 244]",244,a,0.12973195652011782,colour,0.28
148,24,1,1,6,50,300,511.4380744730588,512.207407369453,"[83, 0, 171]",171,l,0.24601487314794213,colour,0.28
148,24,1,1,7,1,301,518.3434570034733,519.3352957346942,"[91, 0, 163]",163,l,0.46752152167027816,colour,0.14
148,24,1,1,7,2,302,519.8442891992163,520.6553724873229,"[89, 0, 165]",165,l,0.28760615119244903,colour,0.14
148,24,1,1,7,3,303,521.1724445130676,523.4952880311175,"[95, 0, 159]",159,l,1.799467993376311,colour,0.14
148,24,1,1,7,4,304,524.0160964701208,524.8232980158646,"[13, 0, 241]",241,a,0.2887715403921902,colour,0.14
148,24,1,1,7,5,305,525.3392424616031,526.0473130670725,"[94, 0, 160]",160,l,0.184955412754789,colour,0.14
148,24,1,1,7,6,306,526.557942172396,527.2312708688551,"[56, 0, 198]",198,a,0.14994096249574795,colour,0.14
148,24,1,1,7,7,307,527.7454709723825,528.7752579097869,"[66, 0, 188]",188,a,0.5064287419081666,colour,0.14
148,24,1,1,7,8,308,529.2941995206056,530.0792484323028,"[80, 0, 174]",174,a,0.2606009453884326,colour,0.14
148,24,1,1,7,9,309,530.5922733004554,531.1512843699311,"[52, 0, 202]",202,a,0.0338297626003623,colour,0.14
148,24,1,1,7,10,310,531.658613442909,533.679265525192,"[53, 0, 201]",201,a,1.4976483478676528,colour,0.14
148,24,1,1,7,11,311,534.1898005014518,534.7192971745972,"[60, 0, 194]",194,a,0.006350366631522775,colour,0.14
148,24,1,1,7,12,312,535.2367019998492,537.0232747002156,"[51, 0, 203]",203,a,1.263307452434674,colour,0.14
148,24,1,1,7,13,313,537.5335650983616,538.8792812002357,"[62, 0, 192]",192,a,0.8225048108142801,colour,0.14
148,24,1,1,7,14,314,539.392950006004,541.4632534168195,"[59, 0, 195]",195,a,1.5470031106378883,colour,0.14
148,24,1,1,7,15,315,541.971773872734,542.6872783141444,"[40, 0, 214]",214,a,0.19298001704737544,colour,0.14
148,24,1,1,7,16,316,543.2054271137458,543.8712286328664,"[99, 0, 155]",155,l,0.14260598184773698,colour,0.14
148,24,1,1,7,17,317,544.3773100029794,545.1672532340745,"[84, 0, 170]",170,l,0.266716186190024,colour,0.14
148,24,1,1,7,18,318,545.6741636491497,546.5032425309182,"[71, 0, 183]",183,a,0.31687990779755637,colour,0.14
148,24,1,1,7,19,319,547.022420842899,547.8392440369935,"[57, 0, 197]",197,a,0.29353510309010744,colour,0.14
148,24,1,1,7,20,320,548.3505891536479,549.1112798958202,"[97, 0, 157]",157,l,0.2373609035857953,colour,0.14
148,24,1,1,7,21,321,549.6318236705847,550.4153172859224,"[38, 0, 216]",216,a,0.2601515675196424,colour,0.14
148,24,1,1,7,22,322,550.9287084305543,551.5432533065323,"[92, 0, 162]",162,l,0.09200863627484068,colour,0.14
148,24,1,1,7,23,323,552.0537087259581,552.8235469263163,"[24, 0, 230]",230,a,0.24648591253207996,colour,0.14
148,24,1,1,7,24,324,553.3350393412402,554.071263212536,"[55, 0, 199]",199,a,0.2129318419029005,colour,0.14
148,24,1,1,7,25,325,554.5849883382325,555.3272136289161,"[79, 0, 175]",175,l,0.21893562434706837,colour,0.14
148,24,1,1,7,26,326,555.834983808978,556.5032141740085,"[86, 0, 168]",168,l,0.1449505448108539,colour,0.14
148,24,1,1,7,27,327,557.022504732071,557.7672246408765,"[35, 0, 219]",219,a,0.2215688761207275,colour,0.14
148,24,1,1,7,28,328,558.2880661629024,559.0873147842358,"[72, 0, 182]",182,l,0.275969588838052,colour,0.14
148,24,1,1,7,29,329,559.600522002962,560.1352650935296,"[61, 0, 193]",193,a,0.011347873602062464,colour,0.14
148,24,1,1,7,30,330,560.6473876614473,561.2471889269655,"[73, 0, 181]",181,a,0.0764009285485372,colour,0.14
148,24,1,1,7,31,331,561.756906673545,562.3752336488687,"[22, 0, 232]",232,a,0.09509599197190255,colour,0.14
148,24,1,1,7,32,332,562.8817907844787,563.9273862908594,"[68, 0, 186]",186,a,0.5223101723240688,colour,0.14
148,24,1,1,7,33,333,564.4442929013749,565.2152082694811,"[83, 0, 171]",171,l,0.2475815910147503,colour,0.14
148,24,1,1,7,34,334,565.7255577444448,566.5112962797866,"[77, 0, 177]",177,l,0.26242090592859313,colour,0.14
148,24,1,1,7,35,335,567.0224141475628,567.7752106483094,"[87, 0, 167]",167,l,0.22984908625949174,colour,0.14
148,24,1,1,7,36,336,568.2755379340379,568.999239090248,"[74, 0, 180]",180,a,0.20029451773734763,colour,0.14
148,24,1,1,7,37,337,569.5099316047854,570.2232375999447,"[17, 0, 237]",237,a,0.1899934858083725,colour,0.14
148,24,1,1,7,38,338,570.7443347278167,571.4872283745208,"[75, 0, 179]",179,a,0.2196039803675376,colour,0.14
148,24,1,1,7,39,339,571.9943022355437,573.1192355771782,"[64, 0, 190]",190,a,0.6016657306463458,colour,0.14
148,24,1,1,7,40,340,573.634906694002,574.183353642642,"[54, 0, 200]",200,a,0.025087965419515967,colour,0.14
148,24,1,1,7,41,341,574.6974009340047,575.6312269945047,"[78, 0, 176]",176,l,0.4105131571996026,colour,0.14
148,24,1,1,7,42,342,576.1505029802211,576.8551975411247,"[76, 0, 178]",178,l,0.18136787303956226,colour,0.14
148,24,1,1,7,43,343,577.3692649186705,577.9033120840322,"[70, 0, 184]",184,a,0.010723234445322305,colour,0.14
148,24,1,1,7,44,344,578.416156570951,578.9592255577445,"[65, 0, 189]",189,a,0.01979980041505769,colour,0.14
148,24,1,1,7,45,345,579.47864726634,580.8792355141486,"[69, 0, 185]",185,a,0.8773064583656378,colour,0.14
148,24,1,1,7,46,346,581.4004708817811,582.5032122047851,"[98, 0, 156]",156,l,0.5794323582085781,colour,0.14
148,24,1,1,7,47,347,583.0098642571829,583.5911973142647,"[93, 0, 161]",161,l,0.06097990361740813,colour,0.14
148,24,1,1,7,48,348,584.1007602795726,585.1191709864652,"[50, 0, 204]",204,a,0.495123797445558,colour,0.14
148,24,1,1,7,49,349,585.6320316210622,586.591178409697,"[90, 0, 164]",164,l,0.4358783899224363,colour,0.14
148,24,1,1,7,50,350,587.1007693380234,587.9431787121575,"[96, 0, 158]",158,l,0.3190338494605385,colour,0.14
148,24,1,1,8,1,351,597.4279987207847,598.9112709161709,"[80, 0, 174]",174,a,0.9591810532147065,colour,0.06
148,24,1,1,8,2,352,599.4288301288616,601.9511899257195,"[92, 0, 162]",162,l,1.998952764493879,colour,0.06
148,24,1,1,8,3,353,602.4600443627569,603.3113160508219,"[64, 0, 190]",190,l,0.3279386986978352,colour,0.06
148,24,1,1,8,4,354,603.8195159164607,604.4391788161593,"[86, 0, 168]",168,l,0.09643467323621735,colour,0.06
148,24,1,1,8,5,355,604.9600790211698,606.8872124631307,"[81, 0, 173]",173,l,1.4038772524800152,colour,0.06
148,24,1,1,8,6,356,607.3975875380565,608.6631725996849,"[76, 0, 178]",178,a,0.7423469890491106,colour,0.06
148,24,1,1,8,7,357,609.178805119649,609.9591503332485,"[75, 0, 179]",179,a,0.2569850488798693,colour,0.06
148,24,1,1,8,8,358,610.4756134736235,611.4391835422721,"[84, 0, 170]",170,a,0.44017248862655833,colour,0.06
148,24,1,1,8,9,359,611.9600037966738,612.7512289952138,"[59, 0, 195]",195,a,0.26792962453328073,colour,0.06
148,24,1,1,8,10,360,613.2725793657592,613.9911439875723,"[53, 0, 201]",201,a,0.1953493922483176,colour,0.06
148,24,1,1,8,11,361,614.5068852089462,615.3111565433792,"[96, 0, 158]",158,l,0.28106595104327425,colour,0.06
148,24,1,1,8,12,362,615.8193843720364,616.6231389809982,"[97, 0, 157]",157,l,0.2804251642082818,colour,0.06
148,24,1,1,8,13,363,617.1319327658275,617.9431397214648,"[95, 0, 159]",159,l,0.2879291046410799,colour,0.06
148,24,1,1,8,14,364,618.4600199443521,619.0151465145173,"[70, 0, 184]",184,a,0.03177191928261891,colour,0.06
148,24,1,1,8,15,365,619.5101348290918,620.1831409659935,"[52, 0, 202]",202,a,0.14966645214008167,colour,0.06
148,24,1,1,8,16,366,620.6994020635611,621.6552169183269,"[63, 0, 191]",191,a,0.43262483133003116,colour,0.06
148,24,1,1,8,17,367,622.1681358420756,622.895168932213,"[61, 0, 193]",193,a,0.20375760225579143,colour,0.06
148,24,1,1,8,18,368,623.4025200605392,624.2871453518746,"[74, 0, 180]",180,a,0.3613694957457483,colour,0.06
148,24,1,1,8,19,369,624.7930589437019,625.5751362902811,"[93, 0, 161]",161,l,0.2587049726280384,colour,0.06
148,24,1,1,8,20,370,626.0899555190699,626.8631638563238,"[67, 0, 187]",187,a,0.2500978706520982,colour,0.06
148,24,1,1,8,21,371,627.3712597466656,628.0711623880197,"[62, 0, 192]",192,a,0.1769213561201468,colour,0.06
148,24,1,1,8,22,372,628.5900311373989,629.3511527467053,"[90, 0, 164]",164,l,0.237547192547936,colour,0.06
148,24,1,1,8,23,373,629.8715149586205,630.6151206782088,"[55, 0, 199]",199,a,0.22035110549768433,colour,0.06
148,24,1,1,8,24,374,631.1214899494662,631.8952240705839,"[56, 0, 198]",198,a,0.25044327322393656,colour,0.06
148,24,1,1,8,25,375,632.402724860236,633.1831149721984,"[66, 0, 188]",188,a,0.25696456886362284,colour,0.06
148,24,1,1,8,26,376,633.6996899647056,634.4631305369548,"[58, 0, 196]",196,a,0.24008985981345177,colour,0.06
148,24,1,1,8,27,377,634.980862254044,635.7514137087855,"[91, 0, 163]",163,l,0.24717711156699806,colour,0.06
148,24,1,1,8,28,378,636.262147183239,636.9351438678568,"[10, 0, 244]",244,a,0.1496377014555037,colour,0.06
148,24,1,1,8,29,379,637.4496381740319,638.2071391606005,"[51, 0, 203]",203,a,0.23418020643293858,colour,0.06
148,24,1,1,8,30,380,638.7152708909125,639.4951336436206,"[71, 0, 183]",183,a,0.2565466986852698,colour,0.06
148,24,1,1,8,31,381,640.0121253248071,640.5591879060958,"[50, 0, 204]",204,l,0.02376109955366701,colour,0.06
148,24,1,1,8,32,382,641.0746325617074,642.0391478598467,"[44, 0, 210]",210,a,0.44150132371578366,colour,0.06
148,24,1,1,8,33,383,642.558878737269,643.3191736646113,"[68, 0, 186]",186,a,0.2352093249792233,colour,0.06
148,24,1,1,8,34,384,643.8251616933267,644.5831699530245,"[79, 0, 175]",175,l,0.23459098738385364,colour,0.06
148,24,1,1,8,35,385,645.0907499056775,645.8791508373688,"[73, 0, 181]",181,l,0.2649210379458964,colour,0.06
148,24,1,1,8,36,386,646.387710283976,647.1511083209189,"[15, 0, 239]",239,a,0.24010009982157499,colour,0.06
148,24,1,1,8,37,387,647.6689321979065,648.4631029677694,"[72, 0, 182]",182,l,0.2708086359198205,colour,0.06
148,24,1,1,8,38,388,648.9721401491552,649.7511222630274,"[88, 0, 166]",166,l,0.25582753657363355,colour,0.06
148,24,1,1,8,39,389,650.2689949768828,651.0710749542923,"[65, 0, 189]",189,a,0.27874265576247126,colour,0.06
148,24,1,1,8,40,390,651.5814980784198,652.375069415255,"[54, 0, 200]",200,a,0.2702804889413528,colour,0.06
148,24,1,1,8,41,391,652.8939421030809,653.6870869051781,"[87, 0, 167]",167,l,0.26980787422508,colour,0.06
148,24,1,1,8,42,392,654.2064826199785,654.9671375221806,"[83, 0, 171]",171,l,0.23756018944550306,colour,0.06
148,24,1,1,8,43,393,655.4877328907605,656.167106329638,"[98, 0, 156]",156,l,0.1560593541362323,colour,0.06
148,24,1,1,8,44,394,656.6771277312073,657.5031125618261,"[69, 0, 185]",185,a,0.3025533798499964,colour,0.06
148,24,1,1,8,45,395,658.0209549495485,658.7831159174093,"[78, 0, 176]",176,a,0.23887602763716131,colour,0.06
148,24,1,1,8,46,396,659.3022024634411,660.2631195880822,"[82, 0, 172]",172,l,0.4376621167175472,colour,0.06
148,24,1,1,8,47,397,660.7708633804577,661.5671116859303,"[85, 0, 169]",169,l,0.27293579606339335,colour,0.06
148,24,1,1,8,48,398,662.0833869619528,663.1750635863864,"[77, 0, 177]",177,l,0.5683802627027035,colour,0.06
148,24,1,1,8,49,399,663.6927472542739,664.5590618755086,"[60, 0, 194]",194,a,0.3429761180304922,colour,0.06
148,24,1,1,8,50,400,665.0677599558257,665.8230766746565,"[94, 0, 160]",160,l,0.23202744632726535,colour,0.06
148,24,1,1,9,1,401,670.2075168585288,670.9751188035007,"[90, 0, 164]",164,l,0.24349623051239178,colour,0.06
148,24,1,1,9,2,402,671.4923570320825,672.2550630822661,"[77, 0, 177]",177,a,0.23817104403860867,colour,0.06
148,24,1,1,9,3,403,672.7748246795963,673.3110758050461,"[52, 0, 202]",202,a,0.012912622245494276,colour,0.06
148,24,1,1,9,4,404,673.8216899442486,674.8790878220461,"[61, 0, 193]",193,a,0.534410291002132,colour,0.06
148,24,1,1,9,5,405,675.3997824396938,676.2230477663688,"[74, 0, 180]",180,a,0.299669248459395,colour,0.06
148,24,1,1,9,6,406,676.7435517627164,677.5111001447076,"[84, 0, 170]",170,a,0.2442937679006718,colour,0.06
148,24,1,1,9,7,407,678.0248079411685,678.871091180772,"[59, 0, 195]",195,a,0.3229096841532737,colour,0.06
148,24,1,1,9,8,408,679.384147162782,680.0870540584438,"[88, 0, 166]",166,l,0.17961407854454592,colour,0.06
148,24,1,1,9,9,409,680.6029260365758,681.6390826390125,"[51, 0, 203]",203,a,0.5128342469106428,colour,0.06
148,24,1,1,9,10,410,682.1496971721062,683.5270784611348,"[95, 0, 159]",159,l,0.8539837090065703,colour,0.06
148,24,1,1,9,11,411,684.0403880797094,684.8871175463428,"[97, 0, 157]",157,l,0.3234165633912198,colour,0.06
148,24,1,1,9,12,412,685.3998210365535,686.3830211581662,"[70, 0, 184]",184,a,0.45983168616658077,colour,0.06
148,24,1,1,9,13,413,686.8997757442994,688.2230717909406,"[75, 0, 179]",179,a,0.7999721157248132,colour,0.06
148,24,1,1,9,14,414,688.7434863843373,689.687080997508,"[58, 0, 196]",196,a,0.4202596545801498,colour,0.06
148,24,1,1,9,15,415,690.1965911874431,691.4950765360263,"[65, 0, 189]",189,a,0.7742299727979116,colour,0.06
148,24,1,1,9,16,416,692.0131950094947,693.4871960791643,"[50, 0, 204]",204,a,0.9506507510668598,colour,0.06
148,24,1,1,9,17,417,693.9975829694886,694.7910712049343,"[96, 0, 158]",158,l,0.2701284645590931,colour,0.06
148,24,1,1,9,18,418,695.3103511290974,696.119099700416,"[76, 0, 178]",178,a,0.2854656003182754,colour,0.06
148,24,1,1,9,19,419,696.6384572121897,697.6230850241845,"[62, 0, 192]",192,a,0.4613850132445805,colour,0.06
148,24,1,1,9,20,420,698.1385659135995,699.1750466509839,"[63, 0, 191]",191,a,0.5133226154721342,colour,0.06
148,24,1,1,9,21,421,699.6854099105694,700.7670619825949,"[56, 0, 198]",198,a,0.5584963131695986,colour,0.06
148,24,1,1,9,22,422,701.2790266184602,702.3030366284074,"[68, 0, 186]",186,a,0.5007219190010801,colour,0.06
148,24,1,1,9,23,423,702.8102806307143,703.7430460649775,"[53, 0, 201]",201,a,0.409365491126664,colour,0.06
148,24,1,1,9,24,424,704.2634169415105,705.1350209092489,"[85, 0, 169]",169,l,0.3482800368219614,colour,0.06
148,24,1,1,9,25,425,705.65411021217,706.6070377847645,"[79, 0, 175]",175,l,0.42965484160231426,colour,0.06
148,24,1,1,9,26,426,707.1227876707562,707.9670516638434,"[94, 0, 160]",160,l,0.3211740065016784,colour,0.06
148,24,1,1,9,27,427,708.4821635199478,709.279035676911,"[89, 0, 165]",165,l,0.27362108748639,colour,0.06
148,24,1,1,9,28,428,709.7946961598936,710.6710365149775,"[67, 0, 187]",187,a,0.3530266641173512,colour,0.06
148,24,1,1,9,29,429,711.1852318923338,712.1830208430765,"[72, 0, 182]",182,l,0.47447250288678333,colour,0.06
148,24,1,1,9,30,430,712.7009219137835,713.4549972312525,"[54, 0, 200]",200,a,0.23075886961305514,colour,0.06
148,24,1,1,9,31,431,713.9665239107562,714.823004600883,"[69, 0, 185]",185,a,0.3331118607893586,colour,0.06
148,24,1,1,9,32,432,715.3415748152765,716.1350327246473,"[66, 0, 188]",188,a,0.27021471678745,colour,0.06
148,24,1,1,9,33,433,716.6540026923176,717.4149860618054,"[49, 0, 205]",205,a,0.23644678795244545,colour,0.06
148,24,1,1,9,34,434,717.9208929582383,718.687031372916,"[73, 0, 181]",181,a,0.24283811444183812,colour,0.06
148,24,1,1,9,35,435,719.2021298382897,719.9510272674961,"[71, 0, 183]",183,a,0.2255927967489697,colour,0.06
148,24,1,1,9,36,436,720.4677345921518,721.2469983056653,"[80, 0, 174]",174,a,0.25588661344954744,colour,0.06
148,24,1,1,9,37,437,721.7645724845352,722.5830317132059,"[81, 0, 173]",173,l,0.29511993780033663,colour,0.06
148,24,1,1,9,38,438,723.0927203152678,723.9830181649304,"[92, 0, 162]",162,l,0.36692744499305263,colour,0.06
148,24,1,1,9,39,439,724.4989417368197,725.4710098122596,"[91, 0, 163]",163,l,0.4487059414968826,colour,0.06
148,24,1,1,9,40,440,725.9833789275144,726.783004065277,"[93, 0, 161]",161,l,0.2763697359478101,colour,0.06
148,24,1,1,9,41,441,727.2958127122256,728.1429683198221,"[9, 0, 245]",245,a,0.32375920907361433,colour,0.06
148,24,1,1,9,42,442,728.6455314670457,729.4150128432666,"[57, 0, 197]",197,a,0.24619092216016725,colour,0.06
148,24,1,1,9,43,443,729.9162538507953,730.7029939355562,"[99, 0, 155]",155,l,0.2633220247225836,colour,0.06
148,24,1,1,9,44,444,731.2131145861931,732.0070214795414,"[55, 0, 199]",199,a,0.2705266425036825,colour,0.06
148,24,1,1,9,45,445,732.525636986189,733.3429702103022,"[60, 0, 194]",194,a,0.29398448090068996,colour,0.06
148,24,1,1,9,46,446,733.8537296785507,734.6310466132127,"[82, 0, 172]",172,l,0.25401663448428735,colour,0.06
148,24,1,1,9,47,447,735.1506136508542,735.9109901041957,"[39, 0, 215]",215,a,0.23539403855102137,colour,0.06
148,24,1,1,9,48,448,736.4178197809379,737.1910190597409,"[64, 0, 190]",190,a,0.250087630643975,colour,0.06
148,24,1,1,9,49,449,737.6990976209054,738.4550389788928,"[86, 0, 168]",168,l,0.23271431308239698,colour,0.06
148,24,1,1,9,50,450,738.9647023748257,739.7189880058286,"[78, 0, 176]",176,l,0.2310495277051814,colour,0.06
148,24,1,1,10,1,451,744.9170435112901,745.8709765716922,"[87, 0, 167]",167,l,0.4298714566975832,colour,0.06
148,24,1,1,10,2,452,746.3865756148007,747.1190355035942,"[70, 0, 184]",184,a,0.20976571697974578,colour,0.06
148,24,1,1,10,3,453,747.6365525748115,748.4309257813729,"[76, 0, 178]",178,a,0.270726322196424,colour,0.06
148,24,1,1,10,4,454,748.9490659163566,749.582961608714,"[95, 0, 159]",159,l,0.1105264691868797,colour,0.06
148,24,1,1,10,5,455,750.0788124451647,750.8469638047973,"[99, 0, 155]",155,l,0.24481443176046014,colour,0.06
148,24,1,1,10,6,456,751.3600623221137,752.1189520083135,"[98, 0, 156]",156,l,0.23560671519953758,colour,0.06
148,24,1,1,10,7,457,752.6256509282975,753.3589894866454,"[59, 0, 195]",195,a,0.2099795751273632,colour,0.06
148,24,1,1,10,8,458,753.8756337960367,754.6389314022963,"[51, 0, 203]",203,a,0.2399476815480739,colour,0.06
148,24,1,1,10,9,459,755.1568651621928,755.8709525471204,"[55, 0, 199]",199,a,0.1907020140788518,colour,0.06
148,24,1,1,10,10,460,756.391276949842,757.1589631777606,"[73, 0, 181]",181,a,0.24433118320303038,colour,0.06
148,24,1,1,10,11,461,757.6725083160563,758.5109390618163,"[93, 0, 161]",161,l,0.3151686486089602,colour,0.06
148,24,1,1,10,12,462,759.0190526752849,759.7989512679051,"[61, 0, 193]",193,a,0.2574170974548906,colour,0.06
148,24,1,1,10,13,463,760.3150946056121,761.2549394147354,"[74, 0, 180]",180,l,0.4164787366753444,colour,0.06
148,24,1,1,10,14,464,761.7681915318244,762.8789487945614,"[57, 0, 197]",197,l,0.5874620825052261,colour,0.06
148,24,1,1,10,15,465,763.3932205779711,764.2389634613646,"[78, 0, 176]",176,l,0.32237720483681187,colour,0.06
148,24,1,1,10,16,466,764.7433800460421,765.5509774066159,"[63, 0, 191]",191,a,0.2841883589862846,colour,0.06
148,24,1,1,10,17,467,766.0726215860341,766.8389179328224,"[58, 0, 196]",196,a,0.24303661269368604,colour,0.06
148,24,1,1,10,18,468,767.3538643737556,768.118959885207,"[13, 0, 241]",241,a,0.2417601590277627,colour,0.06
148,24,1,1,10,19,469,768.6351993213175,769.4229244139278,"[81, 0, 173]",173,l,0.26451970922062173,colour,0.06
148,24,1,1,10,20,470,769.9319671091507,770.8149500642903,"[60, 0, 194]",194,a,0.36025648802751675,colour,0.06
148,24,1,1,10,21,471,771.322663924424,772.1349602570408,"[52, 0, 202]",202,a,0.28918547212379053,colour,0.06
148,24,1,1,10,22,472,772.6507215645397,773.406948460557,"[69, 0, 185]",185,a,0.23289666359778494,colour,0.06
148,24,1,1,10,23,473,773.9163613706478,774.7109480415238,"[72, 0, 182]",182,a,0.2713080321555026,colour,0.06
148,24,1,1,10,24,474,775.2288845583098,776.0228926699492,"[80, 0, 174]",174,l,0.27071686991257593,colour,0.06
148,24,1,1,10,25,475,776.5413463060977,777.3989112531999,"[86, 0, 168]",168,l,0.33414058556081727,colour,0.06
148,24,1,1,10,26,476,777.9163298630156,778.5109079480171,"[67, 0, 187]",187,a,0.0712214648956433,colour,0.06
148,24,1,1,10,27,477,779.0256905491697,779.69493152207,"[97, 0, 157]",157,l,0.14588907890720293,colour,0.06
148,24,1,1,10,28,478,780.2131957184174,780.9349524588906,"[71, 0, 183]",183,a,0.19869156612548977,colour,0.06
148,24,1,1,10,29,479,781.4476421644795,782.15894978703,"[56, 0, 198]",198,a,0.1880656115245074,colour,0.06
148,24,1,1,10,30,480,782.6663304537651,783.4150258402224,"[84, 0, 170]",170,l,0.22540060011669993,colour,0.06
148,24,1,1,10,31,481,783.931963564537,784.6869124315563,"[90, 0, 164]",164,l,0.23239884269423783,colour,0.06
148,24,1,1,10,32,482,785.1974986077403,785.9509351075976,"[94, 0, 160]",160,l,0.230099965876434,colour,0.06
148,24,1,1,10,33,483,786.4630911524291,787.166905468388,"[50, 0, 204]",204,a,0.18036829290213063,colour,0.06
148,24,1,1,10,34,484,787.681855453935,788.4069799681893,"[83, 0, 171]",171,l,0.2018092479556799,colour,0.06
148,24,1,1,10,35,485,788.9162747246446,789.646935526689,"[79, 0, 175]",175,l,0.2073254496208392,colour,0.06
148,24,1,1,10,36,486,790.1662138754618,790.7429243666702,"[66, 0, 188]",188,a,0.05334363109432161,colour,0.06
148,24,1,1,10,37,487,791.2599613401107,791.9109440242755,"[54, 0, 200]",200,a,0.1259919986478053,colour,0.06
148,24,1,1,10,38,488,792.417870193196,793.0389217924676,"[64, 0, 190]",190,a,0.09771545912371948,colour,0.06
148,24,1,1,10,39,489,793.558417937893,794.1029634518782,"[42, 0, 212]",212,a,0.021252696809824556,colour,0.06
148,24,1,1,10,40,490,794.620933445578,795.2309026232106,"[89, 0, 165]",165,l,0.08659680368145928,colour,0.06
148,24,1,1,10,41,491,795.7458900241181,796.3348849537433,"[82, 0, 172]",172,l,0.06555914657656103,colour,0.06
148,24,1,1,10,42,492,796.8553247532691,799.2469679795322,"[53, 0, 201]",201,a,1.8684394182637334,colour,0.06
148,24,1,1,10,43,493,799.7631180126918,800.4948973362334,"[91, 0, 163]",163,l,0.20835811278084293,colour,0.06
148,24,1,1,10,44,494,801.0131729541463,801.7509217956103,"[88, 0, 166]",166,l,0.21439852291950956,colour,0.06
148,24,1,1,10,45,495,802.2631321910885,802.9588852751185,"[62, 0, 192]",192,a,0.17228776251431555,colour,0.06
148,24,1,1,10,46,496,803.4662497941754,804.134896060219,"[17, 0, 237]",237,a,0.14526443980867043,colour,0.06
148,24,1,1,10,47,497,804.6537234557909,805.3508995039738,"[96, 0, 158]",158,l,0.17381233884952962,colour,0.06
148,24,1,1,10,48,498,805.8724779111799,806.5508549206425,"[85, 0, 169]",169,l,0.15514287538826466,colour,0.06
148,24,1,1,10,49,499,807.0599551173509,807.6229066121159,"[75, 0, 179]",179,a,0.03956139780348167,colour,0.06
148,24,1,1,10,50,500,808.1380850280984,808.806917189213,"[92, 0, 162]",162,l,0.1450608215527609,colour,0.06
148,24,1,1,11,1,501,814.2466296661878,815.2709157619392,"[67, 0, 187]",187,l,0.5001764428452589,colour,0.06
148,24,1,1,11,2,502,815.7787347788108,817.4148856311804,"[62, 0, 192]",192,a,1.1129175059031695,colour,0.06
148,24,1,1,11,3,503,817.9349260712042,818.6708770075347,"[86, 0, 168]",168,l,0.21300391561817378,colour,0.06
148,24,1,1,11,4,504,819.184946748137,821.414859637327,"[79, 0, 175]",175,a,1.7069111239979975,colour,0.06
148,24,1,1,11,5,505,821.9210902749328,822.8868390975404,"[53, 0, 201]",201,a,0.4424508854863234,colour,0.06
148,24,1,1,11,6,506,823.4054494841839,824.310984826705,"[78, 0, 176]",176,l,0.3823299591313116,colour,0.06
148,24,1,1,11,7,507,824.8273270564969,825.5189081339049,"[50, 0, 204]",204,a,0.1683221310377121,colour,0.06
148,24,1,1,11,8,508,826.0304478103062,826.606884578825,"[98, 0, 156]",156,l,0.05173555947840214,colour,0.06
148,24,1,1,11,9,509,827.1255989407073,827.9989338599262,"[54, 0, 200]",200,a,0.35002319753402844,colour,0.06
148,24,1,1,11,10,510,828.5162488883361,829.2468588842894,"[55, 0, 199]",199,a,0.20724077278282493,colour,0.06
148,24,1,1,11,11,511,829.7662408145261,830.4228590355488,"[95, 0, 159]",159,l,0.13333643157966435,colour,0.06
148,24,1,1,11,12,512,830.9380973160733,831.6868612316321,"[92, 0, 162]",162,l,0.22595552849816158,colour,0.06
148,24,1,1,11,13,513,832.2036957684322,832.9588762166677,"[75, 0, 179]",179,a,0.23188093572389334,colour,0.06
148,24,1,1,11,14,514,833.469338725321,834.5589055187884,"[72, 0, 182]",182,a,0.5661648811073974,colour,0.06
148,24,1,1,11,15,515,835.0787202853244,835.8148472706089,"[68, 0, 186]",186,a,0.2127869066898711,colour,0.06
148,24,1,1,11,16,516,836.3286870053853,837.0868882494397,"[61, 0, 193]",193,a,0.23493205767590553,colour,0.06
148,24,1,1,11,17,517,837.5942622208386,838.2868342138245,"[63, 0, 191]",191,a,0.16914763144450262,colour,0.06
148,24,1,1,11,18,518,838.79740857461,839.5508911544457,"[99, 0, 155]",155,l,0.23014368274016306,colour,0.06
148,24,1,1,11,19,519,840.0630684669013,841.0310015572468,"[51, 0, 203]",203,a,0.44461743015563115,colour,0.06
148,24,1,1,11,20,520,841.5474064084701,842.3268583801691,"[90, 0, 164]",164,l,0.256068570073694,colour,0.06
148,24,1,1,11,21,521,842.8442947130534,843.638874688535,"[60, 0, 194]",194,a,0.28362594748614356,colour,0.06
148,24,1,1,11,22,522,844.1600045055966,845.1188669377007,"[58, 0, 196]",196,a,0.43548139359336346,colour,0.06
148,24,1,1,11,23,523,845.6288347762311,846.5268665722106,"[71, 0, 183]",183,a,0.37478387722512707,colour,0.06
148,24,1,1,11,24,524,847.0349829425104,847.7668788444134,"[52, 0, 202]",202,a,0.20852904178900644,colour,0.06
148,24,1,1,11,25,525,848.2870925765601,849.0228339869645,"[88, 0, 166]",166,l,0.21248049481073394,colour,0.06
148,24,1,1,11,26,526,849.5376370681333,850.2868657214567,"[57, 0, 197]",197,a,0.22591614397242665,colour,0.06
148,24,1,1,11,27,527,850.8032969603664,851.5588326573488,"[21, 0, 233]",233,a,0.23232204280793667,colour,0.06
148,24,1,1,11,28,528,852.0689265265246,852.6948685067473,"[59, 0, 195]",195,a,0.10259481240063906,colour,0.06
148,24,1,1,11,29,529,853.2115612591151,853.9348461205955,"[76, 0, 178]",178,l,0.20000425353646278,colour,0.06
148,24,1,1,11,30,530,854.4475232231198,855.2548389841104,"[73, 0, 181]",181,l,0.28475825366331264,colour,0.06
148,24,1,1,11,31,531,855.7780427921098,856.5108689573244,"[96, 0, 158]",158,l,0.20950026507489383,colour,0.06
148,24,1,1,11,32,532,857.0279945459915,857.7908022083575,"[84, 0, 170]",170,l,0.23944237764226273,colour,0.06
148,24,1,1,11,33,533,858.3091975552961,859.0548347305739,"[85, 0, 169]",169,l,0.22231757664121687,colour,0.06
148,24,1,1,11,34,534,859.5748613860342,860.3269229708822,"[91, 0, 163]",163,l,0.22879436769289896,colour,0.06
148,24,1,1,11,35,535,860.8404192722519,861.5268271876266,"[80, 0, 174]",174,l,0.16311627975665033,colour,0.06
148,24,1,1,11,36,536,862.043532936892,862.6708128106548,"[56, 0, 198]",198,a,0.10391616442939267,colour,0.06
148,24,1,1,11,37,537,863.1841574815335,863.7268271088251,"[46, 0, 208]",208,a,0.01928504416719079,colour,0.06
148,24,1,1,11,38,538,864.2466832291684,865.5188053402235,"[66, 0, 188]",188,a,0.7489151522750035,colour,0.06
148,24,1,1,11,39,539,866.0279910013778,866.7988323265454,"[70, 0, 184]",184,a,0.24752212036401033,colour,0.06
148,24,1,1,11,40,540,867.3111136141815,868.030817631341,"[64, 0, 190]",190,a,0.19633715704549104,colour,0.06
148,24,1,1,11,41,541,868.5455029526493,869.2548488302273,"[97, 0, 157]",157,l,0.18634135543834418,colour,0.06
148,24,1,1,11,42,542,869.7661817377084,870.4307993568946,"[93, 0, 161]",161,l,0.14126808830769733,colour,0.06
148,24,1,1,11,43,543,870.9380630514934,871.8068203032017,"[42, 0, 212]",212,a,0.3461938366526738,colour,0.06
148,24,1,1,11,44,544,872.3130245531211,873.0148082011146,"[69, 0, 185]",185,a,0.17832187109161168,colour,0.06
148,24,1,1,11,45,545,873.5317829469568,875.118824008503,"[89, 0, 165]",165,l,1.063743518316187,colour,0.06
148,24,1,1,11,46,546,875.6254705470055,876.3747980556218,"[83, 0, 171]",171,l,0.2262446111999452,colour,0.06
148,24,1,1,11,47,547,876.8911142916186,877.6308063673787,"[87, 0, 167]",167,l,0.21630316029768437,colour,0.06
148,24,1,1,11,48,548,878.1412239776109,878.7987752188928,"[77, 0, 177]",177,l,0.13426669489126652,colour,0.06
148,24,1,1,11,49,549,879.3129934393219,880.0948360538459,"[74, 0, 180]",180,a,0.2584237668197602,colour,0.06
148,24,1,1,11,50,550,880.6099069500342,881.3507919841213,"[65, 0, 189]",189,a,0.21753392781829461,colour,0.06
148,24,1,1,12,1,551,890.937188714277,891.9347697145422,"[50, 0, 204]",204,a,0.47405148192774504,colour,0.06
148,24,1,1,12,2,552,892.4536081377883,893.1827687819023,"[94, 0, 160]",160,l,0.2061450943001546,colour,0.06
148,24,1,1,12,3,553,893.7035973070306,894.3507963164011,"[81, 0, 173]",173,l,0.12381521391216666,colour,0.06
148,24,1,1,12,4,554,894.8598488577991,897.022745765571,"[73, 0, 181]",181,a,1.6396190567757003,colour,0.06
148,24,1,1,12,5,555,897.5317018147325,898.8867835652782,"[97, 0, 157]",157,l,0.8316479366621934,colour,0.06
148,24,1,1,12,6,556,899.4067346024094,900.1587847657502,"[90, 0, 164]",164,l,0.2289940474438481,colour,0.06
148,24,1,1,12,7,557,900.6723204517039,901.3747897848953,"[66, 0, 188]",188,a,0.17919108836213127,colour,0.06
148,24,1,1,12,8,558,901.8910686055315,902.5587704297504,"[75, 0, 179]",179,a,0.14437080407515168,colour,0.06
148,24,1,1,12,9,559,903.0785052456195,904.3187739113346,"[52, 0, 202]",202,a,0.7168131903745234,colour,0.06
148,24,1,1,12,10,560,904.8285381317255,905.5347616013023,"[57, 0, 197]",197,a,0.1828644864144735,colour,0.06
148,24,1,1,12,11,561,906.0473189747427,906.6310678808368,"[96, 0, 158]",158,l,0.06053761497605592,colour,0.06
148,24,1,1,12,12,562,907.1411979838158,907.8707193905138,"[61, 0, 193]",193,a,0.20616636198246852,colour,0.06
148,24,1,1,12,13,563,908.3775467041414,909.0547717152513,"[63, 0, 191]",191,a,0.15363011439330876,colour,0.06
148,24,1,1,12,14,564,909.5652137439465,910.182767600345,"[70, 0, 184]",184,a,0.0941452487022616,colour,0.06
148,24,1,1,12,15,565,910.6787787320209,911.3107170116855,"[83, 0, 171]",171,l,0.10853833652799949,colour,0.06
148,24,1,1,12,16,566,911.8194048519945,912.4787599061965,"[72, 0, 182]",182,a,0.13596141256857663,colour,0.06
148,24,1,1,12,17,567,912.9924515549792,913.5267306954484,"[87, 0, 167]",167,l,0.010916612634900957,colour,0.06
148,24,1,1,12,18,568,914.0393349365331,914.6227384400554,"[80, 0, 174]",174,l,0.060233172378502786,colour,0.06
148,24,1,1,12,19,569,915.1330205674167,915.7267778781243,"[93, 0, 161]",161,l,0.07046646281378344,colour,0.06
148,24,1,1,12,20,570,916.2443248816417,916.9107427691924,"[76, 0, 178]",178,a,0.14369614655151963,colour,0.06
148,24,1,1,12,21,571,917.4318564385176,918.0387630726909,"[99, 0, 155]",155,l,0.0835346540552564,colour,0.06
148,24,1,1,12,22,572,918.556750001735,919.0948730753735,"[78, 0, 176]",176,a,0.014823561126831919,colour,0.06
148,24,1,1,12,23,573,919.6036455925205,920.3747476434219,"[86, 0, 168]",168,a,0.24783010763349012,colour,0.06
148,24,1,1,12,24,574,920.8849450939451,921.5667410772294,"[91, 0, 163]",163,a,0.15849371382500976,colour,0.06
148,24,1,1,12,25,575,922.0881461923127,924.3267295926926,"[74, 0, 180]",180,a,1.7153977092239074,colour,0.06
148,24,1,1,12,26,576,924.8381479646196,925.4547302038991,"[51, 0, 203]",203,a,0.09337567433249205,colour,0.06
148,24,1,1,12,27,577,925.9631021801033,926.7026930375141,"[92, 0, 162]",162,l,0.21624487114604563,colour,0.06
148,24,1,1,12,28,578,927.2130708693294,927.7827563363826,"[95, 0, 159]",159,l,0.04638556070858613,colour,0.06
148,24,1,1,12,29,579,928.2911594263278,928.9987444201834,"[82, 0, 172]",172,a,0.18426697060931474,colour,0.06
148,24,1,1,12,30,580,929.5098733156337,930.1507262906525,"[71, 0, 183]",183,a,0.11743530887179077,colour,0.06
148,24,1,1,12,31,581,930.6661429832457,931.3106937747798,"[68, 0, 186]",186,a,0.12118826369987801,colour,0.06
148,24,1,1,12,32,582,931.8224016232416,932.5667355633923,"[79, 0, 175]",175,a,0.22112264903262258,colour,0.06
148,24,1,1,12,33,583,933.088026463287,933.7828260470415,"[84, 0, 170]",170,l,0.17137325298972428,colour,0.06
148,24,1,1,12,34,584,934.2911767555051,935.0067623291397,"[67, 0, 187]",187,a,0.19232820259639993,colour,0.06
148,24,1,1,12,35,585,935.5263045544853,936.2466745645506,"[59, 0, 195]",195,a,0.19713508820859715,colour,0.06
148,24,1,1,12,36,586,936.7605304470053,937.782759093272,"[41, 0, 213]",213,a,0.4988121616188437,colour,0.06
148,24,1,1,12,37,587,938.2918049392756,938.8947360958555,"[2, 0, 252]",252,a,0.07956429646583274,colour,0.06
148,24,1,1,12,38,588,939.3912600144977,940.0466931540868,"[85, 0, 169]",169,l,0.13203280261950567,colour,0.06
148,24,1,1,12,39,589,940.5632161590038,941.3187534313765,"[60, 0, 194]",194,a,0.23229407978942618,colour,0.06
148,24,1,1,12,40,590,941.8287752267788,942.758675434161,"[69, 0, 185]",185,a,0.4068452729843557,colour,0.06
148,24,1,1,12,41,591,943.2662392391358,944.038743380399,"[28, 0, 226]",226,a,0.2499572677188553,colour,0.06
148,24,1,1,12,42,592,944.5475249559968,945.3026605058694,"[56, 0, 198]",198,a,0.23191047419095412,colour,0.06
148,24,1,1,12,43,593,945.813059211534,946.4947082903818,"[64, 0, 190]",190,a,0.15821880963630974,colour,0.06
148,24,1,1,12,44,594,947.0162311653257,947.6707612168975,"[54, 0, 200]",200,a,0.13118012686027214,colour,0.06
148,24,1,1,12,45,595,948.1880986945471,948.8146790985484,"[58, 0, 196]",196,a,0.10327655920991674,colour,0.06
148,24,1,1,12,46,596,949.3287090607337,950.2227153606946,"[55, 0, 199]",199,a,0.37084384576883167,colour,0.06
148,24,1,1,12,47,597,950.7350663590478,951.4227227649535,"[88, 0, 166]",166,l,0.1643450780538842,colour,0.06
148,24,1,1,12,48,598,951.9380768361152,952.7267357366509,"[77, 0, 177]",177,l,0.2660494055598974,colour,0.06
148,24,1,1,12,49,599,953.2349675038131,953.9266690979712,"[53, 0, 201]",201,a,0.16831740486668423,colour,0.06
148,24,1,1,12,50,600,954.4381886882475,955.158709541196,"[98, 0, 156]",156,l,0.1973903002217412,colour,0.06
148,24,1,1,13,1,601,960.8279906863463,961.558702688315,"[94, 0, 160]",160,l,0.2067122319713235,colour,0.06
148,24,1,1,13,2,602,962.0787718790816,962.910651003127,"[77, 0, 177]",177,l,0.30866980215068907,colour,0.06
148,24,1,1,13,3,603,963.4224065069575,964.1666742810048,"[83, 0, 171]",171,l,0.22110295674065128,colour,0.06
148,24,1,1,13,4,604,964.6881081468309,965.4467197780614,"[57, 0, 197]",197,a,0.23539128166157752,colour,0.06
148,24,1,1,13,5,605,965.9536420084769,966.6546426914283,"[97, 0, 157]",157,l,0.17769683810183778,colour,0.06
148,24,1,1,13,6,606,967.172366531624,967.8706914274371,"[55, 0, 199]",199,a,0.17508918629027903,colour,0.06
148,24,1,1,13,7,607,968.3911725807702,969.0226508487831,"[50, 0, 204]",204,a,0.1081700908835046,colour,0.06
148,24,1,1,13,8,608,969.531734110089,970.1107769549708,"[63, 0, 191]",191,a,0.05563384329434484,colour,0.06
148,24,1,1,13,9,609,970.6254681839491,971.3106626609806,"[86, 0, 168]",168,l,0.16185439843684435,colour,0.06
148,24,1,1,13,10,610,971.8286716453731,972.3667061037268,"[85, 0, 169]",169,l,0.014728644338902086,colour,0.06
148,24,1,1,13,11,611,972.8754585347488,973.510646434559,"[99, 0, 155]",155,l,0.11180055973818526,colour,0.06
148,24,1,1,13,12,612,974.0318274514866,974.7906832669978,"[80, 0, 174]",174,a,0.2355496076052077,colour,0.06
148,24,1,1,13,13,613,975.2973554054624,976.0626797412988,"[89, 0, 165]",165,l,0.24198819568846375,colour,0.06
148,24,1,1,13,14,614,976.5786115839146,977.1746618638281,"[45, 0, 209]",209,a,0.07278463814873248,colour,0.06
148,24,1,1,13,15,615,977.6879994454794,978.4306481201784,"[81, 0, 173]",173,l,0.21932277455925941,colour,0.06
148,24,1,1,13,16,616,978.938025636191,979.5506418501609,"[75, 0, 179]",179,a,0.08959515031892806,colour,0.06
148,24,1,1,13,17,617,980.0629944239045,980.7186685969937,"[90, 0, 164]",164,l,0.13231755298329517,colour,0.06
148,24,1,1,13,18,618,981.2348024824751,981.894663628249,"[68, 0, 186]",186,a,0.13652736868243665,colour,0.06
148,24,1,1,13,19,619,982.4066920670448,983.1187145194272,"[73, 0, 181]",181,a,0.18874696444254369,colour,0.06
148,24,1,1,13,20,620,983.6254933900782,984.2706621253747,"[87, 0, 167]",167,a,0.12180817674379796,colour,0.06
148,24,1,1,13,21,621,984.7816996485926,985.3906818491523,"[76, 0, 178]",178,a,0.08592884155223146,colour,0.06
148,24,1,1,13,22,622,985.9067609900376,986.5586589714512,"[74, 0, 180]",180,a,0.12870913953520358,colour,0.06
148,24,1,1,13,23,623,987.0785592024913,987.670668269333,"[88, 0, 166]",166,l,0.06872842216398567,colour,0.06
148,24,1,1,13,24,624,988.1879667562898,988.7826566934236,"[59, 0, 195]",195,a,0.07142941537313163,colour,0.06
148,24,1,1,13,25,625,989.2974763161037,990.0626415382721,"[60, 0, 194]",194,a,0.2419019435183145,colour,0.06
148,24,1,1,13,26,626,990.5785655039945,991.2306627712678,"[52, 0, 202]",202,a,0.12873040715930983,colour,0.06
148,24,1,1,13,27,627,991.7505098331021,992.3666143377195,"[54, 0, 200]",200,a,0.09285579819697887,colour,0.06
148,24,1,1,13,28,628,992.8754132424947,993.6066329114838,"[79, 0, 175]",175,l,0.20791936881141737,colour,0.06
148,24,1,1,13,29,629,994.1254209224717,994.8066458295798,"[78, 0, 176]",176,l,0.15784662548685446,colour,0.06
148,24,1,1,13,30,630,995.3129146702122,996.0546736476826,"[84, 0, 170]",170,l,0.2183480067178607,colour,0.06
148,24,1,1,13,31,631,996.5631562944618,997.1826348743634,"[29, 0, 225]",225,a,0.09613377513596788,colour,0.06
148,24,1,1,13,32,632,997.7037304268451,998.5665965358494,"[66, 0, 188]",188,a,0.3396256733685732,colour,0.06
148,24,1,1,13,33,633,999.0788778235437,1000.1909588013659,"[72, 0, 182]",182,a,0.5889220681856386,colour,0.06
148,24,1,1,13,34,634,1000.7037489375798,1001.3905971723143,"[65, 0, 189]",189,a,0.1622171302442439,colour,0.06
148,24,1,1,13,35,635,1001.908265874139,1002.5346005184692,"[62, 0, 192]",192,a,0.10302607336780056,colour,0.06
148,24,1,1,13,36,636,1003.0489636740531,1003.7506374390796,"[82, 0, 172]",172,l,0.17848531703930348,colour,0.06
148,24,1,1,13,37,637,1004.2676291203243,1004.8786081181024,"[61, 0, 193]",193,a,0.08760465466184542,colour,0.06
148,24,1,1,13,38,638,1005.3926530464087,1005.9506865910371,"[70, 0, 184]",184,a,0.03461312153376639,colour,0.06
148,24,1,1,13,39,639,1006.470775867987,1007.126659566944,"[58, 0, 196]",196,a,0.13257158343913034,colour,0.06
148,24,1,1,13,40,640,1007.6426650587237,1008.4545620318386,"[53, 0, 201]",201,a,0.2870854873326607,colour,0.06
148,24,1,1,13,41,641,1008.972514696361,1009.7185996740591,"[71, 0, 183]",183,a,0.2227441114373505,colour,0.06
148,24,1,1,13,42,642,1010.2381966439425,1010.8626085339929,"[98, 0, 156]",156,l,0.1014144571381621,colour,0.06
148,24,1,1,13,43,643,1011.3787148502306,1012.0866074375226,"[95, 0, 159]",159,l,0.18455408402951434,colour,0.06
148,24,1,1,13,44,644,1012.5975673731882,1013.4626417745603,"[8, 0, 246]",246,a,0.35133942955872044,colour,0.06
148,24,1,1,13,45,645,1013.9786133955931,1014.6865693920408,"[64, 0, 190]",190,a,0.1847147730877623,colour,0.06
148,24,1,1,13,46,646,1015.1992614606861,1015.8386516931932,"[91, 0, 163]",163,l,0.11385840305592865,colour,0.06
148,24,1,1,13,47,647,1016.3575952732353,1016.942650171346,"[51, 0, 203]",203,a,0.06163447501603514,colour,0.06
148,24,1,1,13,48,648,1017.4514061469818,1018.1107115765917,"[56, 0, 198]",198,a,0.1360271847806871,colour,0.06
148,24,1,1,13,49,649,1018.6233008515555,1019.7986109852791,"[93, 0, 161]",161,l,0.6522981285233982,colour,0.06
148,24,1,1,13,50,650,1020.3107331593637,1020.9986408387776,"[96, 0, 158]",158,l,0.1645648439298384,colour,0.06
148,24,1,1,14,1,651,1028.3566535883583,1028.9826589777367,"[96, 0, 158]",158,l,0.10172559518832713,colour,0.06
148,24,1,1,14,2,652,1029.4982588085695,1030.1506156200776,"[83, 0, 171]",171,l,0.1296472797403112,colour,0.06
148,24,1,1,14,3,653,1030.6700582024641,1031.6225478187553,"[74, 0, 180]",180,a,0.42906367930117995,colour,0.06
148,24,1,1,14,4,654,1032.1396572598023,1032.8626018385985,"[99, 0, 155]",155,l,0.20056705886963755,colour,0.06
148,24,1,1,14,5,655,1033.3730915226042,1033.990671372856,"[98, 0, 156]",156,l,0.0944989220588468,colour,0.06
148,24,1,1,14,6,656,1034.4979874489363,1035.0786257623695,"[62, 0, 192]",192,a,0.057642849744297564,colour,0.06
148,24,1,1,14,7,657,1035.5919074179255,1036.2145757534308,"[75, 0, 179]",179,a,0.09920025710016489,colour,0.06
148,24,1,1,14,8,658,1036.7325768609298,1037.3745908928686,"[87, 0, 167]",167,a,0.12895214225864038,colour,0.06
148,24,1,1,14,9,659,1037.8942197642755,1038.582626052259,"[67, 0, 187]",187,a,0.16499059105990455,colour,0.06
148,24,1,1,14,10,660,1039.0974433118245,1039.734602802724,"[70, 0, 184]",184,a,0.11392890138085932,colour,0.06
148,24,1,1,14,11,661,1040.2535585919977,1040.9426159067662,"[88, 0, 166]",166,a,0.1656699746963568,colour,0.06
148,24,1,1,14,12,662,1041.4566998258233,1042.214561181143,"[85, 0, 169]",169,a,0.23455278435721993,colour,0.06
148,24,1,1,14,13,663,1042.722357355,1043.4145878838608,"[79, 0, 175]",175,a,0.1690515330992639,colour,0.06
148,24,1,1,14,14,664,1043.9257345023798,1044.5425999166328,"[51, 0, 203]",203,a,0.0944520544144325,colour,0.06
148,24,1,1,14,15,665,1045.050416964339,1045.8065753312549,"[59, 0, 195]",195,a,0.2327733899001032,colour,0.06
148,24,1,1,14,16,666,1046.3161036380916,1047.0306537915603,"[82, 0, 172]",172,l,0.19131326244678348,colour,0.06
148,24,1,1,14,17,667,1047.5504504411947,1048.150588050892,"[68, 0, 186]",186,a,0.07684676180360839,colour,0.06
148,24,1,1,14,18,668,1048.6598552381038,1049.3665150885936,"[60, 0, 194]",194,a,0.18335206725168973,colour,0.06
148,24,1,1,14,19,669,1049.8784706659499,1050.502604894864,"[92, 0, 162]",162,l,0.10077682108385488,colour,0.06
148,24,1,1,14,20,670,1051.0191952473833,1051.6945274364552,"[69, 0, 185]",185,a,0.15201889199670404,colour,0.06
148,24,1,1,14,21,671,1052.2067185334745,1052.8305479258997,"[76, 0, 178]",178,a,0.10063739976612851,colour,0.06
148,24,1,1,14,22,672,1053.347353711957,1054.0225842888467,"[93, 0, 161]",161,l,0.15195745206438005,colour,0.06
148,24,1,1,14,23,673,1054.5348636073177,1055.1825356252957,"[56, 0, 198]",198,a,0.1244079516036436,colour,0.06
148,24,1,1,14,24,674,1055.6910462350934,1056.41452841321,"[58, 0, 196]",196,a,0.20014643180184066,colour,0.06
148,24,1,1,14,25,675,1056.925484804262,1057.5185481590452,"[91, 0, 163]",163,l,0.07060273346723989,colour,0.06
148,24,1,1,14,26,676,1058.0348033489427,1058.6545591961476,"[64, 0, 190]",190,a,0.09654691920150071,colour,0.06
148,24,1,1,14,27,677,1059.175433407363,1059.8225642815232,"[86, 0, 168]",168,a,0.12379197706468403,colour,0.06
148,24,1,1,14,28,678,1060.331581376784,1061.0146230936516,"[84, 0, 170]",170,a,0.15958466613665223,colour,0.06
148,24,1,1,14,29,679,1061.5347552997991,1062.1505955339526,"[57, 0, 197]",197,a,0.09245446947170421,colour,0.06
148,24,1,1,14,30,680,1062.6597997058416,1063.2945449231775,"[55, 0, 199]",199,a,0.11149926780490205,colour,0.06
148,24,1,1,14,31,681,1063.8160272320383,1064.4705277452013,"[94, 0, 160]",160,l,0.13112262537470087,colour,0.06
148,24,1,1,14,32,682,1064.9879491119646,1065.5585640546633,"[53, 0, 201]",201,a,0.04736505472101271,colour,0.06
148,24,1,1,14,33,683,1066.0660483028041,1066.7505563069135,"[52, 0, 202]",202,a,0.1611427193856798,colour,0.06
148,24,1,1,14,34,684,1067.26912691514,1067.9665436030482,"[73, 0, 181]",181,a,0.17409630154725164,colour,0.06
148,24,1,1,14,35,685,1068.4878786136396,1069.2545853474876,"[66, 0, 188]",188,a,0.2434584213187918,colour,0.06
148,24,1,1,14,36,686,1069.769106435182,1070.4065140488674,"[42, 0, 212]",212,a,0.11405690124956891,colour,0.06
148,24,1,1,14,37,687,1070.9253690136247,1071.694671583944,"[63, 0, 191]",191,a,0.24668362300144508,colour,0.06
148,24,1,1,14,38,688,1072.20650506916,1073.278495714534,"[89, 0, 165]",165,l,0.548695465142373,colour,0.06
148,24,1,1,14,39,689,1073.7847255644156,1074.5265948186861,"[95, 0, 159]",159,l,0.21850318188080564,colour,0.06
148,24,1,1,14,40,690,1075.0347273367224,1075.718509877217,"[50, 0, 204]",204,a,0.1581676096539013,colour,0.06
148,24,1,1,14,41,691,1076.2401843827683,1076.9664861015626,"[77, 0, 177]",177,l,0.20304080320056528,colour,0.06
148,24,1,1,14,42,692,1077.4745374873746,1078.262522518111,"[71, 0, 183]",183,a,0.26458233065204695,colour,0.06
148,24,1,1,14,43,693,1078.7720854833606,1079.4464937106823,"[72, 0, 182]",182,a,0.1512461669044569,colour,0.06
148,24,1,1,14,44,694,1079.959604043339,1080.5905273829121,"[54, 0, 200]",200,a,0.10761910089058802,colour,0.06
148,24,1,1,14,45,695,1081.1002002310706,1081.7665176879964,"[33, 0, 221]",221,a,0.1430340920924209,colour,0.06
148,24,1,1,14,46,696,1082.2876608957886,1082.926483202842,"[65, 0, 189]",189,a,0.11551728076301515,colour,0.06
148,24,1,1,14,47,697,1083.4438982681022,1084.0865160653484,"[81, 0, 173]",173,a,0.11932931240880862,colour,0.06
148,24,1,1,14,48,698,1084.6001305204118,1085.1425122466171,"[10, 0, 244]",244,a,0.019058189122006297,colour,0.06
148,24,1,1,14,49,699,1085.662622791191,1086.3345234034932,"[90, 0, 164]",164,l,0.1488960901624523,colour,0.06
148,24,1,1,14,50,700,1086.850153560401,1087.5744970788364,"[80, 0, 174]",174,l,0.2002389855333604,colour,0.06
148,24,1,1,15,1,701,1093.2160739421379,1096.1985934985569,"[51, 0, 203]",203,a,2.4583929681102745,colour,0.06
148,24,1,1,15,2,702,1096.716906137939,1097.4465232490911,"[74, 0, 180]",180,l,0.2063845524098724,colour,0.06
148,24,1,1,15,3,703,1097.9668177195708,1098.6704796173144,"[76, 0, 178]",178,l,0.18034426833037287,colour,0.06
148,24,1,1,15,4,704,1099.185568236513,1099.91855233378,"[88, 0, 166]",166,l,0.20959400030551478,colour,0.06
148,24,1,1,15,5,705,1100.4231264567352,1101.1745271686232,"[94, 0, 160]",160,l,0.22825991921126842,colour,0.06
148,24,1,1,15,6,706,1101.6887449952192,1102.4864812493906,"[70, 0, 184]",184,a,0.2745277200592682,colour,0.06
148,24,1,1,15,7,707,1103.0012764536077,1103.6944900210947,"[68, 0, 186]",186,a,0.16986364277545363,colour,0.06
148,24,1,1,15,8,708,1104.2043743644026,1104.9185157061438,"[86, 0, 168]",168,l,0.19072958320612088,colour,0.06
148,24,1,1,15,9,709,1105.438801905897,1106.1104807830998,"[49, 0, 205]",205,a,0.14857471216237172,colour,0.06
148,24,1,1,15,10,710,1106.6281644509872,1107.2385058127693,"[67, 0, 187]",187,a,0.08699537545908242,colour,0.06
148,24,1,1,15,11,711,1107.7531879832968,1108.4064659996657,"[48, 0, 206]",206,a,0.12993636238388717,colour,0.06
148,24,1,1,15,12,712,1108.9250539371278,1109.5584742578212,"[58, 0, 196]",196,a,0.11041382933035493,colour,0.06
148,24,1,1,15,13,713,1110.0657485862612,1110.7024732716382,"[98, 0, 156]",156,l,0.11355553573230281,colour,0.06
148,24,1,1,15,14,714,1111.2218532326515,1111.97448471206,"[57, 0, 197]",197,a,0.22938552993582562,colour,0.06
148,24,1,1,15,15,715,1112.487495401816,1113.1425894403365,"[69, 0, 185]",185,a,0.13124708057148382,colour,0.06
148,24,1,1,15,16,716,1113.6597851335537,1114.3104554981692,"[92, 0, 162]",162,l,0.1272231600014493,colour,0.06
148,24,1,1,15,17,717,1114.8318066564389,1115.5024985565688,"[95, 0, 159]",159,l,0.14740617224015296,colour,0.06
148,24,1,1,15,18,718,1116.0192681088229,1116.566528794414,"[53, 0, 201]",201,a,0.0238883116398938,colour,0.06
148,24,1,1,15,19,719,1117.0817528965417,1117.7587833479047,"[91, 0, 163]",163,l,0.15365059435134754,colour,0.06
148,24,1,1,15,20,720,1118.2699532032711,1119.030422210344,"[81, 0, 173]",173,a,0.2371234146412462,colour,0.06
148,24,1,1,15,21,721,1119.5512247416773,1120.4224805498961,"[73, 0, 181]",181,a,0.3479499942041002,colour,0.06
148,24,1,1,15,22,722,1120.9418018279248,1121.7504846270313,"[66, 0, 188]",188,a,0.2852375637739897,colour,0.06
148,24,1,1,15,23,723,1122.2699669878348,1123.0304801056627,"[89, 0, 165]",165,l,0.23720533453160897,colour,0.06
148,24,1,1,15,24,724,1123.5510715357377,1124.1105150476214,"[65, 0, 189]",189,a,0.035999064217321575,colour,0.06
148,24,1,1,15,25,725,1124.629224683391,1125.3984941706876,"[56, 0, 198]",198,a,0.24727439146954566,colour,0.06
148,24,1,1,15,26,726,1125.911126374791,1126.518557217496,"[54, 0, 200]",200,a,0.08410612406441942,colour,0.06
148,24,1,1,15,27,727,1127.0361258824705,1127.646449127351,"[77, 0, 177]",177,l,0.08699183084536344,colour,0.06
148,24,1,1,15,28,728,1128.161154140893,1128.710532928235,"[63, 0, 191]",191,l,0.026073367160279304,colour,0.06
148,24,1,1,15,29,729,1129.2236019071424,1129.822454004723,"[78, 0, 176]",176,a,0.07551398820942268,colour,0.06
148,24,1,1,15,30,730,1130.3288173682522,1130.9104816495674,"[61, 0, 193]",193,a,0.05842030106578022,colour,0.06
148,24,1,1,15,31,731,1131.4225471098325,1131.9744571428746,"[64, 0, 190]",190,a,0.028591222129762173,colour,0.06
148,24,1,1,15,32,732,1132.4849838483497,1133.1664218259393,"[84, 0, 170]",170,l,0.15810262510785833,colour,0.06
148,24,1,1,15,33,733,1133.6880849099252,1134.310494095087,"[87, 0, 167]",167,l,0.09963033651001751,colour,0.06
148,24,1,1,15,34,734,1134.8287177253515,1135.4144212871906,"[82, 0, 172]",172,l,0.06235245557036251,colour,0.06
148,24,1,1,15,35,735,1135.9224982729647,1136.5984901534393,"[75, 0, 179]",179,a,0.15337805316084996,colour,0.06
148,24,1,1,15,36,736,1137.1100054114358,1137.7664416757762,"[72, 0, 182]",182,a,0.1330658596707508,colour,0.06
148,24,1,1,15,37,737,1138.2818307991838,1138.9104272988625,"[79, 0, 175]",175,a,0.10528911027358845,colour,0.06
148,24,1,1,15,38,738,1139.4243587996461,1140.0064511910896,"[97, 0, 157]",157,l,0.058663697564043105,colour,0.06
148,24,1,1,15,39,739,1140.5181507688249,1141.2544738891884,"[96, 0, 158]",158,l,0.21299800788983703,colour,0.06
148,24,1,1,15,40,740,1141.768123396556,1142.4544025243958,"[62, 0, 192]",192,a,0.16292408312438056,colour,0.06
148,24,1,1,15,41,741,1142.9712646303815,1143.6384595753043,"[99, 0, 155]",155,l,0.14387574017746374,colour,0.06
148,24,1,1,15,42,742,1144.1587197812041,1144.8144164034748,"[90, 0, 164]",164,l,0.1323912020889111,colour,0.06
148,24,1,1,15,43,743,1145.3305727381376,1145.9983978360542,"[83, 0, 171]",171,l,0.14445941935991868,colour,0.06
148,24,1,1,15,44,744,1146.5181105965748,1147.094459537475,"[31, 0, 223]",223,a,0.05299783463124186,colour,0.06
148,24,1,1,15,45,745,1147.6118407319882,1148.2784082808066,"[55, 0, 199]",199,a,0.14317942108027637,colour,0.06
148,24,1,1,15,46,746,1148.7993837103713,1149.4544348196941,"[60, 0, 194]",194,a,0.13175199064426124,colour,0.06
148,24,1,1,15,47,747,1149.971192162775,1150.5744431219646,"[85, 0, 169]",169,l,0.07979075767798349,colour,0.06
148,24,1,1,15,48,748,1151.080627679592,1151.8304671875085,"[93, 0, 161]",161,l,0.22666760138235986,colour,0.06
148,24,1,1,15,49,749,1152.346211953496,1152.9823773781536,"[52, 0, 202]",202,a,0.11275248462334275,colour,0.06
148,24,1,1,15,50,750,1153.5025068272953,1154.166469875141,"[50, 0, 204]",204,a,0.1406639291672036,colour,0.06
148,24,1,1,16,1,751,1158.9859944562195,1159.6464160443284,"[70, 0, 184]",184,a,0.13625285832677037,colour,0.06
148,24,1,1,16,2,752,1160.1611631993437,1161.230498143821,"[43, 0, 211]",211,a,0.546072059602011,colour,0.06
148,24,1,1,16,3,753,1161.739140298043,1162.3344942589174,"[37, 0, 217]",217,a,0.07210682984441519,colour,0.06
148,24,1,1,16,4,754,1162.8485120118712,1163.4704182561254,"[57, 0, 197]",197,a,0.09851693495875224,colour,0.06
148,24,1,1,16,5,755,1163.9767217551707,1164.5344378601876,"[59, 0, 195]",195,a,0.03431655577151105,colour,0.06
148,24,1,1,16,6,756,1165.0548485151376,1165.622406034323,"[50, 0, 204]",204,a,0.044245009776204824,colour,0.06
148,24,1,1,16,7,757,1166.1329398290254,1166.7823695800034,"[76, 0, 178]",178,l,0.12604319857200608,colour,0.06
148,24,1,1,16,8,758,1167.2912007801351,1167.8864137442433,"[89, 0, 165]",165,l,0.07192093471530825,colour,0.06
148,24,1,1,16,9,759,1168.400555164786,1169.070386512205,"[72, 0, 182]",182,a,0.14645857963478193,colour,0.06
148,24,1,1,16,10,760,1169.5880229186732,1170.2309128632187,"[56, 0, 198]",198,a,0.11952072137501091,colour,0.06
148,24,1,1,16,11,761,1170.7442201187368,1171.4303822744405,"[80, 0, 174]",174,l,0.1627834802493453,colour,0.06
148,24,1,1,16,12,762,1171.9474164909334,1172.5903938692063,"[68, 0, 186]",186,a,0.1196680196444504,colour,0.06
148,24,1,1,16,13,763,1173.1036424417398,1173.8303726645536,"[78, 0, 176]",176,a,0.20336887653684244,colour,0.06
148,24,1,1,16,14,764,1174.3380483217188,1174.9503723022644,"[85, 0, 169]",169,l,0.08905873261392117,colour,0.06
148,24,1,1,16,15,765,1175.463000174088,1176.0943787991419,"[63, 0, 191]",191,a,0.10797868197550997,colour,0.06
148,24,1,1,16,16,766,1176.603673555539,1177.310384605953,"[69, 0, 185]",185,a,0.18338908872101456,colour,0.06
148,24,1,1,16,17,767,1177.8224551862804,1178.8464785870165,"[61, 0, 193]",193,a,0.5009495617705397,colour,0.06
148,24,1,1,16,18,768,1179.3412022373523,1180.038337325619,"[86, 0, 168]",168,l,0.17374932358507067,colour,0.06
148,24,1,1,16,19,769,1180.5599480281235,1181.2223939826363,"[88, 0, 166]",166,l,0.13913029432296753,colour,0.06
148,24,1,1,16,20,770,1181.7318080742843,1182.4064242520253,"[66, 0, 188]",188,a,0.15131508983904496,colour,0.06
148,24,1,1,16,21,771,1182.9193124558078,1183.558713322156,"[62, 0, 192]",192,a,0.116046215465758,colour,0.06
148,24,1,1,16,22,772,1184.0768952047802,1184.774365849502,"[58, 0, 196]",196,a,0.17410811694571748,colour,0.06
148,24,1,1,16,23,773,1185.2956287863199,1186.0943468976184,"[73, 0, 181]",181,a,0.2754339587991126,colour,0.06
148,24,1,1,16,24,774,1186.6081693031592,1187.2543777909013,"[67, 0, 187]",187,a,0.1227762492490001,colour,0.06
148,24,1,1,16,25,775,1187.7643507494358,1188.4864107510075,"[84, 0, 170]",170,l,0.1987888459698297,colour,0.06
148,24,1,1,16,26,776,1188.9987605678616,1189.630426700227,"[81, 0, 173]",173,a,0.10837685986189172,colour,0.06
148,24,1,1,16,27,777,1190.1399136532564,1190.8303458830924,"[94, 0, 160]",160,l,0.16760611976496875,colour,0.06
148,24,1,1,16,28,778,1191.3371219967958,1191.8784072568524,"[90, 0, 164]",164,l,0.017931790673173964,colour,0.06
148,24,1,1,16,29,779,1192.3995197446202,1193.1423476191703,"[77, 0, 177]",177,a,0.2201199181145057,colour,0.06
148,24,1,1,16,30,780,1193.637220930832,1194.4063009783858,"[74, 0, 180]",180,a,0.24580219655763358,colour,0.06
148,24,1,1,16,31,781,1194.9185090108076,1195.5823625695193,"[54, 0, 200]",200,a,0.14044692023890093,colour,0.06
148,24,1,1,16,32,782,1196.0903072232031,1196.7666385985794,"[83, 0, 171]",171,l,0.1529881460010074,colour,0.06
148,24,1,1,16,33,783,1197.2778643800411,1197.9343309705146,"[82, 0, 172]",172,l,0.13307649351190776,colour,0.06
148,24,1,1,16,34,784,1198.4496803155052,1199.0863904285943,"[87, 0, 167]",167,l,0.11334207147592679,colour,0.06
148,24,1,1,16,35,785,1199.6059326539398,1200.2624102720874,"[60, 0, 194]",194,a,0.13328247470781207,colour,0.06
148,24,1,1,16,36,786,1200.777754103241,1201.4704036838375,"[64, 0, 190]",190,a,0.16826029727235436,colour,0.06
148,24,1,1,16,37,787,1201.9839259790606,1202.9583445250755,"[51, 0, 203]",203,a,0.45109343354124576,colour,0.06
148,24,1,1,16,38,788,1203.468286369869,1204.086329382495,"[65, 0, 189]",189,a,0.09472932171775028,colour,0.06
148,24,1,1,16,39,789,1204.5944189713919,1205.1904156882665,"[53, 0, 201]",201,a,0.07261922297766432,colour,0.06
148,24,1,1,16,40,790,1205.703750119137,1206.4223068639985,"[55, 0, 199]",199,a,0.19525447546038777,colour,0.06
148,24,1,1,16,41,791,1206.9381520606112,1207.5183547808556,"[91, 0, 163]",163,l,0.05683192168362439,colour,0.06
148,24,1,1,16,42,792,1208.0318447807222,1208.6782923326828,"[97, 0, 157]",157,l,0.1235777250258252,colour,0.06
148,24,1,1,16,43,793,1209.1881668298156,1209.8223693279433,"[93, 0, 161]",161,l,0.11092425329843536,colour,0.06
148,24,1,1,16,44,794,1210.328785466787,1210.974578841182,"[19, 0, 235]",235,a,0.1224887419375591,colour,0.06
148,24,1,1,16,45,795,1211.485005116032,1212.0863301702193,"[52, 0, 202]",202,a,0.07805153547087684,colour,0.06
148,24,1,1,16,46,796,1212.5962629565038,1213.1743668734562,"[96, 0, 158]",158,l,0.05459133395925164,colour,0.06
148,24,1,1,16,47,797,1213.6900553195155,1214.3183265027474,"[99, 0, 155]",155,l,0.10499254451133311,colour,0.06
148,24,1,1,16,48,798,1214.8306861656602,1215.9423634517589,"[92, 0, 162]",162,l,0.5967005190323107,colour,0.06
148,24,1,1,16,49,799,1216.4631435338524,1217.310323166079,"[79, 0, 175]",175,l,0.323923836578615,colour,0.06
148,24,1,1,16,50,800,1217.8225851553143,1218.526302979095,"[98, 0, 156]",156,l,0.18046517891343683,colour,0.06
