id,age,condition,counterbalance,block,trialinblock,trial,tstart,tend,trialstim,trialintensity,response,RT,trialtype,colourfreq
179,22,1,1,Practice,1,NA,5.907844752073288e-06,0.8088906919583678,"[2, 0, 252]",252,a,0.19783423794433475,colour,0.5
179,22,1,1,Practice,2,NA,1.321956551168114,2.0246563688851893,"[50, 0, 204]",204,a,0.17930139508098364,colour,0.5
179,22,1,1,Practice,3,NA,2.5441931267268956,8.84062920929864,"[55, 0, 199]",199,a,5.773477192502469,colour,0.5
179,22,1,1,Practice,4,NA,9.35666467109695,10.176630327943712,"[40, 0, 214]",214,a,0.29607650078833103,colour,0.5
179,22,1,1,Practice,5,NA,10.678838231600821,11.472654446959496,"[70, 0, 184]",184,a,0.2704725367948413,colour,0.5
179,22,1,1,Practice,6,NA,11.991575228516012,12.792655943427235,"[80, 0, 174]",174,a,0.2779587721452117,colour,0.5
179,22,1,1,Practice,7,NA,13.303820311557502,13.944756721146405,"[28, 0, 226]",226,a,0.1174328294582665,colour,0.5
179,22,1,1,Practice,8,NA,14.457785164471716,15.272728884126991,"[69, 0, 185]",185,a,0.2915484472177923,colour,0.5
179,22,1,1,Practice,9,NA,15.785916441585869,16.560598804615438,"[17, 0, 237]",237,a,0.25134656159207225,colour,0.5
179,22,1,1,Practice,10,NA,17.067266626283526,17.880667648743838,"[35, 0, 219]",219,a,0.29011248238384724,colour,0.5
179,22,1,1,1,1,1,4.758277866523713,5.808023441582918,"[5, 0, 249]",249,a,0.5255929357372224,colour,0.5
179,22,1,1,1,2,2,6.31360109616071,6.8960772883147,"[99, 0, 155]",155,l,0.05922073544934392,colour,0.5
179,22,1,1,1,3,3,7.409266421105713,8.200067347381264,"[13, 0, 241]",241,a,0.26746985083445907,colour,0.5
179,22,1,1,1,4,4,8.721727726049721,9.512085574679077,"[29, 0, 225]",225,a,0.2670070813037455,colour,0.5
179,22,1,1,1,5,5,10.020520192570984,10.832020117435604,"[27, 0, 227]",227,a,0.28821611125022173,colour,0.5
179,22,1,1,1,6,6,11.348612872418016,12.184032279532403,"[89, 0, 165]",165,l,0.31214228877797723,colour,0.5
179,22,1,1,1,7,7,12.693907587788999,13.544043464586139,"[76, 0, 178]",178,a,0.32689105393365026,colour,0.5
179,22,1,1,1,8,8,14.053189368918538,14.86406701663509,"[36, 0, 218]",218,a,0.28752884920686483,colour,0.5
179,22,1,1,1,9,9,15.382246579509228,16.26404378004372,"[2, 0, 252]",252,a,0.3593700034543872,colour,0.5
179,22,1,1,1,10,10,16.771976243238896,17.632092979270965,"[92, 0, 162]",162,l,0.3368002334609628,colour,0.5
179,22,1,1,1,11,11,18.146961473859847,19.008006900083274,"[90, 0, 164]",164,l,0.337691901717335,colour,0.5
179,22,1,1,1,12,12,19.521914015058428,20.328035966027528,"[86, 0, 168]",168,l,0.2827668506652117,colour,0.5
179,22,1,1,1,13,13,20.834441092330962,21.664119004737586,"[88, 0, 166]",166,l,0.3063704678788781,colour,0.5
179,22,1,1,1,14,14,22.179316360969096,22.944051341619343,"[17, 0, 237]",237,a,0.241413751617074,colour,0.5
179,22,1,1,1,15,15,23.462162768933922,24.296115885023028,"[30, 0, 224]",224,a,0.3106303117237985,colour,0.5
179,22,1,1,1,16,16,24.805928571615368,25.56003678496927,"[73, 0, 181]",181,a,0.24331248551607132,colour,0.5
179,22,1,1,1,17,17,26.074723716359586,26.856063661165535,"[96, 0, 158]",158,l,0.25826447596773505,colour,0.5
179,22,1,1,1,18,18,27.371548525523394,28.320259859785438,"[53, 0, 201]",201,l,0.42524162493646145,colour,0.5
179,22,1,1,1,19,19,28.84043583041057,29.63209416065365,"[21, 0, 233]",233,a,0.26844304567202926,colour,0.5
179,22,1,1,1,20,20,30.152976298239082,30.896087528206408,"[55, 0, 199]",199,a,0.21984120085835457,colour,0.5
179,22,1,1,1,21,21,31.402938882820308,32.13608303852379,"[7, 0, 247]",247,a,0.21051688445731997,colour,0.5
179,22,1,1,1,22,22,32.65286287013441,33.40008034463972,"[77, 0, 177]",177,a,0.22388521768152714,colour,0.5
179,22,1,1,1,23,23,33.918453679420054,34.65608768584207,"[74, 0, 180]",180,a,0.2141820201650262,colour,0.5
179,22,1,1,1,24,24,35.16851945174858,35.91204264573753,"[38, 0, 216]",216,a,0.22027994645759463,colour,0.5
179,22,1,1,1,25,25,36.41857852879912,37.1600608099252,"[26, 0, 228]",228,a,0.21899797581136227,colour,0.5
179,22,1,1,1,26,26,37.66847494710237,38.41606106190011,"[71, 0, 183]",183,a,0.22416996862739325,colour,0.5
179,22,1,1,1,27,27,38.93430324597284,39.68809008039534,"[31, 0, 223]",223,a,0.23054791940376163,colour,0.5
179,22,1,1,1,28,28,40.199696737807244,40.952071632724255,"[32, 0, 222]",222,a,0.22903869953006506,colour,0.5
179,22,1,1,1,29,29,41.452973935287446,42.20006183395162,"[65, 0, 189]",189,a,0.2237103497609496,colour,0.5
179,22,1,1,1,30,30,42.71863209223375,43.47226650780067,"[28, 0, 226]",226,a,0.230341543443501,colour,0.5
179,22,1,1,1,31,31,43.974878104403615,44.70413814531639,"[6, 0, 248]",248,a,0.20597701519727707,colour,0.5
179,22,1,1,1,32,32,45.22485919948667,45.952116531319916,"[47, 0, 207]",207,a,0.20392665034160018,colour,0.5
179,22,1,1,1,33,33,46.46016951138154,47.21606263704598,"[33, 0, 221]",221,a,0.23320717085152864,colour,0.5
179,22,1,1,1,34,34,47.713686561211944,48.39210810279474,"[67, 0, 187]",187,a,0.15486046019941568,colour,0.5
179,22,1,1,1,35,35,48.90114057948813,49.65612431336194,"[45, 0, 209]",209,a,0.23161721229553223,colour,0.5
179,22,1,1,1,36,36,50.16685426887125,50.77615456096828,"[64, 0, 190]",190,a,0.0866667190566659,colour,0.5
179,22,1,1,1,37,37,51.29175206553191,52.02406402351335,"[68, 0, 186]",186,a,0.209039565641433,colour,0.5
179,22,1,1,1,38,38,52.54177254578099,53.21632060687989,"[48, 0, 206]",206,a,0.1512910290621221,colour,0.5
179,22,1,1,1,39,39,53.72927737003192,54.43206777283922,"[62, 0, 192]",192,a,0.17944554286077619,colour,0.5
179,22,1,1,1,40,40,54.947991776280105,55.688073145225644,"[56, 0, 198]",198,a,0.2165529765188694,colour,0.5
179,22,1,1,1,41,41,56.197920884005725,56.944118295796216,"[44, 0, 210]",210,a,0.2227733889594674,colour,0.5
179,22,1,1,1,42,42,57.46367829013616,58.18408702407032,"[63, 0, 191]",191,a,0.19617181131616235,colour,0.5
179,22,1,1,1,43,43,58.699764479417354,59.432040597777814,"[37, 0, 217]",217,a,0.20902617508545518,colour,0.5
179,22,1,1,1,44,44,59.94971327949315,60.70412317942828,"[50, 0, 204]",204,a,0.23105086153373122,colour,0.5
179,22,1,1,1,45,45,61.216022858861834,62.01613116636872,"[75, 0, 179]",179,l,0.2768059833906591,colour,0.5
179,22,1,1,1,46,46,62.5285164588131,63.2641028566286,"[41, 0, 213]",213,a,0.21224311320111156,colour,0.5
179,22,1,1,1,47,47,63.77931675501168,64.55209171865135,"[83, 0, 171]",171,l,0.24938205443322659,colour,0.5
179,22,1,1,1,48,48,65.0607279855758,65.82406047871336,"[3, 0, 251]",251,a,0.2400565561838448,colour,0.5
179,22,1,1,1,49,49,66.34199428139254,67.09608319588006,"[58, 0, 196]",196,a,0.23126865830272436,colour,0.5
179,22,1,1,1,50,50,67.6075768196024,68.33607949363068,"[11, 0, 243]",243,a,0.20534882973879576,colour,0.5
179,22,1,1,2,1,51,79.21607130160555,79.97608051775023,"[45, 0, 209]",209,a,0.23580340761691332,colour,0.5
179,22,1,1,2,2,52,80.4825447211042,81.24810953624547,"[78, 0, 176]",176,l,0.2422435861080885,colour,0.5
179,22,1,1,2,3,53,81.76377596426755,82.49623246397823,"[63, 0, 191]",191,a,0.20921837212517858,colour,0.5
179,22,1,1,2,4,54,83.01369680091739,83.76827526697889,"[50, 0, 204]",204,a,0.23114223359152675,colour,0.5
179,22,1,1,2,5,55,84.27952509978786,85.04812292708084,"[12, 0, 242]",242,a,0.24544910294935107,colour,0.5
179,22,1,1,2,6,56,85.56068072421476,86.48014619573951,"[7, 0, 247]",247,a,0.3961001317948103,colour,0.5
179,22,1,1,2,7,57,86.9981981520541,87.78412010706961,"[88, 0, 166]",166,l,0.26254479959607124,colour,0.5
179,22,1,1,2,8,58,88.29506077058613,89.04809535806999,"[34, 0, 220]",220,a,0.22968185087665915,colour,0.5
179,22,1,1,2,9,59,89.56066181976348,90.32810410158709,"[91, 0, 163]",163,l,0.24416004354134202,colour,0.5
179,22,1,1,2,10,60,90.84189109317958,91.56835561199114,"[49, 0, 205]",205,a,0.20325238490477204,colour,0.5
179,22,1,1,2,11,61,92.07635266566649,92.82411246653646,"[3, 0, 251]",251,a,0.22447283612564206,colour,0.5
179,22,1,1,2,12,62,93.34196198591962,94.0800926326774,"[1, 0, 253]",253,a,0.21521980594843626,colour,0.5
179,22,1,1,2,13,63,94.59195017023012,95.33613699534908,"[25, 0, 229]",229,a,0.22107787895947695,colour,0.5
179,22,1,1,2,14,64,95.85755200730637,96.57617819169536,"[22, 0, 232]",232,a,0.19544870918616652,colour,0.5
179,22,1,1,2,15,65,97.09195056417957,97.92814387986436,"[81, 0, 173]",173,l,0.31299654208123684,colour,0.5
179,22,1,1,2,16,66,98.42324403487146,99.33617795538157,"[23, 0, 231]",231,a,0.3897076081484556,colour,0.5
179,22,1,1,2,17,67,99.8451545056887,100.66415011836216,"[11, 0, 243]",243,a,0.29570352798327804,colour,0.5
179,22,1,1,2,18,68,101.16075713047758,101.91208990709856,"[90, 0, 164]",164,l,0.2279091472737491,colour,0.5
179,22,1,1,2,19,69,102.42640386568382,103.16010413272306,"[35, 0, 219]",219,a,0.2104329946450889,colour,0.5
179,22,1,1,2,20,70,103.69917331589386,104.36813466390595,"[56, 0, 198]",198,a,0.15286956587806344,colour,0.5
179,22,1,1,2,21,71,104.87967082299292,105.76012303773314,"[66, 0, 188]",188,a,0.3571601305156946,colour,0.5
179,22,1,1,2,22,72,106.27149929478765,106.9201070475392,"[4, 0, 250]",250,a,0.12534363148733974,colour,0.5
179,22,1,1,2,23,73,107.4277886301279,108.16012579435483,"[48, 0, 206]",206,a,0.20897655049338937,colour,0.5
179,22,1,1,2,24,74,108.67756965151057,109.42414279282093,"[42, 0, 212]",212,a,0.22309594880789518,colour,0.5
179,22,1,1,2,25,75,109.94338219659403,110.72012437647209,"[54, 0, 200]",200,a,0.2534335539676249,colour,0.5
179,22,1,1,2,26,76,111.24026608234271,111.97613329347223,"[37, 0, 217]",217,a,0.21265310794115067,colour,0.5
179,22,1,1,2,27,77,112.49022472882643,113.21613313583657,"[39, 0, 215]",215,a,0.202609627507627,colour,0.5
179,22,1,1,2,28,78,113.72460950119421,114.37611793307588,"[21, 0, 233]",233,a,0.12837270461022854,colour,0.5
179,22,1,1,2,29,79,114.89657038403675,115.70417831791565,"[71, 0, 183]",183,l,0.283702630084008,colour,0.5
179,22,1,1,2,30,80,116.22533772327006,116.96016832999885,"[69, 0, 185]",185,l,0.21181460889056325,colour,0.5
179,22,1,1,2,31,81,117.47748300526291,118.16813151305541,"[40, 0, 214]",214,a,0.16767701413482428,colour,0.5
179,22,1,1,2,32,82,118.6805380731821,119.41614495124668,"[9, 0, 245]",245,a,0.21221711998805404,colour,0.5
179,22,1,1,2,33,83,119.93051641155034,120.64016959024593,"[55, 0, 199]",199,a,0.18628705106675625,colour,0.5
179,22,1,1,2,34,84,121.14938047900796,121.88016903866082,"[74, 0, 180]",180,l,0.20761699182912707,colour,0.5
179,22,1,1,2,35,85,122.39937496557832,123.15214134333655,"[82, 0, 172]",172,l,0.22945381328463554,colour,0.5
179,22,1,1,2,36,86,123.65250171301886,124.44813710590824,"[80, 0, 174]",174,l,0.2724996656179428,colour,0.5
179,22,1,1,2,37,87,124.96500949142501,125.68814994487911,"[15, 0, 239]",239,a,0.19984797481447458,colour,0.5
179,22,1,1,2,38,88,126.19942813459784,126.92014052439481,"[17, 0, 237]",237,a,0.19743290822952986,colour,0.5
179,22,1,1,2,39,89,127.43375382991508,128.12814466748387,"[2, 0, 252]",252,a,0.1709553929977119,colour,0.5
179,22,1,1,2,40,90,128.6368849100545,129.3921419735998,"[99, 0, 155]",155,l,0.2318842406384647,colour,0.5
179,22,1,1,2,41,91,129.90256866719574,130.57612541643903,"[33, 0, 221]",221,a,0.1502500926144421,colour,0.5
179,22,1,1,2,42,92,131.0900033870712,131.84819145640358,"[62, 0, 192]",192,a,0.23483927128836513,colour,0.5
179,22,1,1,2,43,93,132.35569462692365,133.08015879895538,"[92, 0, 162]",162,l,0.2011019829660654,colour,0.5
179,22,1,1,2,44,94,133.590094759129,134.36011319141835,"[64, 0, 190]",190,a,0.2466716030612588,colour,0.5
179,22,1,1,2,45,95,134.87126180529594,135.67215465568006,"[89, 0, 165]",165,l,0.27756256284192204,colour,0.5
179,22,1,1,2,46,96,136.1836242545396,136.89624861162156,"[28, 0, 226]",226,a,0.18915976770222187,colour,0.5
179,22,1,1,2,47,97,137.40258087636903,138.2481630994007,"[85, 0, 169]",169,l,0.3223236156627536,colour,0.5
179,22,1,1,2,48,98,138.76188234984875,139.51215843623504,"[73, 0, 181]",181,a,0.22687726933509111,colour,0.5
179,22,1,1,2,49,99,140.02751333173364,140.7681523868814,"[57, 0, 197]",197,l,0.21735602943226695,colour,0.5
179,22,1,1,2,50,100,141.27757792221382,142.17615062231198,"[79, 0, 175]",175,l,0.3753282707184553,colour,0.5
179,22,1,1,3,1,101,148.55799075216055,149.48016982665285,"[37, 0, 217]",217,a,0.39843997405841947,colour,0.5
179,22,1,1,3,2,102,149.99636597791687,150.7521976637654,"[27, 0, 227]",227,a,0.23256520135328174,colour,0.5
179,22,1,1,3,3,103,151.2619457594119,151.96017187461257,"[84, 0, 170]",170,l,0.17492733523249626,colour,0.5
179,22,1,1,3,4,104,152.48057785164565,153.17617858573794,"[28, 0, 226]",226,a,0.1722696591168642,colour,0.5
179,22,1,1,3,5,105,153.6785645079799,154.40821878938004,"[76, 0, 178]",178,l,0.2066252864897251,colour,0.5
179,22,1,1,3,6,106,154.92843965860084,155.60049309581518,"[5, 0, 249]",249,a,0.14860893413424492,colour,0.5
179,22,1,1,3,7,107,156.11609217571095,156.66415366297588,"[77, 0, 177]",177,l,0.02548305271193385,colour,0.5
179,22,1,1,3,8,108,157.17783313477412,157.7281958675012,"[64, 0, 190]",190,a,0.026965491008013487,colour,0.5
179,22,1,1,3,9,109,158.2403318551369,158.95219648210332,"[31, 0, 223]",223,a,0.18862453056499362,colour,0.5
179,22,1,1,3,10,110,159.45907107321545,160.1522516203113,"[44, 0, 210]",210,a,0.16982229612767696,colour,0.5
179,22,1,1,3,11,111,160.66221436252818,161.31220609182492,"[3, 0, 251]",251,a,0.1266110292635858,colour,0.5
179,22,1,1,3,12,112,161.82047411240637,162.576138806995,"[78, 0, 176]",176,l,0.2323804870247841,colour,0.5
179,22,1,1,3,13,113,163.08611966622993,163.86415563244373,"[93, 0, 161]",161,l,0.2548053218051791,colour,0.5
179,22,1,1,3,14,114,164.38290548464283,165.12817814433947,"[73, 0, 181]",181,a,0.22200223710387945,colour,0.5
179,22,1,1,3,15,115,165.6485624597408,166.3681862577796,"[88, 0, 166]",166,l,0.19629941787570715,colour,0.5
179,22,1,1,3,16,116,166.88295904779807,167.52017045672983,"[67, 0, 187]",187,a,0.11388781666755676,colour,0.5
179,22,1,1,3,17,117,168.03916882630438,168.7363555803895,"[30, 0, 224]",224,a,0.173644183203578,colour,0.5
179,22,1,1,3,18,118,169.25791592150927,169.90418580081314,"[41, 0, 213]",213,a,0.12299197353422642,colour,0.5
179,22,1,1,3,19,119,170.4140670169145,171.07224563416094,"[29, 0, 225]",225,a,0.13458602782338858,colour,0.5
179,22,1,1,3,20,120,171.58605113672093,172.25619678152725,"[80, 0, 174]",174,l,0.1468267785385251,colour,0.5
179,22,1,1,3,21,121,172.7735689585097,173.48022023867816,"[86, 0, 168]",168,a,0.18348798342049122,colour,0.5
179,22,1,1,3,22,122,173.99231487233192,174.72022677678615,"[87, 0, 167]",167,l,0.20451269391924143,colour,0.5
179,22,1,1,3,23,123,175.22665907861665,175.9122289349325,"[47, 0, 207]",207,a,0.1621533166617155,colour,0.5
179,22,1,1,3,24,124,176.43517049588263,177.20023630792275,"[85, 0, 169]",169,l,0.24182729050517082,colour,0.5
179,22,1,1,3,25,125,177.71644348697737,178.53616180783138,"[49, 0, 205]",205,a,0.29676021821796894,colour,0.5
179,22,1,1,3,26,126,179.04455231456086,179.80020086141303,"[82, 0, 172]",172,l,0.23239584732800722,colour,0.5
179,22,1,1,3,27,127,180.31011279765517,181.19218726595864,"[6, 0, 248]",248,a,0.35871188528835773,colour,0.5
179,22,1,1,3,28,128,181.70076721301302,182.4562019011937,"[63, 0, 191]",191,a,0.23206147132441401,colour,0.5
179,22,1,1,3,29,129,182.96644230512902,183.72818877827376,"[55, 0, 199]",199,a,0.23843509005382657,colour,0.5
179,22,1,1,3,30,130,184.24754554824904,184.944193914067,"[94, 0, 160]",160,l,0.1731818071566522,colour,0.5
179,22,1,1,3,31,131,185.45073649287224,186.19219632446766,"[15, 0, 239]",239,a,0.21806377172470093,colour,0.5
179,22,1,1,3,32,132,186.70072546508163,187.51221318123862,"[40, 0, 214]",214,a,0.2889758413657546,colour,0.5
179,22,1,1,3,33,133,188.02888076659292,188.76022071158513,"[35, 0, 219]",219,a,0.20807109726592898,colour,0.5
179,22,1,1,3,34,134,189.27885240968317,189.98419966408983,"[14, 0, 240]",240,a,0.1827262844890356,colour,0.5
179,22,1,1,3,35,135,190.49754633568227,191.22431293455884,"[90, 0, 164]",164,l,0.20329413237050176,colour,0.5
179,22,1,1,3,36,136,191.7319834898226,192.6002709660679,"[7, 0, 247]",247,a,0.3450154778547585,colour,0.5
179,22,1,1,3,37,137,193.10700534842908,193.82424086052924,"[57, 0, 197]",197,a,0.19392728013917804,colour,0.5
179,22,1,1,3,38,138,194.34131607739255,195.12820965237916,"[89, 0, 165]",165,l,0.26386024756357074,colour,0.5
179,22,1,1,3,39,139,195.63834056677297,196.31222184561193,"[12, 0, 242]",242,a,0.15117405634373426,colour,0.5
179,22,1,1,3,40,140,196.82767559634522,197.58423274755478,"[99, 0, 155]",155,l,0.2333205989561975,colour,0.5
179,22,1,1,3,41,141,198.0932632549666,198.8321871086955,"[33, 0, 221]",221,a,0.21576567739248276,colour,0.5
179,22,1,1,3,42,142,199.3431005962193,200.08020290965214,"[8, 0, 246]",246,a,0.21731388801708817,colour,0.5
179,22,1,1,3,43,143,200.59043976897374,201.27220900636166,"[4, 0, 250]",250,a,0.15855119610205293,colour,0.5
179,22,1,1,3,44,144,201.79350665211678,202.46419856138527,"[19, 0, 235]",235,a,0.1474010064266622,colour,0.5
179,22,1,1,3,45,145,202.9810067503713,203.5362212783657,"[46, 0, 208]",208,a,0.03183697862550616,colour,0.5
179,22,1,1,3,46,146,204.04354997491464,204.67220388632268,"[54, 0, 200]",200,a,0.1053488296456635,colour,0.5
179,22,1,1,3,47,147,205.1769855772145,205.92829117830843,"[11, 0, 243]",243,a,0.22801863681524992,colour,0.5
179,22,1,1,3,48,148,206.44370948290452,207.15221420489252,"[72, 0, 182]",182,a,0.1882054773159325,colour,0.5
179,22,1,1,3,49,149,207.65952714765444,208.23224933631718,"[60, 0, 194]",194,a,0.04933164268732071,colour,0.5
179,22,1,1,3,50,150,208.75331855099648,209.4802903435193,"[58, 0, 196]",196,a,0.20357100665569305,colour,0.5
179,22,1,1,4,1,151,213.8622194826603,214.95227328222245,"[61, 0, 193]",193,a,0.5658924956806004,colour,0.5
179,22,1,1,4,2,152,215.47245988668874,216.20029223384336,"[30, 0, 224]",224,a,0.20451741991564631,colour,0.5
179,22,1,1,4,3,153,216.70687616663054,217.38451592298225,"[62, 0, 192]",192,a,0.15426535811275244,colour,0.5
179,22,1,1,4,4,154,217.89436523756012,218.58486250787973,"[7, 0, 247]",247,a,0.16720636747777462,colour,0.5
179,22,1,1,4,5,155,219.09740691399202,219.80828810669482,"[43, 0, 211]",211,a,0.1874130587093532,colour,0.5
179,22,1,1,4,6,156,220.3069931389764,221.04825486568734,"[72, 0, 182]",182,a,0.2180358082987368,colour,0.5
179,22,1,1,4,7,157,221.55686238221824,222.25626255385578,"[46, 0, 208]",208,a,0.17601317027583718,colour,0.5
179,22,1,1,4,8,158,222.77571620978415,223.40056201908737,"[24, 0, 230]",230,a,0.10145920189097524,colour,0.5
179,22,1,1,4,9,159,223.91684442246333,224.60027490463108,"[44, 0, 210]",210,a,0.16382440738379955,colour,0.5
179,22,1,1,4,10,160,225.11625404655933,225.77623648103327,"[66, 0, 188]",188,a,0.13660567300394177,colour,0.5
179,22,1,1,4,11,161,226.28805384645239,226.96023804089054,"[38, 0, 216]",216,a,0.1488724173977971,colour,0.5
179,22,1,1,4,12,162,227.4755696989596,228.23225485021248,"[85, 0, 169]",169,l,0.23355257464572787,colour,0.5
179,22,1,1,4,13,163,228.7411108831875,229.44821981340647,"[83, 0, 171]",171,l,0.18411459354683757,colour,0.5
179,22,1,1,4,14,164,229.95991902519017,230.52023425977677,"[9, 0, 245]",245,a,0.04837144445627928,colour,0.5
179,22,1,1,4,15,165,231.0268642725423,231.76024119136855,"[75, 0, 179]",179,l,0.210071443580091,colour,0.5
179,22,1,1,4,16,166,232.27690090006217,233.04020424885675,"[91, 0, 163]",163,l,0.24010460590943694,colour,0.5
179,22,1,1,4,17,167,233.55945546738803,234.6082944078371,"[64, 0, 190]",190,a,0.5255322833545506,colour,0.5
179,22,1,1,4,18,168,235.12196954758838,235.84827219508588,"[60, 0, 194]",194,a,0.20305821858346462,colour,0.5
179,22,1,1,4,19,169,236.35630902741104,237.08839609939605,"[79, 0, 175]",175,l,0.20883003948256373,colour,0.5
179,22,1,1,4,20,170,237.60629484895617,238.24026056891307,"[57, 0, 197]",197,a,0.11062952456995845,colour,0.5
179,22,1,1,4,21,171,238.74692642129958,239.35227800812572,"[89, 0, 165]",165,l,0.0820283885113895,colour,0.5
179,22,1,1,4,22,172,239.87187266116962,240.53625672496855,"[8, 0, 246]",246,a,0.14107307465747,colour,0.5
179,22,1,1,4,23,173,241.043778012041,241.69625097466633,"[18, 0, 236]",236,a,0.12916512414813042,colour,0.5
179,22,1,1,4,24,174,242.21563531365246,242.94428292335942,"[20, 0, 234]",234,a,0.20535788824781775,colour,0.5
179,22,1,1,4,25,175,243.46583775104955,244.14423329895362,"[51, 0, 203]",203,a,0.15535276848822832,colour,0.5
179,22,1,1,4,26,176,244.6531527414918,245.36827959958464,"[13, 0, 241]",241,a,0.19179184455424547,colour,0.5
179,22,1,1,4,27,177,245.88752530468628,246.5442545665428,"[2, 0, 252]",252,a,0.13340054964646697,colour,0.5
179,22,1,1,4,28,178,247.0611943001859,247.74424472032115,"[71, 0, 183]",183,l,0.15984301269054413,colour,0.5
179,22,1,1,4,29,179,248.2644482604228,248.9123096736148,"[42, 0, 212]",212,a,0.1247055996209383,colour,0.5
179,22,1,1,4,30,180,249.4347908277996,250.07256543729454,"[84, 0, 170]",170,l,0.11443920154124498,colour,0.5
179,22,1,1,4,31,181,250.59103841567412,251.24025269178674,"[78, 0, 176]",176,a,0.1258674468845129,colour,0.5
179,22,1,1,4,32,182,251.74736949894577,252.34434003103524,"[86, 0, 168]",168,l,0.07385331578552723,colour,0.5
179,22,1,1,4,33,183,252.85688128648326,253.51228171028197,"[39, 0, 215]",215,a,0.13237457955256104,colour,0.5
179,22,1,1,4,34,184,254.02857750467956,254.71225492889062,"[45, 0, 209]",209,a,0.16041487781330943,colour,0.5
179,22,1,1,4,35,185,255.2316321786493,255.88825707137585,"[82, 0, 172]",172,l,0.13324340526014566,colour,0.5
179,22,1,1,4,36,186,256.4035717942752,257.09634589171037,"[3, 0, 251]",251,a,0.1696430961601436,colour,0.5
179,22,1,1,4,37,187,257.60668160626665,258.24028419936076,"[97, 0, 157]",157,l,0.11024828068912029,colour,0.5
179,22,1,1,4,38,188,258.7472651293501,259.336251210887,"[17, 0, 237]",237,a,0.065703843254596,colour,0.5
179,22,1,1,4,39,189,259.8566575818695,260.5602699420415,"[87, 0, 167]",167,l,0.18030649097636342,colour,0.5
179,22,1,1,4,40,190,261.0753952250816,261.7523012449965,"[5, 0, 249]",249,a,0.15380416344851255,colour,0.5
179,22,1,1,4,41,191,262.2629177724011,262.92825179360807,"[32, 0, 222]",222,a,0.14197813346982002,colour,0.5
179,22,1,1,4,42,192,263.43472505547106,264.1042519672774,"[19, 0, 235]",235,a,0.14614345505833626,colour,0.5
179,22,1,1,4,43,193,264.6223114063032,265.28826416051015,"[1, 0, 253]",253,a,0.14256732817739248,colour,0.5
179,22,1,1,4,44,194,265.8097937819548,266.47234803438187,"[36, 0, 218]",218,a,0.13929367577657104,colour,0.5
179,22,1,1,4,45,195,266.98166132345796,267.66430253721774,"[25, 0, 229]",229,a,0.1593731539323926,colour,0.5
179,22,1,1,4,46,196,268.1847786186263,268.89684410765767,"[73, 0, 181]",181,l,0.18870802596211433,colour,0.5
179,22,1,1,4,47,197,269.40352571429685,270.0162985511124,"[59, 0, 195]",195,a,0.08939134934917092,colour,0.5
179,22,1,1,4,48,198,270.5287488279864,271.07231534505263,"[80, 0, 174]",174,l,0.02040361426770687,colour,0.5
179,22,1,1,4,49,199,271.5910746497102,272.2002749047242,"[35, 0, 219]",219,a,0.0859570074826479,colour,0.5
179,22,1,1,4,50,200,272.7159889880568,273.36830007936805,"[69, 0, 185]",185,a,0.13203784078359604,colour,0.5
179,22,1,1,5,1,201,277.7949422225356,278.97629319503903,"[72, 0, 182]",182,l,0.657199121080339,colour,0.4
179,22,1,1,5,2,202,279.48324025422335,280.8883055145852,"[63, 0, 191]",191,a,0.881771600805223,colour,0.4
179,22,1,1,5,3,203,281.4050613217987,282.0563547136262,"[85, 0, 169]",169,l,0.12791899358853698,colour,0.4
179,22,1,1,5,4,204,282.5769111402333,283.61628555413336,"[37, 0, 217]",217,a,0.5158861940726638,colour,0.4
179,22,1,1,5,5,205,284.12382771540433,284.84832654567435,"[65, 0, 189]",189,a,0.20125006884336472,colour,0.4
179,22,1,1,5,6,206,285.35828259261325,286.00829598354176,"[81, 0, 173]",173,l,0.12742668576538563,colour,0.4
179,22,1,1,5,7,207,286.5143962725997,287.2163206068799,"[78, 0, 176]",176,l,0.1785026742145419,colour,0.4
179,22,1,1,5,8,208,287.7238820665516,288.2723047109321,"[51, 0, 203]",203,a,0.025204997044056654,colour,0.4
179,22,1,1,5,9,209,288.7863662140444,289.320530038327,"[73, 0, 181]",181,l,0.010584231931716204,colour,0.4
179,22,1,1,5,10,210,289.83325640205294,290.44828873639926,"[20, 0, 234]",234,a,0.09171976987272501,colour,0.4
179,22,1,1,5,11,211,290.958265657071,291.7603136594407,"[10, 0, 244]",244,a,0.2789406320080161,colour,0.4
179,22,1,1,5,12,212,292.2613624725491,293.048368293792,"[98, 0, 156]",156,l,0.2634585243649781,colour,0.4
179,22,1,1,5,13,213,293.5583554543555,294.3603266561404,"[59, 0, 195]",195,a,0.2787531604990363,colour,0.4
179,22,1,1,5,14,214,294.8708104570396,295.54466219758615,"[41, 0, 213]",213,a,0.1505238157697022,colour,0.4
179,22,1,1,5,15,215,296.05841413745657,296.776264837943,"[87, 0, 167]",167,l,0.19475002540275455,colour,0.4
179,22,1,1,5,16,216,297.2926972974092,297.9044567672536,"[17, 0, 237]",237,a,0.08838349627330899,colour,0.4
179,22,1,1,5,17,217,298.4176974943839,299.4883153606206,"[54, 0, 200]",200,a,0.5473033324815333,colour,0.4
179,22,1,1,5,18,218,299.99587012501433,300.58437453210354,"[15, 0, 239]",239,a,0.06515482114627957,colour,0.4
179,22,1,1,5,19,219,301.10524958046153,301.8003209847957,"[91, 0, 163]",163,l,0.17170212604105473,colour,0.4
179,22,1,1,5,20,220,302.3083735713735,302.9843418430537,"[31, 0, 223]",223,a,0.1529999291524291,colour,0.4
179,22,1,1,5,21,221,303.49585161404684,304.1443116744049,"[58, 0, 196]",196,a,0.1250108308158815,colour,0.4
179,22,1,1,5,22,222,304.65200546663254,305.3606610316783,"[94, 0, 160]",160,l,0.18517719116061926,colour,0.4
179,22,1,1,5,23,223,305.87083251262084,306.5683457655832,"[74, 0, 180]",180,a,0.1742396792396903,colour,0.4
179,22,1,1,5,24,224,307.08972336212173,307.76031759753823,"[90, 0, 164]",164,l,0.14743448328226805,colour,0.4
179,22,1,1,5,25,225,308.2770481989719,308.9683158332482,"[88, 0, 166]",166,l,0.16788732819259167,colour,0.4
179,22,1,1,5,26,226,309.4802903435193,310.22442518081516,"[69, 0, 185]",185,a,0.22083172528073192,colour,0.4
179,22,1,1,5,27,227,310.74582916498184,311.44032791629434,"[22, 0, 232]",232,a,0.17107669729739428,colour,0.4
179,22,1,1,5,28,228,311.9489830881357,312.68044945737347,"[8, 0, 246]",246,a,0.20827353419736028,colour,0.4
179,22,1,1,5,29,229,313.1888943151571,313.88834450533614,"[56, 0, 198]",198,a,0.17627941071987152,colour,0.4
179,22,1,1,5,30,230,314.4076705551706,315.0723677263595,"[50, 0, 204]",204,a,0.14138342533260584,colour,0.4
179,22,1,1,5,31,231,315.5801840047352,316.26464085141197,"[35, 0, 219]",219,a,0.16125574056059122,colour,0.4
179,22,1,1,5,32,232,316.78328869724646,317.3684068117291,"[26, 0, 228]",228,a,0.06179491616785526,colour,0.4
179,22,1,1,5,33,233,317.8770080264658,318.6483261520043,"[66, 0, 188]",188,a,0.24795514857396483,colour,0.4
179,22,1,1,5,34,234,319.15829283278435,319.75236465455964,"[47, 0, 207]",207,a,0.0711286854930222,colour,0.4
179,22,1,1,5,35,235,320.2676628357731,320.91240143962204,"[57, 0, 197]",197,a,0.12137011298909783,colour,0.4
179,22,1,1,5,36,236,321.4350936957635,322.11238883668557,"[77, 0, 177]",177,l,0.1541030933149159,colour,0.4
179,22,1,1,5,37,237,322.6225429880433,323.1603613146581,"[1, 0, 253]",253,a,0.014579017646610737,colour,0.4
179,22,1,1,5,38,238,323.67130000842735,324.31236638734117,"[34, 0, 220]",220,a,0.11769434344023466,colour,0.4
179,22,1,1,5,39,239,324.8274916699156,325.53636345732957,"[46, 0, 208]",208,a,0.18551038578152657,colour,0.4
179,22,1,1,5,40,240,326.0462970547378,326.69636046374217,"[55, 0, 199]",199,a,0.12666695518419147,colour,0.4
179,22,1,1,5,41,241,327.2026033257134,327.8964695595205,"[62, 0, 192]",192,a,0.17056745430454612,colour,0.4
179,22,1,1,5,42,242,328.4057174702175,329.0323982103728,"[67, 0, 187]",187,a,0.10346151748672128,colour,0.4
179,22,1,1,5,43,243,329.5462328577414,330.2083802665584,"[96, 0, 158]",158,l,0.13871038891375065,colour,0.4
179,22,1,1,5,44,244,330.71817995607853,331.38437650119886,"[12, 0, 242]",242,a,0.14297810988500714,colour,0.4
179,22,1,1,5,45,245,331.90557765448466,332.54438059730455,"[18, 0, 236]",236,a,0.11539152264595032,colour,0.4
179,22,1,1,5,46,246,333.0619154330343,333.7443679943681,"[39, 0, 215]",215,a,0.15913290763273835,colour,0.4
179,22,1,1,5,47,247,334.264958685264,334.9124475196004,"[49, 0, 205]",205,a,0.12365599861368537,colour,0.4
179,22,1,1,5,48,248,335.43515434814617,336.0883803451434,"[76, 0, 178]",178,l,0.1298945276066661,colour,0.4
179,22,1,1,5,49,249,336.6069368189201,337.2243889467791,"[45, 0, 209]",209,a,0.09411750780418515,colour,0.4
179,22,1,1,5,50,250,337.7319823084399,338.41636432381347,"[71, 0, 183]",183,l,0.16101273708045483,colour,0.4
179,22,1,1,6,1,251,343.0436582826078,343.7923365337774,"[50, 0, 204]",204,a,0.224561451934278,colour,0.28
179,22,1,1,6,2,252,344.3101025572978,344.9603825821541,"[81, 0, 173]",173,l,0.1270541064441204,colour,0.28
179,22,1,1,6,3,253,345.4682673900388,346.0966542735696,"[63, 0, 191]",191,a,0.10507116839289665,colour,0.28
179,22,1,1,6,4,254,346.6088426425122,347.2723444895819,"[76, 0, 178]",178,l,0.14043464930728078,colour,0.28
179,22,1,1,6,5,255,347.768222885672,348.84849471831694,"[60, 0, 194]",194,a,0.5568915265612304,colour,0.28
179,22,1,1,6,6,256,349.3619599379599,350.1844127350487,"[54, 0, 200]",200,a,0.2992698084563017,colour,0.28
179,22,1,1,6,7,257,350.70577024575323,351.3523516575806,"[59, 0, 195]",195,a,0.12316762888804078,colour,0.28
179,22,1,1,6,8,258,351.86207021493465,352.49648255622014,"[88, 0, 166]",166,l,0.11105684749782085,colour,0.28
179,22,1,1,6,9,259,353.00278410082683,353.6403865995817,"[62, 0, 192]",192,a,0.11442147893831134,colour,0.28
179,22,1,1,6,10,260,354.1588808456436,355.1844013137743,"[70, 0, 184]",184,a,0.5022957315668464,colour,0.28
179,22,1,1,6,11,261,355.6932471068576,356.3603951856494,"[69, 0, 185]",185,a,0.1438780496828258,colour,0.28
179,22,1,1,6,12,262,356.880857876502,357.51239316910505,"[93, 0, 161]",161,l,0.10822194069623947,colour,0.28
179,22,1,1,6,13,263,358.02151504857466,358.6483635674231,"[16, 0, 238]",238,a,0.10354225570335984,colour,0.28
179,22,1,1,6,14,264,359.1621017223224,359.7923585893586,"[80, 0, 174]",174,l,0.10699550248682499,colour,0.28
179,22,1,1,6,15,265,360.3046371489763,360.89646601490676,"[29, 0, 225]",225,a,0.06845171051099896,colour,0.28
179,22,1,1,6,16,266,361.4140008506365,362.08870487473905,"[53, 0, 201]",201,a,0.15143438894301653,colour,0.28
179,22,1,1,6,17,267,362.60143557051197,363.2483856230974,"[47, 0, 207]",207,a,0.12355084205046296,colour,0.28
179,22,1,1,6,18,268,363.757664647419,364.4323836378753,"[72, 0, 182]",182,a,0.1517329248599708,colour,0.28
179,22,1,1,6,19,269,364.9466330059804,365.600384788122,"[99, 0, 155]",155,l,0.1304321284405887,colour,0.28
179,22,1,1,6,20,270,366.1185245718807,366.7123971073888,"[61, 0, 193]",193,a,0.0705773001536727,colour,0.28
179,22,1,1,6,21,271,367.2277720887214,367.86439784802496,"[77, 0, 177]",177,l,0.11320055462419987,colour,0.28
179,22,1,1,6,22,272,368.38403070392087,368.9684154763818,"[73, 0, 181]",181,a,0.06090442929416895,colour,0.28
179,22,1,1,6,23,273,369.477812260855,370.1603896715678,"[96, 0, 158]",158,l,0.15958425542339683,colour,0.28
179,22,1,1,6,24,274,370.6809642147273,371.42442872561514,"[85, 0, 169]",169,l,0.22015076456591487,colour,0.28
179,22,1,1,6,25,275,371.9309598826803,372.5124160121195,"[79, 0, 175]",175,a,0.05814868491142988,colour,0.28
179,22,1,1,6,26,276,373.02466148883104,373.6487152725458,"[94, 0, 160]",160,l,0.10070104710757732,colour,0.28
179,22,1,1,6,27,277,374.16532732592896,374.8003906956874,"[52, 0, 202]",202,a,0.111754743847996,colour,0.28
179,22,1,1,6,28,278,375.32149771926925,375.9364808234386,"[28, 0, 226]",226,a,0.09156656404957175,colour,0.28
179,22,1,1,6,29,279,376.4465810181573,377.13650918053463,"[68, 0, 186]",186,a,0.16723669413477182,colour,0.28
179,22,1,1,6,30,280,377.64962939033285,378.29642505478114,"[84, 0, 170]",170,l,0.1236150385811925,colour,0.28
179,22,1,1,6,31,281,378.8059206949547,379.4243928855285,"[78, 0, 176]",176,l,0.09517892450094223,colour,0.28
179,22,1,1,6,32,282,379.931866123341,380.5763991395943,"[87, 0, 167]",167,l,0.12111687008291483,colour,0.28
179,22,1,1,6,33,283,381.0881775142625,381.7364205648191,"[86, 0, 168]",168,l,0.12488243682309985,colour,0.28
179,22,1,1,6,34,284,382.2445026896894,383.0244239992462,"[39, 0, 215]",215,a,0.2597185573540628,colour,0.28
179,22,1,1,6,35,285,383.5384343024343,384.28872889932245,"[37, 0, 217]",217,a,0.22682922007516026,colour,0.28
179,22,1,1,6,36,286,384.80403929017484,385.46436673402786,"[89, 0, 165]",165,l,0.13698534108698368,colour,0.28
179,22,1,1,6,37,287,385.9759942656383,386.6164218252525,"[20, 0, 234]",234,a,0.11710908776149154,colour,0.28
179,22,1,1,6,38,288,387.1321512684226,387.7203961308114,"[57, 0, 197]",197,a,0.06482202094048262,colour,0.28
179,22,1,1,6,39,289,388.24156262539327,388.82445353781804,"[31, 0, 223]",223,a,0.057678038254380226,colour,0.28
179,22,1,1,6,40,290,389.33711373480037,389.9364170203917,"[42, 0, 212]",212,a,0.07654092460870743,colour,0.28
179,22,1,1,6,41,291,390.44653533166274,391.0564626278356,"[55, 0, 199]",199,a,0.0865028789266944,colour,0.28
179,22,1,1,6,42,292,391.5715603409335,392.1926941466518,"[46, 0, 208]",208,a,0.09786692727357149,colour,0.28
179,22,1,1,6,43,293,392.7121564671397,393.3843816216104,"[97, 0, 157]",157,l,0.14886257145553827,colour,0.28
179,22,1,1,6,44,294,393.9006455144845,394.44040668569505,"[38, 0, 216]",216,a,0.01640725275501609,colour,0.28
179,22,1,1,6,45,295,394.94750064983964,395.5924416910857,"[67, 0, 187]",187,a,0.1217048829421401,colour,0.28
179,22,1,1,6,46,296,396.10370767116547,396.6964514423162,"[3, 0, 251]",251,a,0.06936779711395502,colour,0.28
179,22,1,1,6,47,297,397.2131099696271,397.8324289303273,"[74, 0, 180]",180,l,0.09593944204971194,colour,0.28
179,22,1,1,6,48,298,398.3537360280752,399.02449961798266,"[17, 0, 237]",237,a,0.14745023753494024,colour,0.28
179,22,1,1,6,49,299,399.54119674209505,400.1684371381998,"[75, 0, 179]",179,l,0.10404480434954166,colour,0.28
179,22,1,1,6,50,300,400.68464037869126,401.2724075051956,"[22, 0, 232]",232,a,0.06438012514263391,colour,0.28
179,22,1,1,7,1,301,405.8731959857978,406.6244523562491,"[70, 0, 184]",184,a,0.2271431158296764,colour,0.14
179,22,1,1,7,2,302,407.139691460412,408.24845494003966,"[7, 0, 247]",247,a,0.5858506695367396,colour,0.14
179,22,1,1,7,3,303,408.76458925707266,409.43243168713525,"[52, 0, 202]",202,a,0.1443991083651781,colour,0.14
179,22,1,1,7,4,304,409.95223901746795,410.58444503089413,"[45, 0, 209]",209,a,0.10897300578653812,colour,0.14
179,22,1,1,7,5,305,411.09269414655864,411.7764440383762,"[53, 0, 201]",201,a,0.1602943609468639,colour,0.14
179,22,1,1,7,6,306,412.2959067528136,412.9444652744569,"[30, 0, 224]",224,a,0.12525068316608667,colour,0.14
179,22,1,1,7,7,307,413.4521149559878,414.12046072166413,"[57, 0, 197]",197,a,0.14571376843377948,colour,0.14
179,22,1,1,7,8,308,414.639631989412,415.60040999390185,"[81, 0, 173]",173,l,0.437415421474725,colour,0.14
179,22,1,1,7,9,309,416.1083416696638,416.7604554439895,"[55, 0, 199]",199,a,0.12894181301817298,colour,0.14
179,22,1,1,7,10,310,417.28025844180956,417.9444333729334,"[99, 0, 155]",155,l,0.1387958535924554,colour,0.14
179,22,1,1,7,11,311,418.45418934570625,419.120504044462,"[98, 0, 156]",156,l,0.14369215350598097,colour,0.14
179,22,1,1,7,12,312,419.64164336398244,420.3524824148044,"[89, 0, 165]",165,l,0.1879329360090196,colour,0.14
179,22,1,1,7,13,313,420.86044796090573,421.5444573974237,"[61, 0, 193]",193,a,0.16073113679885864,colour,0.14
179,22,1,1,7,14,314,422.0636207885109,422.72043590899557,"[80, 0, 174]",174,l,0.13357108505442739,colour,0.14
179,22,1,1,7,15,315,423.2354032592848,423.9044823674485,"[65, 0, 189]",189,a,0.14573976211249828,colour,0.14
179,22,1,1,7,16,316,424.42288642236963,425.12842744914815,"[97, 0, 157]",157,l,0.1821047943085432,colour,0.14
179,22,1,1,7,17,317,425.6416539978236,426.34440383454785,"[51, 0, 203]",203,a,0.17950619524344802,colour,0.14
179,22,1,1,7,18,318,426.8604156654328,427.54446015460417,"[78, 0, 176]",176,l,0.16067363554611802,colour,0.14
179,22,1,1,7,19,319,428.06366214249283,428.6164588467218,"[64, 0, 190]",190,a,0.02947823191061616,colour,0.14
179,22,1,1,7,20,320,429.12602616706863,429.7844501505606,"[82, 0, 172]",172,l,0.13519688369706273,colour,0.14
179,22,1,1,7,21,321,430.2978972531855,430.86495474679396,"[92, 0, 162]",162,l,0.04371263366192579,colour,0.14
179,22,1,1,7,22,322,431.37596197007224,432.06449709739536,"[87, 0, 167]",167,l,0.16537970770150423,colour,0.14
179,22,1,1,7,23,323,432.5791647299193,433.2804915988818,"[67, 0, 187]",187,a,0.17795325815677643,colour,0.14
179,22,1,1,7,24,324,433.797929154709,434.52044142317027,"[93, 0, 161]",161,l,0.19932612869888544,colour,0.14
179,22,1,1,7,25,325,435.0328468014486,435.7364764912054,"[75, 0, 179]",179,l,0.1803742330521345,colour,0.14
179,22,1,1,7,26,326,436.2515489985235,436.84844824438915,"[16, 0, 238]",238,a,0.07822619378566742,colour,0.14
179,22,1,1,7,27,327,437.35624916292727,438.09647428570315,"[84, 0, 170]",170,l,0.2167506874538958,colour,0.14
179,22,1,1,7,28,328,438.6062747631222,439.27245082799345,"[72, 0, 182]",182,l,0.14289461448788643,colour,0.14
179,22,1,1,7,29,329,439.7937933723442,440.4887663149275,"[71, 0, 183]",183,a,0.17163162725046277,colour,0.14
179,22,1,1,7,30,330,440.9970359108411,441.5525028947741,"[83, 0, 171]",171,l,0.03228714596480131,colour,0.14
179,22,1,1,7,31,331,442.05937866773456,442.73647727863863,"[90, 0, 164]",164,l,0.15377935115247965,colour,0.14
179,22,1,1,7,32,332,443.24685395369306,443.8805754883215,"[68, 0, 186]",186,a,0.11029436066746712,colour,0.14
179,22,1,1,7,33,333,444.38754617841914,445.0084598236717,"[22, 0, 232]",232,a,0.09763455763459206,colour,0.14
179,22,1,1,7,34,334,445.52809425536543,446.1364583740942,"[63, 0, 191]",191,a,0.08531621936708689,colour,0.14
179,22,1,1,7,35,335,446.65308066736907,447.4244582639076,"[79, 0, 175]",175,l,0.24774207780137658,colour,0.14
179,22,1,1,7,36,336,447.93458760296926,448.64043071027845,"[88, 0, 166]",166,l,0.18249903479591012,colour,0.14
179,22,1,1,7,37,337,449.15338274789974,449.9365095742978,"[56, 0, 198]",198,a,0.25981623120605946,colour,0.14
179,22,1,1,7,38,338,450.45022252295166,451.17647160729393,"[20, 0, 234]",234,a,0.2029207656159997,colour,0.14
179,22,1,1,7,39,339,451.6846029632725,452.32850306807086,"[85, 0, 169]",169,l,0.12051861733198166,colour,0.14
179,22,1,1,7,40,340,452.8408544892445,453.5764865735546,"[74, 0, 180]",180,a,0.2123746583238244,colour,0.14
179,22,1,1,7,41,341,454.0908521260135,454.6964601073414,"[54, 0, 200]",200,a,0.0822962042875588,colour,0.14
179,22,1,1,7,42,342,455.21590470476076,455.8884323332459,"[62, 0, 192]",192,a,0.14930052869021893,colour,0.14
179,22,1,1,7,43,343,456.4033098863438,457.0804931744933,"[69, 0, 185]",185,a,0.1539018377661705,colour,0.14
179,22,1,1,7,44,344,457.59087260626256,458.2324435026385,"[96, 0, 158]",158,l,0.11832095356658101,colour,0.14
179,22,1,1,7,45,345,458.7471938431263,459.4244822887704,"[91, 0, 163]",163,l,0.1539628840982914,colour,0.14
179,22,1,1,7,46,346,459.92917260713875,460.49649791652337,"[60, 0, 194]",194,a,0.04229006031528115,colour,0.14
179,22,1,1,7,47,347,461.0089820642024,461.6404850613326,"[77, 0, 177]",177,l,0.1082160328514874,colour,0.14
179,22,1,1,7,48,348,462.1496030027047,462.8085208698176,"[47, 0, 207]",207,a,0.13594401068985462,colour,0.14
179,22,1,1,7,49,349,463.3214922058396,463.8886103518307,"[86, 0, 168]",168,l,0.04366458486765623,colour,0.14
179,22,1,1,7,50,350,464.39975699642673,465.02447007922456,"[58, 0, 196]",196,a,0.10156672121956944,colour,0.14
179,22,1,1,8,1,351,470.8490618574433,471.87252644682303,"[76, 0, 178]",178,a,0.4995072982273996,colour,0.06
179,22,1,1,8,2,352,472.3816577787511,472.93646270642057,"[51, 0, 203]",203,a,0.03204847453162074,colour,0.06
179,22,1,1,8,3,353,473.44647192256525,474.06451127585024,"[97, 0, 157]",157,l,0.09455507155507803,colour,0.06
179,22,1,1,8,4,354,474.57154773781076,475.2564716860652,"[91, 0, 163]",163,a,0.1615534881129861,colour,0.06
179,22,1,1,8,5,355,475.77479894133285,476.5046840165742,"[96, 0, 158]",158,l,0.2067647078074515,colour,0.06
179,22,1,1,8,6,356,477.0246516424231,478.16851196903735,"[83, 0, 171]",171,l,0.6207163282670081,colour,0.06
179,22,1,1,8,7,357,478.6809500362724,479.3366230018437,"[64, 0, 190]",190,a,0.13233361952006817,colour,0.06
179,22,1,1,8,8,358,479.8527742549777,480.4165183175355,"[57, 0, 197]",197,a,0.0404236214235425,colour,0.06
179,22,1,1,8,9,359,480.92925728391856,481.4806818268262,"[69, 0, 185]",185,a,0.028018636628985405,colour,0.06
179,22,1,1,8,10,360,481.991723314859,482.60052027134225,"[68, 0, 186]",186,a,0.0855285027064383,colour,0.06
179,22,1,1,8,11,361,483.1168341827579,483.7604904961772,"[89, 0, 165]",165,l,0.12035123212262988,colour,0.06
179,22,1,1,8,12,362,484.2730774381198,484.8724728836678,"[28, 0, 226]",226,a,0.07613841351121664,colour,0.06
179,22,1,1,8,13,363,485.38253763178363,485.9605491794646,"[15, 0, 239]",239,a,0.054801383055746555,colour,0.06
179,22,1,1,8,14,364,486.4762880750932,487.1045063920319,"[56, 0, 198]",198,a,0.10498924786224961,colour,0.06
179,22,1,1,8,15,365,487.6169373705052,488.2724984837696,"[67, 0, 187]",187,a,0.13227611826732755,colour,0.06
179,22,1,1,8,16,366,488.7888344503008,489.3765350165777,"[55, 0, 199]",199,a,0.06434113392606378,colour,0.06
179,22,1,1,8,17,367,489.8981808228418,490.5445196251385,"[54, 0, 200]",200,a,0.12296676728874445,colour,0.06
179,22,1,1,8,18,368,491.0543783917092,491.72053515864536,"[77, 0, 177]",177,l,0.14282175293192267,colour,0.06
179,22,1,1,8,19,369,492.2418198073283,492.84855497675017,"[24, 0, 230]",230,a,0.08422841504216194,colour,0.06
179,22,1,1,8,20,370,493.366735721007,493.9685186641291,"[58, 0, 196]",196,a,0.08698258409276605,colour,0.06
179,22,1,1,8,21,371,494.4731274563819,495.1926866634749,"[52, 0, 202]",202,a,0.19285365473479033,colour,0.06
179,22,1,1,8,22,372,495.71353532373905,496.64857270009816,"[93, 0, 161]",161,l,0.4122801353223622,colour,0.06
179,22,1,1,8,23,373,497.16687199193984,497.8325340873562,"[84, 0, 170]",170,l,0.1423704046756029,colour,0.06
179,22,1,1,8,24,374,498.3386627333239,499.0245661777444,"[75, 0, 179]",179,l,0.1627649599686265,colour,0.06
179,22,1,1,8,25,375,499.5417930255644,500.13658991875127,"[99, 0, 155]",155,l,0.07048907829448581,colour,0.06
179,22,1,1,8,26,376,500.6520972326398,501.3045733459294,"[90, 0, 164]",164,l,0.12944396771490574,colour,0.06
179,22,1,1,8,27,377,501.8249734151177,502.5205162540078,"[81, 0, 173]",173,l,0.1851177206262946,colour,0.06
179,22,1,1,8,28,378,503.0190846216865,503.9844934740104,"[74, 0, 180]",180,a,0.4423704049549997,colour,0.06
179,22,1,1,8,29,379,504.50341386161745,505.1765854288824,"[79, 0, 175]",175,a,0.1501169721595943,colour,0.06
179,22,1,1,8,30,380,505.6914728283882,506.64051696285605,"[73, 0, 181]",181,a,0.42581703467294574,colour,0.06
179,22,1,1,8,31,381,507.16024158522487,507.83252502884716,"[50, 0, 204]",204,a,0.14890589425340295,colour,0.06
179,22,1,1,8,32,382,508.34776885900646,508.9845907539129,"[88, 0, 166]",166,l,0.11408158903941512,colour,0.06
179,22,1,1,8,33,383,509.5039699729532,510.04851401690394,"[59, 0, 195]",195,a,0.02124250726774335,colour,0.06
179,22,1,1,8,34,384,510.56646829936653,511.28854851797223,"[62, 0, 192]",192,a,0.198816885240376,colour,0.06
179,22,1,1,8,35,385,511.80083849933,512.4405149933882,"[78, 0, 176]",176,l,0.11629185592755675,colour,0.06
179,22,1,1,8,36,386,512.957056154497,513.6965361195616,"[95, 0, 159]",159,l,0.2160669695585966,colour,0.06
179,22,1,1,8,37,387,514.2071321667172,514.8485191366635,"[85, 0, 169]",169,l,0.11805038060992956,colour,0.06
179,22,1,1,8,38,388,515.3633458837867,516.0405630427413,"[98, 0, 156]",156,l,0.15404953015968204,colour,0.06
179,22,1,1,8,39,389,516.5508377114311,517.080626688432,"[87, 0, 167]",167,l,0.007210936397314072,colour,0.06
179,22,1,1,8,40,390,517.5977570437826,518.2566733355634,"[63, 0, 191]",191,a,0.13552141329273582,colour,0.06
179,22,1,1,8,41,391,518.7696316745132,519.3765799151734,"[65, 0, 189]",189,a,0.0836998731829226,colour,0.06
179,22,1,1,8,42,392,519.8945983946323,520.5365308420733,"[66, 0, 188]",188,a,0.10971304355189204,colour,0.06
179,22,1,1,8,43,393,521.0465912581421,521.6405878551304,"[82, 0, 172]",172,l,0.07062377408146858,colour,0.06
179,22,1,1,8,44,394,522.1559529905207,522.8085358361714,"[80, 0, 174]",174,l,0.12921908125281334,colour,0.06
179,22,1,1,8,45,395,523.3277189196087,523.9685493842699,"[86, 0, 168]",168,l,0.11738044768571854,colour,0.06
179,22,1,1,8,46,396,524.4841642179526,525.1285912897438,"[53, 0, 201]",201,a,0.12107354728505015,colour,0.06
179,22,1,1,8,47,397,525.6293510193937,526.2725358991884,"[92, 0, 162]",162,a,0.1197777921333909,colour,0.06
179,22,1,1,8,48,398,526.7856754073873,527.3525485806167,"[94, 0, 160]",160,l,0.043548005633056164,colour,0.06
179,22,1,1,8,49,399,527.8639114475809,528.49653375661,"[70, 0, 184]",184,a,0.10942592937499285,colour,0.06
179,22,1,1,8,50,400,529.0044473148882,529.7285712035373,"[71, 0, 183]",183,l,0.20083022862672806,colour,0.06
179,22,1,1,9,1,401,541.4005021541379,542.0726008834317,"[51, 0, 203]",203,a,0.14826392428949475,colour,0.06
179,22,1,1,9,2,402,542.5886938469484,543.2085827034898,"[76, 0, 178]",178,l,0.09648413164541125,colour,0.06
179,22,1,1,9,3,403,543.7294128532521,544.3125459812582,"[81, 0, 173]",173,l,0.058366088196635246,colour,0.06
179,22,1,1,9,4,404,544.8246819688939,545.4805546146818,"[84, 0, 170]",170,l,0.13267350941896439,colour,0.06
179,22,1,1,9,5,405,545.996542815119,546.720580057241,"[68, 0, 186]",186,a,0.20076485024765134,colour,0.06
179,22,1,1,9,6,406,547.2309405840933,547.8565673907287,"[59, 0, 195]",195,a,0.10233038989827037,colour,0.06
179,22,1,1,9,7,407,548.371534741018,548.9925610264763,"[95, 0, 159]",159,l,0.09796341974288225,colour,0.06
179,22,1,1,9,8,408,549.5121288979426,550.5205761184916,"[29, 0, 225]",225,a,0.4851165390573442,colour,0.06
179,22,1,1,9,9,409,551.0278288028203,551.6965632950887,"[88, 0, 166]",166,l,0.1454388634301722,colour,0.06
179,22,1,1,9,10,410,552.215244224295,552.8086161804385,"[98, 0, 156]",156,l,0.07007120735943317,colour,0.06
179,22,1,1,9,11,411,553.3246673964895,554.0005529602058,"[21, 0, 233]",233,a,0.15260371938347816,colour,0.06
179,22,1,1,9,12,412,554.512250202708,555.1685966458172,"[52, 0, 202]",202,a,0.1332363155670464,colour,0.06
179,22,1,1,9,13,413,555.6840137685649,556.2967338305898,"[57, 0, 197]",197,a,0.0895146238617599,colour,0.06
179,22,1,1,9,14,414,556.8089785194024,557.4005907694809,"[91, 0, 163]",163,l,0.06825045449659228,colour,0.06
179,22,1,1,9,15,415,557.9184095687233,558.5526072639041,"[89, 0, 165]",165,l,0.11153025133535266,colour,0.06
179,22,1,1,9,16,416,559.0589505564421,559.7045741337352,"[99, 0, 155]",155,l,0.1225445638410747,colour,0.06
179,22,1,1,9,17,417,560.2152457996272,560.9925401522778,"[75, 0, 179]",179,l,0.2539727296680212,colour,0.06
179,22,1,1,9,18,418,561.5121198394336,562.0645983158611,"[64, 0, 190]",190,a,0.029436484444886446,colour,0.06
179,22,1,1,9,19,419,562.5746047748253,563.2648740084842,"[61, 0, 193]",193,a,0.16698069358244538,colour,0.06
179,22,1,1,9,20,420,563.7777713011019,564.3366072480567,"[70, 0, 184]",184,a,0.03550447802990675,colour,0.06
179,22,1,1,9,21,421,564.8559080916457,565.4726386927068,"[62, 0, 192]",192,a,0.0934003135189414,colour,0.06
179,22,1,1,9,22,422,565.9809594890103,566.6405847044662,"[96, 0, 158]",158,l,0.1363670020364225,colour,0.06
179,22,1,1,9,23,423,567.1527388086542,567.7445767330937,"[85, 0, 169]",169,l,0.06856001820415258,colour,0.06
179,22,1,1,9,24,424,568.26207651617,568.8725614990108,"[87, 0, 167]",167,l,0.08762652333825827,colour,0.06
179,22,1,1,9,25,425,569.387092073448,569.9525828454643,"[66, 0, 188]",188,a,0.04210928454995155,colour,0.06
179,22,1,1,9,26,426,570.4652245319448,571.0969350859523,"[63, 0, 191]",191,a,0.10838774964213371,colour,0.06
179,22,1,1,9,27,427,571.6059128181078,572.3445853977464,"[55, 0, 199]",199,a,0.21541003370657563,colour,0.06
179,22,1,1,9,28,428,572.85581829492,573.3846407723613,"[94, 0, 160]",160,l,0.005426417570561171,colour,0.06
179,22,1,1,9,29,429,573.8903932948597,574.5445869727992,"[65, 0, 189]",189,a,0.1308842641301453,colour,0.06
179,22,1,1,9,30,430,575.0622750148177,575.7045662566088,"[77, 0, 177]",177,l,0.11905823415145278,colour,0.06
179,22,1,1,9,31,431,576.2184930643998,576.7525655161589,"[67, 0, 187]",187,a,0.010715776588767767,colour,0.06
179,22,1,1,9,32,432,577.2653261441737,577.8086012145504,"[80, 0, 174]",174,a,0.019854985643178225,colour,0.06
179,22,1,1,9,33,433,578.3279048148543,579.1845647599548,"[71, 0, 183]",183,a,0.3332615219987929,colour,0.06
179,22,1,1,9,34,434,579.7029065871611,580.3445948497392,"[60, 0, 194]",194,a,0.13072751322761178,colour,0.06
179,22,1,1,9,35,435,580.8623585104942,581.4805975439958,"[93, 0, 161]",161,l,0.0949961799196899,colour,0.06
179,22,1,1,9,36,436,581.9873464982957,582.7446369915269,"[97, 0, 157]",157,l,0.2340496089309454,colour,0.06
179,22,1,1,9,37,437,583.2529684212059,583.8486085399054,"[58, 0, 196]",196,a,0.07230549864470959,colour,0.06
179,22,1,1,9,38,438,584.3623124305159,585.3128693294711,"[86, 0, 168]",168,l,0.42727466067299247,colour,0.06
179,22,1,1,9,39,439,585.8310780366883,586.400620308239,"[56, 0, 198]",198,a,0.04626948572695255,colour,0.06
179,22,1,1,9,40,440,586.9092037999071,587.4729096591473,"[90, 0, 164]",164,l,0.04513638885691762,colour,0.06
179,22,1,1,9,41,441,587.9825722905807,588.5766039397568,"[78, 0, 176]",176,a,0.06930556986480951,colour,0.06
179,22,1,1,9,42,442,589.0933691994287,589.6725961575285,"[72, 0, 182]",182,a,0.055794664192944765,colour,0.06
179,22,1,1,9,43,443,590.1872027441859,590.7687388244085,"[53, 0, 201]",201,a,0.05825974978506565,colour,0.06
179,22,1,1,9,44,444,591.2809291626327,591.8726351484656,"[92, 0, 162]",162,l,0.06656754901632667,colour,0.06
179,22,1,1,9,45,445,592.3919099979103,592.9207604387775,"[2, 0, 252]",252,l,0.006214110646396875,colour,0.06
179,22,1,1,9,46,446,593.4388702902943,594.0886544627137,"[69, 0, 185]",185,a,0.12641016766428947,colour,0.06
179,22,1,1,9,47,447,594.5951395398006,595.5445901239291,"[54, 0, 200]",200,a,0.42612541653215885,colour,0.06
179,22,1,1,9,48,448,596.063896087464,596.6726902867667,"[82, 0, 172]",172,l,0.08533591171726584,colour,0.06
179,22,1,1,9,49,449,597.1889380319044,597.7606133762747,"[74, 0, 180]",180,a,0.046955172438174486,colour,0.06
179,22,1,1,9,50,450,598.2683922396973,598.7926906016655,"[73, 0, 181]",181,a,0.0008944254368543625,colour,0.06
179,22,1,1,10,1,451,603.6582869249396,604.3046076106839,"[86, 0, 168]",168,l,0.1225614994764328,colour,0.06
179,22,1,1,10,2,452,604.8152446178719,605.7926331004128,"[65, 0, 189]",189,a,0.45396327786147594,colour,0.06
179,22,1,1,10,3,453,606.2997156428173,606.9686226397753,"[54, 0, 200]",200,l,0.14562003267928958,colour,0.06
179,22,1,1,10,4,454,607.4871590272523,608.0246417964809,"[70, 0, 184]",184,a,0.01414972497150302,colour,0.06
179,22,1,1,10,5,455,608.5339944702573,609.3286417019553,"[63, 0, 191]",191,a,0.2713267900981009,colour,0.06
179,22,1,1,10,6,456,609.846579442732,610.4646467589773,"[99, 0, 155]",155,l,0.09477326273918152,colour,0.06
179,22,1,1,10,7,457,610.9715654612519,611.5446389606223,"[88, 0, 166]",166,l,0.04667317820712924,colour,0.06
179,22,1,1,10,8,458,612.0528939841315,612.7606405518018,"[61, 0, 193]",193,a,0.1844489690847695,colour,0.06
179,22,1,1,10,9,459,613.2716304459609,613.9286137386225,"[80, 0, 174]",174,l,0.13369672233238816,colour,0.06
179,22,1,1,10,10,460,614.4434704179876,615.0566055942327,"[98, 0, 156]",156,l,0.08983836555853486,colour,0.06
179,22,1,1,10,11,461,615.5684280795977,616.2487077894621,"[27, 0, 227]",227,a,0.15722669009119272,colour,0.06
179,22,1,1,10,12,462,616.7559699257836,617.4726130929776,"[60, 0, 194]",194,a,0.19339164905250072,colour,0.06
179,22,1,1,10,13,463,617.990297196433,618.6406540214084,"[93, 0, 161]",161,l,0.12698597135022283,colour,0.06
179,22,1,1,10,14,464,619.1622257842682,619.8726784712635,"[59, 0, 195]",195,a,0.18713106401264668,colour,0.06
179,22,1,1,10,15,465,620.3809697288089,621.0726556284353,"[74, 0, 180]",180,a,0.16854977840557694,colour,0.06
179,22,1,1,10,16,466,621.5840275534429,622.1846360461786,"[87, 0, 167]",167,l,0.07721518957987428,colour,0.06
179,22,1,1,10,17,467,622.6934105535038,623.4406138490885,"[79, 0, 175]",175,l,0.22374579589813948,colour,0.06
179,22,1,1,10,18,468,623.9590801317245,624.560659062583,"[32, 0, 222]",222,a,0.0784534434787929,colour,0.06
179,22,1,1,10,19,469,625.0684710089117,625.7766748322174,"[75, 0, 179]",179,l,0.18484281562268734,colour,0.06
179,22,1,1,10,20,470,626.2872232240625,626.8566059879959,"[35, 0, 219]",219,a,0.04606980551034212,colour,0.06
179,22,1,1,10,21,471,627.3652351656929,628.0166833391413,"[94, 0, 160]",160,l,0.1283345017582178,colour,0.06
179,22,1,1,10,22,472,628.5372149534523,629.168834135402,"[71, 0, 183]",183,a,0.1070789978839457,colour,0.06
179,22,1,1,10,23,473,629.6793250255287,630.3526438917033,"[76, 0, 178]",178,a,0.1498897229321301,colour,0.06
179,22,1,1,10,24,474,630.8669239794835,631.5046993768774,"[67, 0, 187]",187,a,0.11445062374696136,colour,0.06
179,22,1,1,10,25,475,632.0234189028852,632.6886473731138,"[68, 0, 186]",186,a,0.13981552189216018,colour,0.06
179,22,1,1,10,26,476,633.1976006869227,633.8007006528787,"[64, 0, 190]",190,a,0.0798606569878757,colour,0.06
179,22,1,1,10,27,477,634.3067757356912,634.904716311954,"[97, 0, 157]",157,l,0.07458350714296103,colour,0.06
179,22,1,1,10,28,478,635.4636499332264,636.0967361936346,"[83, 0, 171]",171,l,0.11018408415839076,colour,0.06
179,22,1,1,10,29,479,636.6037903791294,637.2406808030792,"[58, 0, 196]",196,a,0.11366214277222753,colour,0.06
179,22,1,1,10,30,480,637.7599997636862,638.3846742492169,"[56, 0, 198]",198,a,0.10174710303544998,colour,0.06
179,22,1,1,10,31,481,638.9007471268997,639.5607043551281,"[90, 0, 164]",164,l,0.13680495927110314,colour,0.06
179,22,1,1,10,32,482,640.0724827297963,640.7126779202372,"[69, 0, 185]",185,a,0.1168077951297164,colour,0.06
179,22,1,1,10,33,483,641.2288287789561,641.8646762971766,"[77, 0, 177]",177,a,0.11260151397436857,colour,0.06
179,22,1,1,10,34,484,642.3849928714335,643.0406634737737,"[91, 0, 163]",163,l,0.13217017333954573,colour,0.06
179,22,1,1,10,35,485,643.5568521418609,644.2326735090464,"[92, 0, 162]",162,l,0.15250919619575143,colour,0.06
179,22,1,1,10,36,486,644.7472072341479,645.4889805675484,"[50, 0, 204]",204,a,0.21845131693407893,colour,0.06
179,22,1,1,10,37,487,645.9972655232996,646.712673981674,"[66, 0, 188]",188,a,0.1920502078719437,colour,0.06
179,22,1,1,10,38,488,647.2316676247865,647.9528191532008,"[52, 0, 202]",202,a,0.1978980409912765,colour,0.06
179,22,1,1,10,39,489,648.4659259724431,649.1046532965265,"[53, 0, 201]",201,a,0.11536355968564749,colour,0.06
179,22,1,1,10,40,490,649.6222487846389,650.4166920040734,"[96, 0, 158]",158,l,0.2711964272893965,colour,0.06
179,22,1,1,10,41,491,650.9222724158317,651.5927091124468,"[73, 0, 181]",181,a,0.1474088835529983,colour,0.06
179,22,1,1,10,42,492,652.1098780650645,652.784689609427,"[62, 0, 192]",192,a,0.15172701701521873,colour,0.06
179,22,1,1,10,43,493,653.2972387415357,653.9846868524328,"[84, 0, 170]",170,l,0.16392641374841332,colour,0.06
179,22,1,1,10,44,494,654.5004395325668,655.2646924452856,"[78, 0, 176]",176,l,0.2409505881369114,colour,0.06
179,22,1,1,10,45,495,655.7836396144703,656.3846655846573,"[85, 0, 169]",169,l,0.07771379966288805,colour,0.06
179,22,1,1,10,46,496,656.8930234024301,657.5367210698314,"[72, 0, 182]",182,a,0.12055012490600348,colour,0.06
179,22,1,1,10,47,497,658.0491177835502,658.7446547145955,"[81, 0, 173]",173,a,0.17211212031543255,colour,0.06
179,22,1,1,10,48,498,659.2523626852781,659.7846620399505,"[55, 0, 199]",199,a,0.009039565455168486,colour,0.06
179,22,1,1,10,49,499,660.2991469283588,660.9446755885147,"[95, 0, 159]",159,l,0.12210227409377694,colour,0.06
179,22,1,1,10,50,500,661.4555351189338,662.0806889161468,"[57, 0, 197]",197,a,0.10181051259860396,colour,0.06
179,22,1,1,11,1,501,666.7359562199563,667.4086917992681,"[53, 0, 201]",201,a,0.1486069648526609,colour,0.06
179,22,1,1,11,2,502,667.9242759128101,668.4807160915807,"[59, 0, 195]",195,a,0.03315163869410753,colour,0.06
179,22,1,1,11,3,503,669.0023579592817,669.536691531539,"[81, 0, 173]",173,l,0.011038337368518114,colour,0.06
179,22,1,1,11,4,504,670.0491036050953,670.6806806456298,"[73, 0, 181]",181,a,0.1080679465085268,colour,0.06
179,22,1,1,11,5,505,671.1898289127275,671.7367380051874,"[74, 0, 180]",180,a,0.023600072599947453,colour,0.06
179,22,1,1,11,6,506,672.2523941928521,675.1047367923893,"[99, 0, 155]",155,l,2.329081234987825,colour,0.06
179,22,1,1,11,7,507,675.6117319008335,676.2407111292705,"[61, 0, 193]",193,a,0.10659968666732311,colour,0.06
179,22,1,1,11,8,508,676.7521267710254,677.3287145635113,"[84, 0, 170]",170,l,0.053373295813798904,colour,0.06
179,22,1,1,11,9,509,677.846146998927,678.4967503719963,"[88, 0, 166]",166,l,0.12737706070765853,colour,0.06
179,22,1,1,11,10,510,679.0179452234879,679.6647251341492,"[66, 0, 188]",188,a,0.12348467530682683,colour,0.06
179,22,1,1,11,11,511,680.1742412545718,680.7846860648133,"[75, 0, 179]",179,a,0.08712791372090578,colour,0.06
179,22,1,1,11,12,512,681.2991784359328,681.9048139862716,"[95, 0, 159]",159,l,0.08225130569189787,colour,0.06
179,22,1,1,11,13,513,682.4242432238534,683.0567580126226,"[65, 0, 189]",189,a,0.1091632335446775,colour,0.06
179,22,1,1,11,14,514,683.5648657376878,684.1527116331272,"[67, 0, 187]",187,a,0.0645861066877842,colour,0.06
179,22,1,1,11,15,515,684.6585504082032,685.3047143430449,"[89, 0, 165]",165,l,0.12295061955228448,colour,0.06
179,22,1,1,11,16,516,685.8148681004532,686.3607063242234,"[34, 0, 220]",220,a,0.022533142007887363,colour,0.06
179,22,1,1,11,17,517,686.8773896638304,687.5366923189722,"[27, 0, 227]",227,a,0.13602514285594225,colour,0.06
179,22,1,1,11,18,518,688.0491713467054,688.8166912160814,"[57, 0, 197]",197,a,0.24407024635002017,colour,0.06
179,22,1,1,11,19,519,689.3308070702478,689.9686955013312,"[78, 0, 176]",176,l,0.11447779880836606,colour,0.06
179,22,1,1,11,20,520,690.487003063783,691.0807188483886,"[82, 0, 172]",172,l,0.07031027227640152,colour,0.06
179,22,1,1,11,21,521,691.5964104826562,692.2647306481376,"[50, 0, 204]",204,a,0.14485518261790276,colour,0.06
179,22,1,1,11,22,522,692.7839346057735,693.3447244255804,"[60, 0, 194]",194,a,0.037448898423463106,colour,0.06
179,22,1,1,11,23,523,693.8620639131404,694.4807243621908,"[58, 0, 196]",196,a,0.09568186616525054,colour,0.06
179,22,1,1,11,24,524,694.987046780996,695.6327148629352,"[52, 0, 202]",202,a,0.12229762226343155,colour,0.06
179,22,1,1,11,25,525,696.1432341099717,696.8087563901208,"[92, 0, 162]",162,l,0.14220380783081055,colour,0.06
179,22,1,1,11,26,526,697.3152497378178,697.9447122160345,"[13, 0, 241]",241,a,0.10626176605001092,colour,0.06
179,22,1,1,11,27,527,698.4558395626955,699.0726843792945,"[91, 0, 163]",163,l,0.09350625844672322,colour,0.06
179,22,1,1,11,28,528,699.5808165227063,700.192811512854,"[97, 0, 157]",157,l,0.08859302289783955,colour,0.06
179,22,1,1,11,29,529,700.7058108118363,701.296725559514,"[54, 0, 200]",200,a,0.0679349834099412,colour,0.06
179,22,1,1,11,30,530,701.816799917724,702.4966889321804,"[70, 0, 184]",184,a,0.1564323017373681,colour,0.06
179,22,1,1,11,31,531,703.0044536166824,703.6486790385097,"[85, 0, 169]",169,l,0.12096405774354935,colour,0.06
179,22,1,1,11,32,532,704.1606586687267,704.768697864376,"[63, 0, 191]",191,a,0.08475026208907366,colour,0.06
179,22,1,1,11,33,533,705.2856821026653,705.912709034048,"[64, 0, 190]",190,a,0.10380849614739418,colour,0.06
179,22,1,1,11,34,534,706.4261927641928,707.1210006852634,"[72, 0, 182]",182,a,0.17205816321074963,colour,0.06
179,22,1,1,11,35,535,707.6293817395344,708.56073428737,"[94, 0, 160]",160,l,0.407789496704936,colour,0.06
179,22,1,1,11,36,536,709.0825140010566,709.792809149716,"[96, 0, 158]",158,l,0.18692429503425956,colour,0.06
179,22,1,1,11,37,537,710.3012784258462,710.9766984628513,"[71, 0, 183]",183,a,0.15217678947374225,colour,0.06
179,22,1,1,11,38,538,711.4886347702704,712.1690082154237,"[86, 0, 168]",168,l,0.15729955164715648,colour,0.06
179,22,1,1,11,39,539,712.6762636564672,713.2970571783371,"[87, 0, 167]",167,l,0.0979516040533781,colour,0.06
179,22,1,1,11,40,540,713.8168148840778,714.3687191321515,"[98, 0, 156]",156,l,0.02888155449181795,colour,0.06
179,22,1,1,11,41,541,714.8793210871518,715.920721841976,"[51, 0, 203]",203,a,0.5180098148994148,colour,0.06
179,22,1,1,11,42,542,716.4418777027167,717.1527498364449,"[55, 0, 199]",199,a,0.18800382828339934,colour,0.06
179,22,1,1,11,43,543,717.6605862011202,718.280697974842,"[76, 0, 178]",178,l,0.09671138133853674,colour,0.06
179,22,1,1,11,44,544,718.8012264380231,719.4247075687163,"[68, 0, 186]",186,a,0.10019495384767652,colour,0.06
179,22,1,1,11,45,545,719.9418970011175,720.6007128618658,"[62, 0, 192]",192,a,0.13566437968984246,colour,0.06
179,22,1,1,11,46,546,721.1137680872343,721.8086973130703,"[69, 0, 185]",185,a,0.1716154799796641,colour,0.06
179,22,1,1,11,47,547,722.3167711673304,722.9767673863098,"[79, 0, 175]",175,l,0.136516269762069,colour,0.06
179,22,1,1,11,48,548,723.4777378239669,724.1047226139344,"[77, 0, 177]",177,l,0.1035855789668858,colour,0.06
179,22,1,1,11,49,549,724.6184103563428,725.2006978960708,"[90, 0, 164]",164,l,0.06839775387197733,colour,0.06
179,22,1,1,11,50,550,725.7184391072951,726.2648235959932,"[56, 0, 198]",198,a,0.02297700708732009,colour,0.06
179,22,1,1,12,1,551,730.6707316879183,731.3847526246682,"[55, 0, 199]",199,a,0.18987341737374663,colour,0.06
179,22,1,1,12,2,552,731.9059880427085,732.5527411717921,"[56, 0, 198]",198,a,0.12341654021292925,colour,0.06
179,22,1,1,12,3,553,733.0622214516625,733.6887686778791,"[67, 0, 187]",187,a,0.10324017517268658,colour,0.06
179,22,1,1,12,4,554,734.2028683843091,734.8087559961714,"[99, 0, 155]",155,l,0.08259789040312171,colour,0.06
179,22,1,1,12,5,555,735.3278087163344,736.048786952626,"[78, 0, 176]",176,l,0.19756878539919853,colour,0.06
179,22,1,1,12,6,556,736.5622167256661,737.2327652750537,"[86, 0, 168]",168,l,0.14723283424973488,colour,0.06
179,22,1,1,12,7,557,737.7496872856282,738.3847561692819,"[74, 0, 180]",180,a,0.11229431349784136,colour,0.06
179,22,1,1,12,8,558,738.9059242396615,739.45675761858,"[93, 0, 161]",161,l,0.027470402419567108,colour,0.06
179,22,1,1,12,9,559,739.9695186405443,740.5687258276157,"[76, 0, 178]",178,a,0.07585563184693456,colour,0.06
179,22,1,1,12,10,560,741.0789106991142,741.7207714663818,"[64, 0, 190]",190,a,0.11848006723448634,colour,0.06
179,22,1,1,12,11,561,742.2352008223534,742.816775105428,"[97, 0, 157]",157,l,0.058232180308550596,colour,0.06
179,22,1,1,12,12,562,743.3289063666016,743.9607618567534,"[73, 0, 181]",181,l,0.10847400221973658,colour,0.06
179,22,1,1,12,13,563,744.4695607819594,745.0327944196761,"[31, 0, 223]",223,a,0.039913983549922705,colour,0.06
179,22,1,1,12,14,564,745.5477412897162,746.1927551925182,"[59, 0, 195]",195,a,0.12175608286634088,colour,0.06
179,22,1,1,12,15,565,746.7039971482009,747.4808700857684,"[89, 0, 165]",165,l,0.2535773082636297,colour,0.06
179,22,1,1,12,16,566,748.0008361362852,748.6567481663078,"[58, 0, 196]",196,a,0.1326577551662922,colour,0.06
179,22,1,1,12,17,567,749.1727674808353,749.7127425107174,"[84, 0, 170]",170,l,0.016742022708058357,colour,0.06
179,22,1,1,12,18,568,750.2195848068222,751.9367399746552,"[82, 0, 172]",172,l,1.1938993171788752,colour,0.06
179,22,1,1,12,19,569,752.4539309823886,753.1047178874724,"[50, 0, 204]",204,a,0.12748733768239617,colour,0.06
179,22,1,1,12,20,570,753.6257910407148,754.2647968144156,"[90, 0, 164]",164,l,0.11258812295272946,colour,0.06
179,22,1,1,12,21,571,754.7849928713404,755.384751049336,"[53, 0, 201]",201,a,0.07633927511051297,colour,0.06
179,22,1,1,12,22,572,755.8955916753039,756.4648235961795,"[70, 0, 184]",184,l,0.04593038372695446,colour,0.06
179,22,1,1,12,23,573,756.9736623000354,757.6328208073974,"[65, 0, 189]",189,a,0.13581679807975888,colour,0.06
179,22,1,1,12,24,574,758.1455605616793,758.712762597017,"[88, 0, 166]",166,l,0.04385441867634654,colour,0.06
179,22,1,1,12,25,575,759.224685119465,759.7768225246109,"[63, 0, 191]",191,a,0.028788212686777115,colour,0.06
179,22,1,1,12,26,576,760.2872811197303,760.8967755781487,"[26, 0, 228]",228,a,0.08414610102772713,colour,0.06
179,22,1,1,12,27,577,761.4142458229326,762.0167546253651,"[77, 0, 177]",177,l,0.07907729595899582,colour,0.06
179,22,1,1,12,28,578,762.5246992981993,763.0568619882688,"[98, 0, 156]",156,l,0.008877695072442293,colour,0.06
179,22,1,1,12,29,579,763.571601300966,764.6567706158385,"[52, 0, 202]",202,a,0.5619248854927719,colour,0.06
179,22,1,1,12,30,580,765.165361196734,765.7928264788352,"[60, 0, 194]",194,l,0.10419052699580789,colour,0.06
179,22,1,1,12,31,581,766.3059805594385,767.2967629749328,"[61, 0, 193]",193,a,0.4673985647968948,colour,0.06
179,22,1,1,12,32,582,767.8060258519836,768.5288232653402,"[71, 0, 183]",183,a,0.19958173530176282,colour,0.06
179,22,1,1,12,33,583,769.0405528028496,769.5928158452734,"[69, 0, 185]",185,a,0.029148582834750414,colour,0.06
179,22,1,1,12,34,584,770.1028226981871,770.6331965369172,"[79, 0, 175]",175,a,0.00708451122045517,colour,0.06
179,22,1,1,12,35,585,771.1653269319795,773.0249135503545,"[72, 0, 182]",182,l,1.3347274186089635,colour,0.06
179,22,1,1,12,36,586,773.5444396743551,774.1607823367231,"[62, 0, 192]",192,a,0.09293084871023893,colour,0.06
179,22,1,1,12,37,587,774.6693918220699,775.3687530029565,"[81, 0, 173]",173,l,0.17594582261517644,colour,0.06
179,22,1,1,12,38,588,775.888199175708,776.4488413031213,"[92, 0, 162]",162,a,0.03731538401916623,colour,0.06
179,22,1,1,12,39,589,776.9662824035622,777.6327822105959,"[66, 0, 188]",188,a,0.14299347018823028,colour,0.06
179,22,1,1,12,40,590,778.1538498499431,778.7607870628126,"[51, 0, 203]",203,a,0.08361834706738591,colour,0.06
179,22,1,1,12,41,591,779.2788319298998,779.9368356792256,"[75, 0, 179]",179,a,0.13456909265369177,colour,0.06
179,22,1,1,12,42,592,780.4506368497387,781.0568119697273,"[54, 0, 200]",200,a,0.08120170468464494,colour,0.06
179,22,1,1,12,43,593,781.5773691837676,782.1127854399383,"[95, 0, 159]",159,l,0.009704378433525562,colour,0.06
179,22,1,1,12,44,594,782.6277878424153,783.3369376854971,"[94, 0, 160]",160,l,0.18573527224361897,colour,0.06
179,22,1,1,12,45,595,783.846583774779,784.6007999023423,"[80, 0, 174]",174,l,0.23087638756260276,colour,0.06
179,22,1,1,12,46,596,785.112204910256,785.7688069599681,"[3, 0, 251]",251,a,0.13323474070057273,colour,0.06
179,22,1,1,12,47,597,786.284105535131,786.8887726166286,"[87, 0, 167]",167,l,0.08132734196260571,colour,0.06
179,22,1,1,12,48,598,787.4091226672754,787.9367978698574,"[57, 0, 197]",197,a,0.004483942873775959,colour,0.06
179,22,1,1,12,49,599,788.4559242394753,789.1048163492233,"[85, 0, 169]",169,l,0.12550707766786218,colour,0.06
179,22,1,1,12,50,600,789.612245476339,790.192829629872,"[91, 0, 163]",163,l,0.05758745362982154,colour,0.06
179,22,1,1,13,1,601,795.4095807108097,795.9768808139488,"[89, 0, 165]",165,l,0.043277827091515064,colour,0.06
179,22,1,1,13,2,602,796.4885386717506,797.2888112133369,"[64, 0, 190]",190,a,0.2773384638130665,colour,0.06
179,22,1,1,13,3,603,797.8010275457054,798.4248253288679,"[70, 0, 184]",184,a,0.10044307727366686,colour,0.06
179,22,1,1,13,4,604,798.9416161887348,799.6087957746349,"[82, 0, 172]",172,l,0.14389577228575945,colour,0.06
179,22,1,1,13,5,605,800.1290832040831,800.7848290312104,"[87, 0, 167]",167,l,0.1323308628052473,colour,0.06
179,22,1,1,13,6,606,801.3010326656513,801.9048679429106,"[53, 0, 201]",201,a,0.08049317449331284,colour,0.06
179,22,1,1,13,7,607,802.426086819265,803.0888419332914,"[71, 0, 183]",183,a,0.13967767590656877,colour,0.06
179,22,1,1,13,8,608,803.5980024100281,804.312808283139,"[63, 0, 191]",191,a,0.19151300098747015,colour,0.06
179,22,1,1,13,9,609,804.832307625562,805.4967881813645,"[90, 0, 164]",164,l,0.14115972071886063,colour,0.06
179,22,1,1,13,10,610,806.0041873762384,806.6088347653858,"[80, 0, 174]",174,l,0.08136396948248148,colour,0.06
179,22,1,1,13,11,611,807.129106441047,807.7688428000547,"[51, 0, 203]",203,a,0.11639346834272146,colour,0.06
179,22,1,1,13,12,612,808.2854032590985,808.8328318353742,"[69, 0, 185]",185,a,0.021738753654062748,colour,0.06
179,22,1,1,13,13,613,809.3502879017033,809.9288059361279,"[66, 0, 188]",188,a,0.055200350005179644,colour,0.06
179,22,1,1,13,14,614,810.4440135322511,811.1128102522343,"[88, 0, 166]",166,l,0.14537624130025506,colour,0.06
179,22,1,1,13,15,615,811.6316006709822,812.2728131669573,"[6, 0, 248]",248,a,0.11799760535359383,colour,0.06
179,22,1,1,13,16,616,812.7878250218928,813.5208179401234,"[75, 0, 179]",179,l,0.2097425814718008,colour,0.06
179,22,1,1,13,17,617,814.0381050463766,814.6567773111165,"[77, 0, 177]",177,l,0.09537309082224965,colour,0.06
179,22,1,1,13,18,618,815.1631115451455,815.8728238008916,"[93, 0, 161]",161,l,0.18631619587540627,colour,0.06
179,22,1,1,13,19,619,816.3818869972602,817.0489622140303,"[91, 0, 163]",163,l,0.14375753235071898,colour,0.06
179,22,1,1,13,20,620,817.5694052129984,818.2088457932696,"[94, 0, 160]",160,l,0.11621387442573905,colour,0.06
179,22,1,1,13,21,621,818.7255732435733,819.4008321976289,"[97, 0, 157]",157,l,0.1520787221379578,colour,0.06
179,22,1,1,13,22,622,819.9131127265282,820.5688829724677,"[54, 0, 200]",200,a,0.13313864218071103,colour,0.06
179,22,1,1,13,23,623,821.0849897204898,821.7208246355876,"[84, 0, 170]",170,a,0.11260190745815635,colour,0.06
179,22,1,1,13,24,624,822.2412585760467,822.8008503145538,"[81, 0, 173]",173,l,0.03634770354256034,colour,0.06
179,22,1,1,13,25,625,823.3193418034352,823.9688672185875,"[65, 0, 189]",189,a,0.1261624381877482,colour,0.06
179,22,1,1,13,26,626,824.4755594590679,825.1209124634042,"[73, 0, 181]",181,a,0.1221389016136527,colour,0.06
179,22,1,1,13,27,627,825.6318649421446,826.440821012482,"[92, 0, 162]",162,l,0.28567619528621435,colour,0.06
179,22,1,1,13,28,628,826.9599225698039,827.5848900773562,"[57, 0, 197]",197,a,0.1018077558837831,colour,0.06
179,22,1,1,13,29,629,828.1005502035841,828.7848475417122,"[72, 0, 182]",182,l,0.16108047869056463,colour,0.06
179,22,1,1,13,30,630,829.3037045202218,829.9528829567134,"[78, 0, 176]",176,l,0.1258639027364552,colour,0.06
179,22,1,1,13,31,631,830.4599851910025,831.0888706841506,"[3, 0, 251]",251,a,0.10583011014387012,colour,0.06
179,22,1,1,13,32,632,831.6006352743134,832.2489311001264,"[67, 0, 187]",187,a,0.12476113205775619,colour,0.06
179,22,1,1,13,33,633,832.7568359943107,833.384842815809,"[98, 0, 156]",156,l,0.10546304564923048,colour,0.06
179,22,1,1,13,34,634,833.8974388157949,834.4728769701906,"[83, 0, 171]",171,l,0.05206060502678156,colour,0.06
179,22,1,1,13,35,635,834.9912081635557,835.7128972923383,"[86, 0, 168]",168,l,0.1984124043956399,colour,0.06
179,22,1,1,13,36,636,836.2255633971654,837.0329330540262,"[56, 0, 198]",198,a,0.28421581257134676,colour,0.06
179,22,1,1,13,37,637,837.5536352032796,838.2808716609143,"[74, 0, 180]",180,l,0.20392074203118682,colour,0.06
179,22,1,1,13,38,638,838.788073932752,839.4568789233454,"[52, 0, 202]",202,a,0.145459343213588,colour,0.06
179,22,1,1,13,39,639,839.9755047140643,840.6168778995052,"[96, 0, 158]",158,l,0.11813820851966739,colour,0.06
179,22,1,1,13,40,640,841.1318027144298,841.7208498418331,"[61, 0, 193]",193,a,0.06568178767338395,colour,0.06
179,22,1,1,13,41,641,842.2412743298337,843.2649220577441,"[95, 0, 159]",159,l,0.5003717914223671,colour,0.06
179,22,1,1,13,42,642,843.7724236524664,844.408859971445,"[68, 0, 186]",186,a,0.11297921277582645,colour,0.06
179,22,1,1,13,43,643,844.9286361881532,845.4968602550216,"[55, 0, 199]",199,a,0.044892203994095325,colour,0.06
179,22,1,1,13,44,644,846.0082814111374,846.5609099427238,"[99, 0, 155]",155,l,0.029336840845644474,colour,0.06
179,22,1,1,13,45,645,847.0708699282259,847.6248918888159,"[58, 0, 196]",196,a,0.030747993383556604,colour,0.06
179,22,1,1,13,46,646,848.1301934574731,848.7528380579315,"[50, 0, 204]",204,a,0.09933597454801202,colour,0.06
179,22,1,1,13,47,647,849.2707903711125,849.8728612163104,"[62, 0, 192]",192,a,0.07867124071344733,colour,0.06
179,22,1,1,13,48,648,850.3801745525561,850.9689006954432,"[16, 0, 238]",238,a,0.06541003379970789,colour,0.06
179,22,1,1,13,49,649,851.4895465248264,852.400856222026,"[76, 0, 178]",178,l,0.38835316989570856,colour,0.06
179,22,1,1,13,50,650,852.9113912233151,853.7608796167187,"[79, 0, 175]",175,a,0.3261029673740268,colour,0.06
179,22,1,1,14,1,651,858.1144742541946,858.6569411512464,"[51, 0, 203]",203,a,0.017788079101592302,colour,0.06
179,22,1,1,14,2,652,859.1781430919655,859.7848995295353,"[88, 0, 166]",166,l,0.08376958407461643,colour,0.06
179,22,1,1,14,3,653,860.3030783045106,860.9289693823084,"[77, 0, 177]",177,a,0.10260608280077577,colour,0.06
179,22,1,1,14,4,654,861.443739021197,862.0408907230012,"[62, 0, 192]",192,a,0.07397855864837766,colour,0.06
179,22,1,1,14,5,655,862.553141713608,863.1448579393327,"[56, 0, 198]",198,a,0.068390270229429,colour,0.06
179,22,1,1,14,6,656,863.6625243197195,864.2649669563398,"[83, 0, 171]",171,l,0.07919584447517991,colour,0.06
179,22,1,1,14,7,657,864.7718364275061,865.4089320455678,"[85, 0, 169]",169,a,0.11367356404662132,colour,0.06
179,22,1,1,14,8,658,865.9281588462181,866.5528758671135,"[72, 0, 182]",182,a,0.10142454272136092,colour,0.06
179,22,1,1,14,9,659,867.068722283002,867.7369144484401,"[28, 0, 226]",226,a,0.14824383798986673,colour,0.06
179,22,1,1,14,10,660,868.2528089135885,868.864938205108,"[59, 0, 195]",195,a,0.08877931162714958,colour,0.06
179,22,1,1,14,11,661,869.3777988702059,870.0568509604782,"[82, 0, 172]",172,a,0.15562491631135345,colour,0.06
179,22,1,1,14,12,662,870.5653253565542,871.1848463602364,"[76, 0, 178]",178,a,0.09619898675009608,colour,0.06
179,22,1,1,14,13,663,871.7063570767641,872.3369073593058,"[73, 0, 181]",181,a,0.10711247473955154,colour,0.06
179,22,1,1,14,14,664,872.847739320714,873.5051924725994,"[94, 0, 160]",160,l,0.13489480363205075,colour,0.06
179,22,1,1,14,15,665,874.0196809051558,874.6569009791128,"[16, 0, 238]",238,a,0.11402133107185364,colour,0.06
179,22,1,1,14,16,666,875.1759942653589,875.7848573881201,"[84, 0, 170]",170,l,0.0856505953706801,colour,0.06
179,22,1,1,14,17,667,876.3009617729113,876.8729147794656,"[99, 0, 155]",155,l,0.0486061773262918,colour,0.06
179,22,1,1,14,18,668,877.394747662358,878.0489665465429,"[68, 0, 186]",186,a,0.1309657907113433,colour,0.06
179,22,1,1,14,19,669,878.5599454129115,879.2169125578366,"[53, 0, 201]",201,a,0.13396453764289618,colour,0.06
179,22,1,1,14,20,670,879.7318456433713,880.3688794276677,"[55, 0, 199]",199,a,0.11371609987691045,colour,0.06
179,22,1,1,14,21,671,880.888054240495,881.5050219371915,"[64, 0, 190]",190,a,0.0936693106777966,colour,0.06
179,22,1,1,14,22,672,882.0133458836935,882.7288441387936,"[91, 0, 163]",163,l,0.19219711190089583,colour,0.06
179,22,1,1,14,23,673,883.248530164361,883.864922451321,"[52, 0, 202]",202,a,0.09388553211465478,colour,0.06
179,22,1,1,14,24,674,884.3726753205992,885.0889553613961,"[70, 0, 184]",184,l,0.19279575906693935,colour,0.06
179,22,1,1,14,25,675,885.6070778160356,886.160864256788,"[63, 0, 191]",191,a,0.030779107473790646,colour,0.06
179,22,1,1,14,26,676,886.6695340005681,887.3128937478177,"[97, 0, 157]",157,l,0.12000070884823799,colour,0.06
179,22,1,1,14,27,677,887.82583672693,888.5529243103229,"[80, 0, 174]",174,l,0.20368285896256566,colour,0.06
179,22,1,1,14,28,678,889.0601766007021,889.7529459721409,"[86, 0, 168]",168,l,0.16974392114207149,colour,0.06
179,22,1,1,14,29,679,890.2633328866214,890.8969728951342,"[65, 0, 189]",189,a,0.11030066246166825,colour,0.06
179,22,1,1,14,30,680,891.4039333453402,892.0809583072551,"[35, 0, 219]",219,a,0.15372184989973903,colour,0.06
179,22,1,1,14,31,681,892.5913972100243,893.2569250036031,"[79, 0, 175]",175,a,0.14253385132178664,colour,0.06
179,22,1,1,14,32,682,893.763346277643,894.360944995191,"[66, 0, 188]",188,a,0.07428694097325206,colour,0.06
179,22,1,1,14,33,683,894.8726965882815,895.5369069655426,"[98, 0, 156]",156,l,0.14873772207647562,colour,0.06
179,22,1,1,14,34,684,896.0521318912506,896.7609296352603,"[87, 0, 167]",167,l,0.18547572707757354,colour,0.06
179,22,1,1,14,35,685,897.2708730790764,897.9208872574382,"[69, 0, 185]",185,a,0.12665120186284184,colour,0.06
179,22,1,1,14,36,686,898.4271088512614,899.0969126368873,"[61, 0, 193]",193,a,0.14665545523166656,colour,0.06
179,22,1,1,14,37,687,899.6146475467831,900.2569159450941,"[57, 0, 197]",197,a,0.11927484953776002,colour,0.06
179,22,1,1,14,38,688,900.7708293618634,901.4249391504563,"[92, 0, 162]",162,l,0.13062393153086305,colour,0.06
179,22,1,1,14,39,689,901.9428445957601,902.6650252453983,"[71, 0, 183]",183,a,0.19905634364113212,colour,0.06
179,22,1,1,14,40,690,903.1770706479438,903.8329436876811,"[90, 0, 164]",164,l,0.13251557666808367,colour,0.06
179,22,1,1,14,41,691,904.3493399131112,905.0252203568816,"[54, 0, 200]",200,a,0.1529254917986691,colour,0.06
179,22,1,1,14,42,692,905.5364843681455,906.2968949135393,"[50, 0, 204]",204,a,0.2370176361873746,colour,0.06
179,22,1,1,14,43,693,906.8176805586554,907.6408875724301,"[81, 0, 173]",173,l,0.30019613541662693,colour,0.06
179,22,1,1,14,44,694,908.1615912974812,908.9129248620011,"[78, 0, 176]",176,l,0.22804738767445087,colour,0.06
179,22,1,1,14,45,695,909.4157321997918,910.0649827099405,"[93, 0, 161]",161,l,0.12342756753787398,colour,0.06
179,22,1,1,14,46,696,910.5744484178722,911.1849172525108,"[96, 0, 158]",158,l,0.08710822090506554,colour,0.06
179,22,1,1,14,47,697,911.6994706699625,912.3688955754042,"[58, 0, 196]",196,a,0.14612139947712421,colour,0.06
179,22,1,1,14,48,698,912.887048356235,913.5529231289402,"[67, 0, 187]",187,a,0.14347041817381978,colour,0.06
179,22,1,1,14,49,699,914.0744153345004,914.7929403004237,"[75, 0, 179]",179,l,0.19512969348579645,colour,0.06
179,22,1,1,14,50,700,915.3088024700992,915.9450485613197,"[74, 0, 180]",180,l,0.11295676371082664,colour,0.06
179,22,1,1,15,1,701,920.4482367490418,921.2008979697712,"[95, 0, 159]",159,l,0.22850464330986142,colour,0.06
179,22,1,1,15,2,702,921.714716469869,922.3209360945038,"[67, 0, 187]",187,a,0.08280505426228046,colour,0.06
179,22,1,1,15,3,703,922.8397020944394,923.512934314087,"[88, 0, 166]",166,l,0.1498830276541412,colour,0.06
179,22,1,1,15,4,704,924.0271127894521,924.7289642621763,"[78, 0, 176]",176,l,0.18422880908474326,colour,0.06
179,22,1,1,15,5,705,925.241286539007,925.7929544788785,"[12, 0, 242]",242,a,0.028401849325746298,colour,0.06
179,22,1,1,15,6,706,926.3036600155756,926.9049045708962,"[82, 0, 172]",172,l,0.07782801520079374,colour,0.06
179,22,1,1,15,7,707,927.411594054196,928.0169243733399,"[81, 0, 173]",173,l,0.0820216927677393,colour,0.06
179,22,1,1,15,8,708,928.5229021762498,929.160952872131,"[61, 0, 193]",193,a,0.1148074483498931,colour,0.06
179,22,1,1,15,9,709,929.679155277554,930.2969453260303,"[68, 0, 186]",186,a,0.10373878525570035,colour,0.06
179,22,1,1,15,10,710,930.8105263365433,931.4492233344354,"[75, 0, 179]",179,a,0.11577946180477738,colour,0.06
179,22,1,1,15,11,711,931.9667743179016,932.6492642946541,"[91, 0, 163]",163,l,0.15916717238724232,colour,0.06
179,22,1,1,15,12,712,933.1699022469111,933.7689656801522,"[83, 0, 171]",171,l,0.07574456697329879,colour,0.06
179,22,1,1,15,13,713,934.2792946994305,935.2409206554294,"[55, 0, 199]",199,a,0.43863792112097144,colour,0.06
179,22,1,1,15,14,714,935.7480626688339,936.3209227034822,"[97, 0, 157]",157,l,0.049580947030335665,colour,0.06
179,22,1,1,15,15,715,936.8417237084359,937.5610288847238,"[50, 0, 204]",204,a,0.19601939339190722,colour,0.06
179,22,1,1,15,16,716,938.076180160977,938.680963427294,"[44, 0, 210]",210,a,0.08160697249695659,colour,0.06
179,22,1,1,15,17,717,939.2011921731755,939.8490067189559,"[96, 0, 158]",158,l,0.12452758103609085,colour,0.06
179,22,1,1,15,18,718,940.3574062841944,941.0169932967983,"[89, 0, 165]",165,l,0.13622600492089987,colour,0.06
179,22,1,1,15,19,719,941.52930336399,942.1529589691199,"[90, 0, 164]",164,l,0.10037376079708338,colour,0.06
179,22,1,1,15,20,720,942.6699128812179,943.3369321716018,"[58, 0, 196]",196,a,0.14370908914133906,colour,0.06
179,22,1,1,15,21,721,943.8573735947721,944.4889522106387,"[59, 0, 195]",195,a,0.10817940533161163,colour,0.06
179,22,1,1,15,22,722,944.9980024104007,945.6650126422755,"[71, 0, 183]",183,a,0.14366537239402533,colour,0.06
179,22,1,1,15,23,723,946.185551345814,946.8650189437903,"[69, 0, 185]",185,a,0.1567907021380961,colour,0.06
179,22,1,1,15,24,724,947.364866131451,947.9610316413455,"[65, 0, 189]",189,a,0.07273439783602953,colour,0.06
179,22,1,1,15,25,725,948.4742018696852,949.1449394654483,"[98, 0, 156]",156,l,0.14752231119200587,colour,0.06
179,22,1,1,15,26,726,949.6616594330408,950.2250187075697,"[76, 0, 178]",178,a,0.04004277195781469,colour,0.06
179,22,1,1,15,27,727,950.7397131221369,951.3369825840928,"[74, 0, 180]",180,a,0.07473553204908967,colour,0.06
179,22,1,1,15,28,728,951.8492166390643,952.5530412830412,"[94, 0, 160]",160,l,0.18074563052505255,colour,0.06
179,22,1,1,15,29,729,953.068153174594,953.704963253811,"[51, 0, 203]",203,a,0.11427969392389059,colour,0.06
179,22,1,1,15,30,730,954.2242963928729,954.8329377798364,"[54, 0, 200]",200,a,0.0853658439591527,colour,0.06
179,22,1,1,15,31,731,955.3511390038766,956.2009672871791,"[66, 0, 188]",188,a,0.32640701718628407,colour,0.06
179,22,1,1,15,32,732,956.7105590254068,957.4329740139656,"[99, 0, 155]",155,l,0.19917528564110398,colour,0.06
179,22,1,1,15,33,733,957.9460906791501,958.5770076327026,"[60, 0, 194]",194,a,0.1174733960069716,colour,0.06
179,22,1,1,15,34,734,959.0932518332265,959.8089702487923,"[57, 0, 197]",197,a,0.19258111296221614,colour,0.06
179,22,1,1,15,35,735,960.3277689381503,960.9209687835537,"[2, 0, 252]",252,a,0.06989870266988873,colour,0.06
179,22,1,1,15,36,736,961.4370743501931,962.0733247734606,"[52, 0, 202]",202,a,0.11289650481194258,colour,0.06
179,22,1,1,15,37,737,962.5933349346742,963.1689621354453,"[56, 0, 198]",198,a,0.0525450361892581,colour,0.06
179,22,1,1,15,38,738,963.6871499689296,964.2809697287157,"[84, 0, 170]",170,l,0.07065606955438852,colour,0.06
179,22,1,1,15,39,739,964.7964786179364,965.4809665782377,"[86, 0, 168]",168,l,0.16113207256421447,colour,0.06
179,22,1,1,15,40,740,966.0000106338412,966.6890211338177,"[64, 0, 190]",190,a,0.16559238452464342,colour,0.06
179,22,1,1,15,41,741,967.2032122123055,967.8889392134733,"[70, 0, 184]",184,a,0.16038179490715265,colour,0.06
179,22,1,1,15,42,742,968.4087394545786,969.0489854509942,"[80, 0, 174]",174,l,0.11703898292034864,colour,0.06
179,22,1,1,15,43,743,969.5649114237167,970.2089848211035,"[92, 0, 162]",162,l,0.12070096796378493,colour,0.06
179,22,1,1,15,44,744,970.721180673223,971.345030838158,"[87, 0, 167]",167,l,0.10057659167796373,colour,0.06
179,22,1,1,15,45,745,971.8617563191801,972.47298173327,"[73, 0, 181]",181,a,0.08784983400255442,colour,0.06
179,22,1,1,15,46,746,972.9867171314545,973.5529940212145,"[63, 0, 191]",191,a,0.04294266365468502,colour,0.06
179,22,1,1,15,47,747,974.0655750553124,974.6970599354245,"[53, 0, 201]",201,a,0.10887454403564334,colour,0.06
179,22,1,1,15,48,748,975.2054598946124,975.9370585964061,"[93, 0, 161]",161,l,0.2082349373959005,colour,0.06
179,22,1,1,15,49,749,976.4556993530132,977.1289638685994,"[79, 0, 175]",175,a,0.15010121883824468,colour,0.06
179,22,1,1,15,50,750,977.6429737773724,978.27303765947,"[62, 0, 192]",192,a,0.10465644765645266,colour,0.06
179,22,1,1,16,1,751,982.8662453819998,983.6169688780792,"[99, 0, 155]",155,l,0.226646869443357,colour,0.06
179,22,1,1,16,2,752,984.1325167580508,984.7610091920942,"[80, 0, 174]",174,l,0.10493568470701575,colour,0.06
179,22,1,1,16,3,753,985.2732786936685,986.4889659951441,"[88, 0, 166]",166,l,0.6922746999189258,colour,0.06
179,22,1,1,16,4,754,987.0075925732963,987.6490130205639,"[72, 0, 182]",182,a,0.11842453526332974,colour,0.06
179,22,1,1,16,5,755,988.1639134166762,988.7370133041404,"[98, 0, 156]",156,l,0.04968255991116166,colour,0.06
179,22,1,1,16,6,756,989.2576760691591,989.9289953759871,"[65, 0, 189]",189,a,0.14800753025338054,colour,0.06
179,22,1,1,16,7,757,990.4451773487963,990.9690475999378,"[66, 0, 188]",188,a,0.001057477667927742,colour,0.06
179,22,1,1,16,8,758,991.4919919180684,992.1290111299604,"[84, 0, 170]",170,l,0.11374681955203414,colour,0.06
179,22,1,1,16,9,759,992.6490681590512,993.1849979911931,"[77, 0, 177]",177,a,0.013416776433587074,colour,0.06
179,22,1,1,16,10,760,993.69518089341,994.345028474927,"[67, 0, 187]",187,a,0.12653698632493615,colour,0.06
179,22,1,1,16,11,761,994.8514127274975,995.4253830155358,"[61, 0, 193]",193,a,0.0505761974491179,colour,0.06
179,22,1,1,16,12,762,995.945133632049,996.5289886808023,"[83, 0, 171]",171,l,0.06047907518222928,colour,0.06
179,22,1,1,16,13,763,997.0388446901925,997.5930470330641,"[74, 0, 180]",180,a,0.029998503625392914,colour,0.06
179,22,1,1,16,14,764,998.1022823406383,998.753036162816,"[70, 0, 184]",184,a,0.1282238308340311,colour,0.06
179,22,1,1,16,15,765,999.2741431868635,999.8490153835155,"[49, 0, 205]",205,a,0.051623829174786806,colour,0.06
179,22,1,1,16,16,766,1000.3679263191298,1000.9930068608373,"[50, 0, 204]",204,a,0.10184083878993988,colour,0.06
179,22,1,1,16,17,767,1001.5084334360436,1002.0890683950856,"[93, 0, 161]",161,l,0.057202665600925684,colour,0.06
179,22,1,1,16,18,768,1002.6031200522557,1003.1929918946698,"[92, 0, 162]",162,l,0.07884925929829478,colour,0.06
179,22,1,1,16,19,769,1003.7015710538253,1004.2569919573143,"[96, 0, 158]",158,l,0.032145360484719276,colour,0.06
179,22,1,1,16,20,770,1004.7643021433614,1005.7530377381481,"[55, 0, 199]",199,a,0.4656105013564229,colour,0.06
179,22,1,1,16,21,771,1006.264044567477,1006.9371137348935,"[91, 0, 163]",163,l,0.14971603685989976,colour,0.06
179,22,1,1,16,22,772,1007.4515293058939,1008.0890238904394,"[79, 0, 175]",175,l,0.11410679528489709,colour,0.06
179,22,1,1,16,23,773,1008.608301891014,1009.1770308697596,"[94, 0, 160]",160,l,0.04547273414209485,colour,0.06
179,22,1,1,16,24,774,1009.6863244664855,1010.2250261907466,"[59, 0, 195]",195,a,0.015243436675518751,colour,0.06
179,22,1,1,16,25,775,1010.733194174245,1011.3690275140107,"[63, 0, 191]",191,a,0.11234551388770342,colour,0.06
179,22,1,1,16,26,776,1011.8894716938958,1012.4489834820852,"[81, 0, 173]",173,l,0.03606255864724517,colour,0.06
179,22,1,1,16,27,777,1012.9687975076959,1013.5770044820383,"[87, 0, 167]",167,l,0.08624924207106233,colour,0.06
179,22,1,1,16,28,778,1014.0926527925767,1014.649096515961,"[60, 0, 194]",194,a,0.03323749732226133,colour,0.06
179,22,1,1,16,29,779,1015.1707754051313,1015.7851271727122,"[56, 0, 198]",198,a,0.09103408316150308,colour,0.06
179,22,1,1,16,30,780,1016.2957555158064,1016.9050030326471,"[36, 0, 218]",218,a,0.08585697086527944,colour,0.06
179,22,1,1,16,31,781,1017.4207242047414,1018.0171390199102,"[54, 0, 200]",200,a,0.07308492111042142,colour,0.06
179,22,1,1,16,32,782,1018.5315226893872,1019.1369971563108,"[95, 0, 159]",159,l,0.08199845626950264,colour,0.06
179,22,1,1,16,33,783,1019.6566217415966,1020.2730356901884,"[75, 0, 179]",179,a,0.09308523638173938,colour,0.06
179,22,1,1,16,34,784,1020.7815471077338,1021.8330059153959,"[90, 0, 164]",164,l,0.5279438057914376,colour,0.06
179,22,1,1,16,35,785,1022.344115932472,1023.0490453159437,"[89, 0, 165]",165,l,0.18229423509910703,colour,0.06
179,22,1,1,16,36,786,1023.5628709048033,1024.201088197995,"[58, 0, 196]",196,a,0.11484643956646323,colour,0.06
179,22,1,1,16,37,787,1024.7191657540388,1025.2810713411309,"[78, 0, 176]",176,l,0.03857136098667979,colour,0.06
179,22,1,1,16,38,788,1025.7992111253552,1026.4010732318275,"[57, 0, 197]",197,a,0.07854520995169878,colour,0.06
179,22,1,1,16,39,789,1026.9085618299432,1027.497025277,"[69, 0, 185]",185,a,0.06512016244232655,colour,0.06
179,22,1,1,16,40,790,1028.0179089899175,1028.5930458516814,"[97, 0, 157]",157,l,0.05180066637694836,colour,0.06
179,22,1,1,16,41,791,1029.1116996053606,1029.7610517274588,"[68, 0, 186]",186,a,0.12607461027801037,colour,0.06
179,22,1,1,16,42,792,1030.2679735803977,1030.8331642416306,"[85, 0, 169]",169,l,0.04183713626116514,colour,0.06
179,22,1,1,16,43,793,1031.34607492527,1032.001037391834,"[76, 0, 178]",178,l,0.13196340389549732,colour,0.06
179,22,1,1,16,44,794,1032.5179058387876,1033.073034902569,"[52, 0, 202]",202,a,0.031749151181429625,colour,0.06
179,22,1,1,16,45,795,1033.580394318793,1034.1930155251175,"[8, 0, 246]",246,a,0.08928658626973629,colour,0.06
179,22,1,1,16,46,796,1034.7054319311865,1035.3130662525073,"[53, 0, 201]",201,a,0.08420872269198298,colour,0.06
179,22,1,1,16,47,797,1035.8304163743742,1036.3770312634297,"[86, 0, 168]",168,l,0.023270817007869482,colour,0.06
179,22,1,1,16,48,798,1036.8928642882966,1037.4890683954582,"[64, 0, 190]",190,a,0.07281001657247543,colour,0.06
179,22,1,1,16,49,799,1038.0022984882817,1038.5450446228497,"[62, 0, 192]",192,a,0.019457594957202673,colour,0.06
179,22,1,1,16,50,800,1039.064780273009,1039.6730794073083,"[71, 0, 183]",183,l,0.08492316072806716,colour,0.06
