id,age,condition,counterbalance,block,trialinblock,trial,tstart,tend,trialstim,trialintensity,response,RT,trialtype,colourfreq
038,65,0,1,Practice,1,NA,5.907611921429634e-06,1.6061349355150014,"[25, 0, 229]",229,a,0.9681398468092084,colour,0.5
038,65,0,1,Practice,2,NA,2.114362964173779,3.5341143293771893,"[87, 0, 167]",167,l,0.8962468467652798,colour,0.5
038,65,0,1,Practice,3,NA,4.051798201166093,4.622082931920886,"[33, 0, 221]",221,a,0.04689285228960216,colour,0.5
038,65,0,1,Practice,4,NA,5.129902148852125,5.76609499938786,"[43, 0, 211]",211,a,0.11282775341533124,colour,0.5
038,65,0,1,Practice,5,NA,6.286785883596167,6.822086870437488,"[18, 0, 236]",236,a,0.011895717587321997,colour,0.5
038,65,0,1,Practice,6,NA,7.335704678669572,8.078051172196865,"[79, 0, 175]",175,l,0.21947961137630045,colour,0.5
038,65,0,1,Practice,7,NA,8.575914755929261,9.702083640964702,"[68, 0, 186]",186,a,0.6027395911514759,colour,0.5
038,65,0,1,Practice,8,NA,10.216489928308874,11.054075023625046,"[52, 0, 202]",202,a,0.31411720463074744,colour,0.5
038,65,0,1,Practice,9,NA,11.560305072925985,12.326081057311967,"[93, 0, 161]",161,l,0.2424746905453503,colour,0.5
038,65,0,1,Practice,10,NA,12.829076057532802,13.622114833444357,"[4, 0, 250]",250,a,0.2697205466683954,colour,0.5
038,65,0,1,1,1,1,5.102725215721875,6.207970650400966,"[7, 0, 247]",247,a,0.5810938277281821,colour,0.5
038,65,0,1,1,2,2,6.72851147945039,7.25595051702112,"[49, 0, 205]",205,a,0.002725018886849284,colour,0.5
038,65,0,1,1,3,3,7.778628746978939,9.016027159523219,"[92, 0, 162]",162,l,0.714034890756011,colour,0.5
038,65,0,1,1,4,4,9.529316894011572,10.288030830211937,"[97, 0, 157]",157,l,0.23540358361788094,colour,0.5
038,65,0,1,1,5,5,10.797517589991912,11.37597186351195,"[77, 0, 177]",177,a,0.055021435022354126,colour,0.5
038,65,0,1,1,6,6,11.891249731648713,12.6239733917173,"[52, 0, 202]",202,a,0.2085586623288691,colour,0.5
038,65,0,1,1,7,7,13.142051503062248,16.904004032956436,"[31, 0, 223]",223,a,3.238680774345994,colour,0.5
038,65,0,1,1,8,8,17.423327484633774,18.12797703081742,"[3, 0, 251]",251,a,0.18136282451450825,colour,0.5
038,65,0,1,1,9,9,18.62984760128893,19.199964947532862,"[27, 0, 227]",227,a,0.04699879675172269,colour,0.5
038,65,0,1,1,10,10,19.707782195415348,20.711964443558827,"[74, 0, 180]",180,l,0.4809089172631502,colour,0.5
038,65,0,1,1,11,11,21.223374746041372,21.80798325361684,"[58, 0, 196]",196,a,0.061215841211378574,colour,0.5
038,65,0,1,1,12,12,22.317152180010453,23.023976542521268,"[34, 0, 220]",220,a,0.18362901313230395,colour,0.5
038,65,0,1,1,13,13,23.535907509038225,24.087937882635742,"[93, 0, 161]",161,l,0.028675910318270326,colour,0.5
038,65,0,1,1,14,14,24.58902745693922,25.16791535448283,"[43, 0, 211]",211,a,0.05558896670117974,colour,0.5
038,65,0,1,1,15,15,25.68277929071337,26.35197365959175,"[67, 0, 187]",187,a,0.1458013087976724,colour,0.5
038,65,0,1,1,16,16,26.866015639388934,27.52796009532176,"[8, 0, 246]",246,a,0.13852894655428827,colour,0.5
038,65,0,1,1,17,17,28.037939950125292,28.671938685933128,"[18, 0, 236]",236,a,0.12316147866658866,colour,0.5
038,65,0,1,1,18,18,29.181820079218596,29.95994824846275,"[76, 0, 178]",178,l,0.25487137981690466,colour,0.5
038,65,0,1,1,19,19,30.47925909725018,31.119949666317552,"[61, 0, 193]",193,a,0.11730538588017225,colour,0.5
038,65,0,1,1,20,20,31.635501651093364,32.28794339648448,"[51, 0, 203]",203,a,0.12904080841690302,colour,0.5
038,65,0,1,1,21,21,32.80740823876113,33.551924428669736,"[15, 0, 239]",239,a,0.22122198506258428,colour,0.5
038,65,0,1,1,22,22,34.07296977424994,34.67200209503062,"[26, 0, 228]",228,a,0.07565107615664601,colour,0.5
038,65,0,1,1,23,23,35.18235728493892,35.98392872954719,"[68, 0, 186]",186,l,0.278214224614203,colour,0.5
038,65,0,1,1,24,24,36.49480182654224,37.271965861320496,"[73, 0, 181]",181,l,0.2536232825368643,colour,0.5
038,65,0,1,1,25,25,37.79172411886975,44.00796119822189,"[69, 0, 185]",185,l,5.693246529670432,colour,0.5
038,65,0,1,1,26,26,44.52609011577442,45.14390730438754,"[82, 0, 172]",172,l,0.09469036827795208,colour,0.5
038,65,0,1,1,27,27,45.64650097559206,51.511979803442955,"[85, 0, 169]",169,l,5.342876216163859,colour,0.5
038,65,0,1,1,28,28,52.02140630502254,52.59200926311314,"[99, 0, 155]",155,l,0.04712758422829211,colour,0.5
038,65,0,1,1,29,29,53.087174215586856,53.68793709482998,"[20, 0, 234]",234,a,0.07741432380862534,colour,0.5
038,65,0,1,1,30,30,54.196483351057395,54.78393581882119,"[96, 0, 158]",158,l,0.06398536474443972,colour,0.5
038,65,0,1,1,31,31,55.290315529331565,56.39191237697378,"[70, 0, 184]",184,l,0.5785901502240449,colour,0.5
038,65,0,1,1,32,32,56.88728488632478,57.44794245110825,"[10, 0, 244]",244,a,0.03738896013237536,colour,0.5
038,65,0,1,1,33,33,57.96522026788443,58.54394432576373,"[46, 0, 208]",208,a,0.05825569643639028,colour,0.5
038,65,0,1,1,34,34,59.057954404270276,61.567993729840964,"[30, 0, 224]",224,a,1.9867510283365846,colour,0.5
038,65,0,1,1,35,35,62.089188342913985,63.47192056896165,"[36, 0, 218]",218,a,0.8627731073647738,colour,0.5
038,65,0,1,1,36,36,63.99238932435401,64.9759466573596,"[35, 0, 219]",219,a,0.46026076516136527,colour,0.5
038,65,0,1,1,37,37,65.49253918253817,66.24004978197627,"[29, 0, 225]",225,a,0.22443852364085615,colour,0.5
038,65,0,1,1,38,38,66.75817042868584,67.52791204629466,"[45, 0, 209]",209,a,0.24645922821946442,colour,0.5
038,65,0,1,1,39,39,68.03945704409853,68.68790479958989,"[16, 0, 238]",238,a,0.12516733538359404,colour,0.5
038,65,0,1,1,40,40,69.19562122272328,69.93594846921042,"[91, 0, 163]",163,l,0.21694403258152306,colour,0.5
038,65,0,1,1,41,41,70.44566090265289,71.08791464567184,"[95, 0, 159]",159,l,0.11898238142021,colour,0.5
038,65,0,1,1,42,42,71.60190266883001,72.26388690317981,"[78, 0, 176]",176,l,0.1386337096337229,colour,0.5
038,65,0,1,1,43,43,72.7738340687938,73.44810786633752,"[79, 0, 175]",175,l,0.15100794984027743,colour,0.5
038,65,0,1,1,44,44,73.96122903493233,74.61595154111274,"[4, 0, 250]",250,a,0.13119908305816352,colour,0.5
038,65,0,1,1,45,45,75.13308442267589,76.51992958015762,"[65, 0, 189]",189,a,0.8634643065743148,colour,0.5
038,65,0,1,1,46,46,77.03943735174835,77.81592042720877,"[1, 0, 253]",253,a,0.25317705515772104,colour,0.5
038,65,0,1,1,47,47,78.3362442473881,78.91992564173415,"[47, 0, 207]",207,a,0.06031354051083326,colour,0.5
038,65,0,1,1,48,48,79.42999411188066,80.04793851263821,"[39, 0, 215]",215,a,0.09445406077429652,colour,0.5
038,65,0,1,1,49,49,80.54567212727852,81.3998912984971,"[84, 0, 170]",170,l,0.33095253561623394,colour,0.5
038,65,0,1,1,50,50,81.9206845825538,82.53590514604002,"[19, 0, 235]",235,a,0.09186334325931966,colour,0.5
038,65,0,1,2,1,51,88.37298966338858,89.54390927357599,"[15, 0, 239]",239,a,0.6474371470976621,colour,0.5
038,65,0,1,2,2,52,90.06132769328542,90.71992800477892,"[13, 0, 241]",241,a,0.13540496188215911,colour,0.5
038,65,0,1,2,3,53,91.23312951810658,92.0239359762054,"[83, 0, 171]",171,l,0.26779739768244326,colour,0.5
038,65,0,1,2,4,54,92.53000730578788,93.68788235029206,"[49, 0, 205]",205,a,0.6348549565300345,colour,0.5
038,65,0,1,2,5,55,94.20188888418488,96.74390848586336,"[96, 0, 158]",158,l,2.018734455341473,colour,0.5
038,65,0,1,2,6,56,97.26536106783897,98.03189796232618,"[46, 0, 208]",208,a,0.24317612987942994,colour,0.5
038,65,0,1,2,7,57,98.54662326467223,99.24796293117106,"[28, 0, 226]",226,a,0.17794148647226393,colour,0.5
038,65,0,1,2,8,58,99.76536441547796,100.48791819019243,"[88, 0, 166]",166,l,0.19922057911753654,colour,0.5
038,65,0,1,2,9,59,100.98729414166883,103.39989287382923,"[14, 0, 240]",240,a,1.8891962198540568,colour,0.5
038,65,0,1,2,10,60,103.91218736022711,104.56785430852324,"[27, 0, 227]",227,a,0.13228924828581512,colour,0.5
038,65,0,1,2,11,61,105.08400572650135,106.03986231144518,"[19, 0, 235]",235,a,0.43237215280532837,colour,0.5
038,65,0,1,2,12,62,106.5529224339407,107.5359216874931,"[18, 0, 236]",236,a,0.45972159039229155,colour,0.5
038,65,0,1,2,13,63,108.05296044005081,109.00788282300346,"[74, 0, 180]",180,l,0.4320299008395523,colour,0.5
038,65,0,1,2,14,64,109.52160618174821,110.31191521277651,"[5, 0, 249]",249,a,0.2669545679818839,colour,0.5
038,65,0,1,2,15,65,110.81854107696563,111.73588505992666,"[76, 0, 178]",178,l,0.39403520594350994,colour,0.5
038,65,0,1,2,16,66,112.25740065728314,113.7998751506675,"[70, 0, 184]",184,l,1.019168473314494,colour,0.5
038,65,0,1,2,17,67,114.32148054498248,115.02385878260247,"[17, 0, 237]",237,a,0.17905252519994974,colour,0.5
038,65,0,1,2,18,68,115.54016616335139,116.35987184243277,"[20, 0, 234]",234,a,0.29648039722815156,colour,0.5
038,65,0,1,2,19,69,116.8682704064995,117.68786265794188,"[53, 0, 201]",201,a,0.2961905268020928,colour,0.5
038,65,0,1,2,20,70,118.19643018185161,120.37587655289099,"[61, 0, 193]",193,a,1.6560158955398947,colour,0.5
038,65,0,1,2,21,71,120.88387930183671,123.45590286166407,"[66, 0, 188]",188,a,2.0486584627069533,colour,0.5
038,65,0,1,2,22,72,123.96224476327188,124.50383940525353,"[91, 0, 163]",163,l,0.018365028081461787,colour,0.5
038,65,0,1,2,23,73,125.02461378485896,125.71986065735109,"[26, 0, 228]",228,a,0.17181285237893462,colour,0.5
038,65,0,1,2,24,74,126.22780748014338,126.95186338271014,"[84, 0, 170]",170,l,0.20124770351685584,colour,0.5
038,65,0,1,2,25,75,127.4625084430445,128.20783556136303,"[92, 0, 162]",162,l,0.2192444857209921,colour,0.5
038,65,0,1,2,26,76,128.71532119088806,129.46383491554298,"[98, 0, 156]",156,l,0.2252923813648522,colour,0.5
038,65,0,1,2,27,77,129.98085712641478,130.71186873898841,"[39, 0, 215]",215,a,0.20761737087741494,colour,0.5
038,65,0,1,2,28,78,131.23078613565303,131.8639046261087,"[50, 0, 204]",204,a,0.12033012136816978,colour,0.5
038,65,0,1,2,29,79,132.3767410442233,133.16787400073372,"[81, 0, 173]",173,l,0.2679769915994257,colour,0.5
038,65,0,1,2,30,80,133.67547108861618,134.35185826267116,"[38, 0, 216]",216,a,0.15306618786416948,colour,0.5
038,65,0,1,2,31,81,134.86301532248035,135.51189394504763,"[80, 0, 174]",174,l,0.12843979964964092,colour,0.5
038,65,0,1,2,32,82,136.0320369899273,136.70385003928095,"[8, 0, 246]",246,a,0.14840778009966016,colour,0.5
038,65,0,1,2,33,83,137.22186789219268,139.0158901012037,"[65, 0, 189]",189,a,1.2706905889790505,colour,0.5
038,65,0,1,2,34,84,139.53437741845846,140.16783658531494,"[95, 0, 159]",159,l,0.11009682691656053,colour,0.5
038,65,0,1,2,35,85,140.67499807989225,141.38381805899553,"[11, 0, 243]",243,a,0.18552577425725758,colour,0.5
038,65,0,1,2,36,86,141.89551468729042,142.5518929210957,"[86, 0, 168]",168,l,0.13204545760527253,colour,0.5
038,65,0,1,2,37,87,143.06841691723093,143.7038307406474,"[48, 0, 206]",206,a,0.12491172924637794,colour,0.5
038,65,0,1,2,38,88,144.21221867087297,144.88781185192056,"[24, 0, 230]",230,a,0.15236789919435978,colour,0.5
038,65,0,1,2,39,89,145.3996577479411,146.1438356244471,"[58, 0, 196]",196,a,0.219140904257074,colour,0.5
038,65,0,1,2,40,90,146.65136024472304,147.23187905782834,"[87, 0, 167]",167,l,0.057141506811603904,colour,0.5
038,65,0,1,2,41,91,147.74521093373187,148.41586647043005,"[9, 0, 245]",245,a,0.14725932572036982,colour,0.5
038,65,0,1,2,42,92,148.93258699541911,149.53586418600753,"[51, 0, 203]",203,a,0.07991445669904351,colour,0.5
038,65,0,1,2,43,93,150.04200168163516,151.5918351833243,"[64, 0, 190]",190,a,1.0268846997059882,colour,0.5
038,65,0,1,2,44,94,152.09214021684602,152.75187480426393,"[43, 0, 211]",211,a,0.13655617320910096,colour,0.5
038,65,0,1,2,45,95,153.26401214604266,153.87988728121854,"[59, 0, 195]",195,a,0.09255887498147786,colour,0.5
038,65,0,1,2,46,96,154.3889565647114,155.01586765190586,"[40, 0, 214]",214,a,0.10360191646032035,colour,0.5
038,65,0,1,2,47,97,155.5295228753239,156.13584488769993,"[41, 0, 213]",213,a,0.08295218902640045,colour,0.5
038,65,0,1,2,48,98,156.6545992323663,158.87979984749109,"[67, 0, 187]",187,l,1.7018662381451577,colour,0.5
038,65,0,1,2,49,99,159.381999673089,160.08784651034512,"[3, 0, 251]",251,a,0.1826530632097274,colour,0.5
038,65,0,1,2,50,100,160.60063724243082,161.15186298871413,"[1, 0, 253]",253,a,0.027852772502228618,colour,0.5
038,65,0,1,3,1,101,169.55426466022618,170.97583559295163,"[9, 0, 245]",245,a,0.8974630425218493,colour,0.5
038,65,0,1,3,2,102,171.4925714780111,172.08788707642816,"[12, 0, 242]",242,a,0.08495962107554078,colour,0.5
038,65,0,1,3,3,103,172.60507627786137,174.29579865024425,"[59, 0, 195]",195,l,1.167378936894238,colour,0.5
038,65,0,1,3,4,104,174.80819002259523,175.3917800448835,"[89, 0, 165]",165,l,0.060335202142596245,colour,0.5
038,65,0,1,3,5,105,175.90190916717984,176.44790582358837,"[21, 0, 233]",233,a,0.02173477248288691,colour,0.5
038,65,0,1,3,6,106,176.96540813241154,177.70379135617986,"[44, 0, 210]",210,a,0.21500000986270607,colour,0.5
038,65,0,1,3,7,107,178.21541906171478,178.83985600993037,"[5, 0, 249]",249,a,0.1010596421547234,colour,0.5
038,65,0,1,3,8,108,179.3560290893074,180.071818562923,"[50, 0, 204]",204,a,0.192553557921201,colour,0.5
038,65,0,1,3,9,109,180.59039804013446,181.2397819668986,"[93, 0, 161]",161,l,0.12608578358776867,colour,0.5
038,65,0,1,3,10,110,181.7476512021385,182.34383050445467,"[86, 0, 168]",168,l,0.07106828689575195,colour,0.5
038,65,0,1,3,11,111,182.8587621820625,183.46379868173972,"[16, 0, 238]",238,a,0.08179152570664883,colour,0.5
038,65,0,1,3,12,112,183.98379836650565,184.72773836017586,"[51, 0, 203]",203,a,0.22062767180614173,colour,0.5
038,65,0,1,3,13,113,185.233770305058,185.9198582940735,"[75, 0, 179]",179,l,0.1627870888914913,colour,0.5
038,65,0,1,3,14,114,186.43688759440556,187.07985419826582,"[84, 0, 170]",170,l,0.11982206045649946,colour,0.5
038,65,0,1,3,15,115,187.5931632311549,188.19184424169362,"[53, 0, 201]",201,a,0.071904027601704,colour,0.5
038,65,0,1,3,16,116,188.69653159705922,189.34378048591316,"[1, 0, 253]",253,a,0.12383692408911884,colour,0.5
038,65,0,1,3,17,117,189.85281038470566,190.53582440759055,"[42, 0, 212]",212,a,0.1595764581579715,colour,0.5
038,65,0,1,3,18,118,191.0559595755767,191.63983434834518,"[40, 0, 214]",214,a,0.06080742320045829,colour,0.5
038,65,0,1,3,19,119,192.1466047540307,192.8717823291663,"[90, 0, 164]",164,l,0.2017829397227615,colour,0.5
038,65,0,1,3,20,120,193.38092053565197,194.07180359680206,"[19, 0, 235]",235,a,0.16748724435456097,colour,0.5
038,65,0,1,3,21,121,194.58413943694904,195.61580975656398,"[58, 0, 196]",196,a,0.5087293945252895,colour,0.5
038,65,0,1,3,22,122,196.13377247122116,196.79980662162416,"[18, 0, 236]",236,a,0.14272143482230604,colour,0.5
038,65,0,1,3,23,123,197.3212119420059,197.91980158048682,"[3, 0, 251]",251,a,0.07512489845976233,colour,0.5
038,65,0,1,3,24,124,198.43061756971292,199.02379616117105,"[4, 0, 250]",250,a,0.06972487922757864,colour,0.5
038,65,0,1,3,25,125,199.5400137451943,200.21582472277805,"[95, 0, 159]",159,l,0.15239231777377427,colour,0.5
038,65,0,1,3,26,126,200.7274862988852,201.31983545119874,"[34, 0, 220]",220,a,0.06938814092427492,colour,0.5
038,65,0,1,3,27,127,201.8369525789749,202.53577202628367,"[32, 0, 222]",222,a,0.17550003645010293,colour,0.5
038,65,0,1,3,28,128,203.05563425901346,203.7118041482754,"[0, 0, 254]",254,a,0.13319391198456287,colour,0.5
038,65,0,1,3,29,129,204.2274494743906,204.81579597201198,"[43, 0, 211]",211,a,0.06480653304606676,colour,0.5
038,65,0,1,3,30,130,205.33691220963374,205.9837786743883,"[77, 0, 177]",177,l,0.12350885081104934,colour,0.5
038,65,0,1,3,31,131,206.4932355019264,207.15179721661843,"[80, 0, 174]",174,l,0.1353797558695078,colour,0.5
038,65,0,1,3,32,132,207.66517911106348,208.49578486545943,"[70, 0, 184]",184,l,0.3072942204307765,colour,0.5
038,65,0,1,3,33,133,209.00889264349826,209.77574067609385,"[91, 0, 163]",163,l,0.24362747697159648,colour,0.5
038,65,0,1,3,34,134,210.29010482202284,210.919788189698,"[2, 0, 252]",252,a,0.10629148920997977,colour,0.5
038,65,0,1,3,35,135,211.43073454196565,212.22380718868226,"[74, 0, 180]",180,l,0.26958073140121996,colour,0.5
038,65,0,1,3,36,136,212.7433027510997,213.85577919427305,"[64, 0, 190]",190,a,0.5893039368093014,colour,0.5
038,65,0,1,3,37,137,214.36825288040563,214.98379167122766,"[52, 0, 202]",202,a,0.09619052684865892,colour,0.5
038,65,0,1,3,38,138,215.49647960951552,216.19976763078012,"[87, 0, 167]",167,l,0.17987526883371174,colour,0.5
038,65,0,1,3,39,139,216.7153337940108,217.3037559101358,"[10, 0, 244]",244,a,0.06519013899378479,colour,0.5
038,65,0,1,3,40,140,217.82465238170698,218.43175105773844,"[83, 0, 171]",171,l,0.08369222516193986,colour,0.5
038,65,0,1,3,41,141,218.93878494622186,219.5437505536247,"[8, 0, 246]",246,a,0.08158711949363351,colour,0.5
038,65,0,1,3,42,142,220.06378883542493,221.64778766967356,"[67, 0, 187]",187,a,1.0605529986787587,colour,0.5
038,65,0,1,3,43,143,222.15749695245177,222.78377000964247,"[97, 0, 157]",157,l,0.1029138679150492,colour,0.5
038,65,0,1,3,44,144,223.29666314157657,224.30379805155098,"[22, 0, 232]",232,a,0.48370049614459276,colour,0.5
038,65,0,1,3,45,145,224.81231161858886,226.59978338470683,"[72, 0, 182]",182,l,1.2639369217213243,colour,0.5
038,65,0,1,3,46,146,227.11235238146037,227.79177453112788,"[14, 0, 240]",240,a,0.15618229540996253,colour,0.5
038,65,0,1,3,47,147,228.2997938215267,228.86382664483972,"[30, 0, 224]",224,a,0.04085440910421312,colour,0.5
038,65,0,1,3,48,148,229.3778761078138,229.9357802970335,"[29, 0, 225]",225,a,0.034597381483763456,colour,0.5
038,65,0,1,3,49,149,230.4423136075493,231.19176310952753,"[49, 0, 205]",205,a,0.22628605412319303,colour,0.5
038,65,0,1,3,50,150,231.7079428844154,232.3597454179544,"[94, 0, 160]",160,l,0.12851620581932366,colour,0.5
038,65,0,1,4,1,151,241.9603097990621,244.32772930175997,"[64, 0, 190]",190,a,1.8433005849365145,colour,0.5
038,65,0,1,4,2,152,244.83618576126173,245.77577494061552,"[81, 0, 173]",173,l,0.41632254398427904,colour,0.5
038,65,0,1,4,3,153,246.28925569052808,246.81623707921244,"[86, 0, 168]",168,l,0.003593448782339692,colour,0.5
038,65,0,1,4,4,154,247.332404644927,248.15172317367978,"[73, 0, 181]",181,l,0.2957407550420612,colour,0.5
038,65,0,1,4,5,155,248.66221424005926,250.75173301971518,"[29, 0, 225]",225,a,1.5631277654320002,colour,0.5
038,65,0,1,4,6,156,251.24651830480434,251.93578935530968,"[95, 0, 159]",159,l,0.1658594796899706,colour,0.5
038,65,0,1,4,7,157,252.44967694790103,253.11177815450355,"[52, 0, 202]",202,a,0.1386636421084404,colour,0.5
038,65,0,1,4,8,158,253.62154336320236,254.4397650314495,"[71, 0, 183]",183,a,0.294801038922742,colour,0.5
038,65,0,1,4,9,159,254.94967753859237,255.59971485566348,"[21, 0, 233]",233,a,0.12665449688211083,colour,0.5
038,65,0,1,4,10,160,256.0965926432982,256.6637600848917,"[77, 0, 177]",177,l,0.04382282472215593,colour,0.5
038,65,0,1,4,11,161,257.17468556319363,257.71974014048465,"[2, 0, 252]",252,a,0.02173398481681943,colour,0.5
038,65,0,1,4,12,162,258.237173526315,259.0157435904257,"[65, 0, 189]",189,a,0.25530736707150936,colour,0.5
038,65,0,1,4,13,163,259.5340394987725,260.14372416608967,"[45, 0, 209]",209,a,0.08457837835885584,colour,0.5
038,65,0,1,4,14,164,260.6607707955409,261.2077406444587,"[38, 0, 216]",216,a,0.023652013624086976,colour,0.5
038,65,0,1,4,15,165,261.72318944172,262.4557283881586,"[78, 0, 176]",176,l,0.2091754248831421,colour,0.5
038,65,0,1,4,16,166,262.9732366045937,263.5837629204616,"[66, 0, 188]",188,l,0.0871612187474966,colour,0.5
038,65,0,1,4,17,167,264.098284998443,264.6637277894188,"[9, 0, 245]",245,a,0.04218363855034113,colour,0.5
038,65,0,1,4,18,168,265.1763566508889,265.7597532949876,"[57, 0, 197]",197,a,0.06029542372561991,colour,0.5
038,65,0,1,4,19,169,266.27017189376056,268.1917426295113,"[34, 0, 220]",220,a,1.3983056754805148,colour,0.5
038,65,0,1,4,20,170,268.7075758201536,269.4157069628127,"[88, 0, 166]",166,l,0.1847861318383366,colour,0.5
038,65,0,1,4,21,171,269.9263394200243,270.5277147295419,"[12, 0, 242]",242,a,0.07819807692430913,colour,0.5
038,65,0,1,4,22,172,271.0356654908974,271.58375031733885,"[8, 0, 246]",246,a,0.024572037160396576,colour,0.5
038,65,0,1,4,23,173,272.09827593993396,272.74374149530195,"[90, 0, 164]",164,l,0.1205577643122524,colour,0.5
038,65,0,1,4,24,174,273.25638138432987,273.79975108942017,"[63, 0, 191]",191,a,0.02041184459812939,colour,0.5
038,65,0,1,4,25,175,274.318800030509,274.9596985504031,"[25, 0, 229]",229,a,0.11755508440546691,colour,0.5
038,65,0,1,4,26,176,275.4750713352114,276.0717815414537,"[35, 0, 219]",219,a,0.07342821080237627,colour,0.5
038,65,0,1,4,27,177,276.5844257629942,277.20777609059587,"[82, 0, 172]",172,l,0.09991906466893852,colour,0.5
038,65,0,1,4,28,178,277.7251196797006,278.42374535487033,"[10, 0, 244]",244,a,0.1753295010421425,colour,0.5
038,65,0,1,4,29,179,278.94376355060376,279.79165992187336,"[87, 0, 167]",167,l,0.3245419079903513,colour,0.5
038,65,0,1,4,30,180,280.29075781814754,280.9197027250193,"[30, 0, 224]",224,a,0.10565345897339284,colour,0.5
038,65,0,1,4,31,181,281.43137414753437,282.1437044737395,"[83, 0, 171]",171,l,0.1889963431749493,colour,0.5
038,65,0,1,4,32,182,282.650143655017,283.23975479160435,"[23, 0, 231]",231,a,0.06635355926118791,colour,0.5
038,65,0,1,4,33,183,283.74710336280987,284.3997794461902,"[96, 0, 158]",158,l,0.12928459886461496,colour,0.5
038,65,0,1,4,34,184,284.9189685964957,285.5436591815669,"[98, 0, 156]",156,l,0.1012360849417746,colour,0.5
038,65,0,1,4,35,185,286.0472118672915,286.7197338389233,"[4, 0, 250]",250,a,0.1616260316222906,colour,0.5
038,65,0,1,4,36,186,287.23803998716176,287.847756162053,"[27, 0, 227]",227,a,0.09892105939798057,colour,0.5
038,65,0,1,4,37,187,288.3662033069413,288.9276993696112,"[32, 0, 222]",222,a,0.038052590331062675,colour,0.5
038,65,0,1,4,38,188,289.44428835017607,290.0157904580701,"[20, 0, 234]",234,a,0.04811456170864403,colour,0.5
038,65,0,1,4,39,189,290.5243930344004,291.1117088375613,"[13, 0, 241]",241,a,0.0639483432751149,colour,0.5
038,65,0,1,4,40,190,291.6181476251222,292.1917379035149,"[28, 0, 226]",226,a,0.050186584470793605,colour,0.5
038,65,0,1,4,41,191,292.71189040038735,293.3517097828444,"[51, 0, 203]",203,a,0.11653581145219505,colour,0.5
038,65,0,1,4,42,192,293.8682215695735,294.4958120409865,"[89, 0, 165]",165,l,0.10429862956516445,colour,0.5
038,65,0,1,4,43,193,295.0087740959134,295.65568545879796,"[94, 0, 160]",160,l,0.12370577338151634,colour,0.5
038,65,0,1,4,44,194,296.16501783113927,298.4316770147998,"[72, 0, 182]",182,a,1.7433358342386782,colour,0.5
038,65,0,1,4,45,195,298.9462806188967,299.703704316169,"[17, 0, 237]",237,a,0.23410231713205576,colour,0.5
038,65,0,1,4,46,196,300.21186027117074,300.8156856952701,"[15, 0, 239]",239,a,0.08050522534176707,colour,0.5
038,65,0,1,4,47,197,301.3369968866464,301.87167165847495,"[1, 0, 253]",253,a,0.011003656778484583,colour,0.5
038,65,0,1,4,48,198,302.38117299065925,303.0957332716789,"[39, 0, 215]",215,a,0.1911664332728833,colour,0.5
038,65,0,1,4,49,199,303.6169641185552,304.1996983140707,"[55, 0, 199]",199,a,0.059301357017830014,colour,0.5
038,65,0,1,4,50,200,304.71070728776976,305.3276840094477,"[22, 0, 232]",232,a,0.09364037541672587,colour,0.5
038,65,0,1,5,1,201,316.97549688559957,317.92769109876826,"[19, 0, 235]",235,a,0.42816154775209725,colour,0.5
038,65,0,1,5,2,202,318.44522452144884,319.45572602492757,"[87, 0, 167]",167,l,0.48721438786014915,colour,0.5
038,65,0,1,5,3,203,319.97634641081095,320.5756370946765,"[91, 0, 163]",163,l,0.07619300810620189,colour,0.5
038,65,0,1,5,4,204,321.08580166311003,321.64764194679447,"[51, 0, 203]",203,a,0.03857207274995744,colour,0.5
038,65,0,1,5,5,205,322.1639024601318,322.76765620405786,"[93, 0, 161]",161,l,0.08046032697893679,colour,0.5
038,65,0,1,5,6,206,323.28888862626627,323.856187612284,"[96, 0, 158]",158,l,0.0440154152456671,colour,0.5
038,65,0,1,5,7,207,324.3688684613444,324.9677038593218,"[47, 0, 207]",207,a,0.07544391346164048,colour,0.5
038,65,0,1,5,8,208,325.47826778749004,327.23166165477596,"[29, 0, 225]",225,a,1.229904314968735,colour,0.5
038,65,0,1,5,9,209,327.74401718727313,328.34365996927954,"[9, 0, 245]",245,a,0.07523202453739941,colour,0.5
038,65,0,1,5,10,210,328.8466443354264,329.41569160297513,"[15, 0, 239]",239,a,0.04573927819728851,colour,0.5
038,65,0,1,5,11,211,329.9247778216377,330.4956942810677,"[39, 0, 215]",215,a,0.047589171677827835,colour,0.5
038,65,0,1,5,12,212,331.0028585323598,331.6396677515004,"[71, 0, 183]",183,l,0.11345948209054768,colour,0.5
038,65,0,1,5,13,213,332.1594768152572,332.8956178750377,"[80, 0, 174]",174,l,0.21290593198500574,colour,0.5
038,65,0,1,5,14,214,333.40948301833123,335.5197401405312,"[54, 0, 200]",200,a,1.5871582650579512,colour,0.5
038,65,0,1,5,15,215,336.0343980952166,338.98367469897494,"[72, 0, 182]",182,a,2.426571198506281,colour,0.5
038,65,0,1,5,16,216,339.50324784894474,340.079694296699,"[42, 0, 212]",212,a,0.05316327069886029,colour,0.5
038,65,0,1,5,17,217,340.5968705015257,341.28766297828406,"[99, 0, 155]",155,l,0.16734624770469964,colour,0.5
038,65,0,1,5,18,218,341.8000429291278,342.43166953185573,"[50, 0, 204]",204,a,0.10682751331478357,colour,0.5
038,65,0,1,5,19,219,342.9329769026954,344.5516199860722,"[24, 0, 230]",230,a,1.0953981091734022,colour,0.5
038,65,0,1,5,20,220,345.0578752413858,345.58364594820887,"[55, 0, 199]",199,a,0.002321720588952303,colour,0.5
038,65,0,1,5,21,221,346.1047574598342,346.67165196617134,"[65, 0, 189]",189,a,0.04653248330578208,colour,0.5
038,65,0,1,5,22,222,347.1800910963211,347.71166669600643,"[27, 0, 227]",227,a,0.014547874918207526,colour,0.5
038,65,0,1,5,23,223,348.22057056427,348.7996801971458,"[44, 0, 210]",210,a,0.06264983373694122,colour,0.5
038,65,0,1,5,24,224,349.3044900384266,350.95166921662167,"[82, 0, 172]",172,l,1.1211642867419869,colour,0.5
038,65,0,1,5,25,225,351.4634060175158,354.5760652050376,"[67, 0, 187]",187,a,2.589308269089088,colour,0.5
038,65,0,1,5,26,226,355.07916260510683,355.7196152913384,"[13, 0, 241]",241,a,0.11775752087123692,colour,0.5
038,65,0,1,5,27,227,356.23540515895,357.9196377405897,"[41, 0, 213]",213,a,1.1608777246437967,colour,0.5
038,65,0,1,5,28,228,358.43848660821095,358.99966050474904,"[8, 0, 246]",246,a,0.037792651914060116,colour,0.5
038,65,0,1,5,29,229,359.5167276142165,360.68762398744,"[59, 0, 195]",195,a,0.6476218607276678,colour,0.5
038,65,0,1,5,30,230,361.2041810664814,361.82362523209304,"[46, 0, 208]",208,a,0.09608733933418989,colour,0.5
038,65,0,1,5,31,231,362.3448493834585,362.895630084211,"[95, 0, 159]",159,l,0.02745892689563334,colour,0.5
038,65,0,1,5,32,232,363.4072932358831,364.15168536431156,"[2, 0, 252]",252,a,0.2209088779054582,colour,0.5
038,65,0,1,5,33,233,364.6729615035001,365.29563087178394,"[86, 0, 168]",168,l,0.09921959461644292,colour,0.5
038,65,0,1,5,34,234,365.81553563987836,366.3836557944305,"[31, 0, 223]",223,a,0.044731032801792026,colour,0.5
038,65,0,1,5,35,235,366.8937687689904,367.7758025098592,"[68, 0, 186]",186,l,0.3587840406689793,colour,0.5
038,65,0,1,5,36,236,368.2843306490686,368.95158650912344,"[75, 0, 179]",179,l,0.15327650145627558,colour,0.5
038,65,0,1,5,37,237,369.4624997782521,370.1756071622949,"[56, 0, 198]",198,a,0.18970132688991725,colour,0.5
038,65,0,1,5,38,238,370.69686321518384,371.29559621354565,"[34, 0, 220]",220,a,0.07538798730820417,colour,0.5
038,65,0,1,5,39,239,371.80726290959865,372.3516081706621,"[26, 0, 228]",228,a,0.02099119173362851,colour,0.5
038,65,0,1,5,40,240,372.8697429958265,373.3998125293292,"[17, 0, 237]",237,a,0.006796202622354031,colour,0.5
038,65,0,1,5,41,241,373.91842745244503,374.72762138815597,"[73, 0, 181]",181,l,0.28578197094611824,colour,0.5
038,65,0,1,5,42,242,375.24663527705707,375.9676195764914,"[97, 0, 157]",157,l,0.19765701168216765,colour,0.5
038,65,0,1,5,43,243,376.48104124935344,377.4075858632568,"[6, 0, 248]",248,a,0.4032090553082526,colour,0.5
038,65,0,1,5,44,244,377.9215608893428,378.44764194684103,"[16, 0, 238]",238,a,0.0026915420312434435,colour,0.5
038,65,0,1,5,45,245,378.9684123878833,379.535631029401,"[18, 0, 236]",236,a,0.04383148904889822,colour,0.5
038,65,0,1,5,46,246,380.0484965920914,380.6157199598383,"[0, 0, 254]",254,a,0.044178467243909836,colour,0.5
038,65,0,1,5,47,247,381.1266021153424,381.6796344323084,"[43, 0, 211]",211,a,0.029894075356423855,colour,0.5
038,65,0,1,5,48,248,382.1891117398627,383.439630336361,"[64, 0, 190]",190,a,0.7271408964879811,colour,0.5
038,65,0,1,5,49,249,383.9547865060158,384.4955899119377,"[61, 0, 193]",193,a,0.017531256657093763,colour,0.5
038,65,0,1,5,50,250,385.0171945183538,385.5916083280463,"[28, 0, 226]",226,a,0.051058558747172356,colour,0.5
038,65,0,1,6,1,251,397.0432497789152,398.42361971805803,"[17, 0, 237]",237,a,0.8566216302569956,colour,0.5
038,65,0,1,6,2,252,398.9352080391254,400.5196385283489,"[2, 0, 252]",252,a,1.0611555830109864,colour,0.5
038,65,0,1,6,3,253,401.02881848230027,402.23960828082636,"[80, 0, 174]",174,l,0.6873526277486235,colour,0.5
038,65,0,1,6,4,254,402.7476212698966,404.5675758596044,"[85, 0, 169]",169,l,1.2965733450837433,colour,0.5
038,65,0,1,6,5,255,405.0758397283498,405.7595886674244,"[43, 0, 211]",211,a,0.1607032511383295,colour,0.5
038,65,0,1,6,6,256,406.26966462051496,407.43159982096404,"[67, 0, 187]",187,l,0.6386055494658649,colour,0.5
038,65,0,1,6,7,257,407.9415217805654,409.93557746638544,"[42, 0, 212]",212,a,1.4707815672736615,colour,0.5
038,65,0,1,6,8,258,410.45713993138634,410.9835797823034,"[8, 0, 246]",246,a,0.0030081940349191427,colour,0.5
038,65,0,1,6,9,259,411.50399733753875,412.23956692707725,"[68, 0, 186]",186,l,0.21218401263467968,colour,0.5
038,65,0,1,6,10,260,412.7540322912391,413.28764643659815,"[92, 0, 162]",162,l,0.010308912955224514,colour,0.5
038,65,0,1,6,11,261,413.8008959989529,414.5275843665004,"[4, 0, 250]",250,a,0.20336856273934245,colour,0.5
038,65,0,1,6,12,262,415.03524919599295,415.5595603105612,"[30, 0, 224]",224,a,0.013457709923386574,colour,0.5
038,65,0,1,6,13,263,416.0696898265742,416.6075677461922,"[21, 0, 233]",233,a,0.014604194788262248,colour,0.5
038,65,0,1,6,14,264,417.1185030709021,418.74356229556724,"[27, 0, 227]",227,a,1.1061489172279835,colour,0.5
038,65,0,1,6,15,265,419.2466400032863,421.41553524602205,"[19, 0, 235]",235,a,1.6455332965124398,colour,0.5
038,65,0,1,6,16,266,421.93421121547,423.06360097113065,"[75, 0, 179]",179,l,0.6061152431648225,colour,0.5
038,65,0,1,6,17,267,423.5767737335991,425.2315561042633,"[90, 0, 164]",164,l,1.1315322767477483,colour,0.5
038,65,0,1,6,18,268,425.74871104117483,426.4555578529835,"[24, 0, 230]",230,a,0.18363610235974193,colour,0.5
038,65,0,1,6,19,269,426.95806330279447,427.74353708932176,"[57, 0, 197]",197,a,0.26121938577853143,colour,0.5
038,65,0,1,6,20,270,428.24394294735976,428.84754978702404,"[99, 0, 155]",155,l,0.08012752747163177,colour,0.5
038,65,0,1,6,21,271,429.36913036881015,429.97552012256347,"[41, 0, 213]",213,a,0.08313572127372026,colour,0.5
038,65,0,1,6,22,272,430.49407399958,431.655558640603,"[76, 0, 178]",178,l,0.6382144608069211,colour,0.5
038,65,0,1,6,23,273,432.16666213725694,433.9275957881473,"[26, 0, 228]",228,a,1.2382818085607141,colour,0.5
038,65,0,1,6,24,274,434.447181541007,435.04751197760925,"[97, 0, 157]",157,l,0.07696376414969563,colour,0.5
038,65,0,1,6,25,275,435.55653715040535,437.2875743629411,"[70, 0, 184]",184,l,1.2077414323575795,colour,0.5
038,65,0,1,6,26,276,437.8065035750624,439.6155655721668,"[6, 0, 248]",248,a,1.285689023323357,colour,0.5
038,65,0,1,6,27,277,440.13468737504445,440.7595544026699,"[61, 0, 193]",193,a,0.10159960435703397,colour,0.5
038,65,0,1,6,28,278,441.2752611688338,441.88755467068404,"[95, 0, 159]",159,l,0.08910996769554913,colour,0.5
038,65,0,1,6,29,279,442.4002504858654,443.07954542315565,"[29, 0, 225]",225,a,0.15597080043517053,colour,0.5
038,65,0,1,6,30,280,443.58781165489927,444.1515526382718,"[54, 0, 200]",200,a,0.040472378488630056,colour,0.5
038,65,0,1,6,31,281,444.6658376213163,445.25552713288926,"[48, 0, 206]",206,a,0.06625588540919125,colour,0.5
038,65,0,1,6,32,282,445.77530705183744,446.34354575397447,"[28, 0, 226]",226,a,0.045097309397533536,colour,0.5
038,65,0,1,6,33,283,446.8465966801159,448.2235405552201,"[45, 0, 209]",209,a,0.8536122550722212,colour,0.5
038,65,0,1,6,34,284,448.7372556431219,449.3276241449639,"[38, 0, 216]",216,a,0.065974285826087,colour,0.5
038,65,0,1,6,35,285,449.84774355893023,451.2315092366189,"[5, 0, 249]",249,a,0.8603970359545201,colour,0.5
038,65,0,1,6,36,286,451.7300269980915,452.4475092208013,"[87, 0, 167]",167,l,0.19415335962548852,colour,0.5
038,65,0,1,6,37,287,452.9643380534835,453.6076784168836,"[16, 0, 238]",238,a,0.11987680499441922,colour,0.5
038,65,0,1,6,38,288,454.12054988741875,454.69554777047597,"[88, 0, 166]",166,l,0.05161821376532316,colour,0.5
038,65,0,1,6,39,289,455.21429699496366,455.7515223121736,"[32, 0, 222]",222,a,0.014442324172705412,colour,0.5
038,65,0,1,6,40,290,456.26122174877673,456.83953541936353,"[52, 0, 202]",202,a,0.05496157053858042,colour,0.5
038,65,0,1,6,41,291,457.3456610995345,457.91954400530085,"[23, 0, 231]",231,a,0.05047999951057136,colour,0.5
038,65,0,1,6,42,292,458.4393916656263,458.9755276055075,"[50, 0, 204]",204,a,0.01277359970845282,colour,0.5
038,65,0,1,6,43,293,459.48627112735994,460.1595587350894,"[72, 0, 182]",182,l,0.14989179093390703,colour,0.5
038,65,0,1,6,44,294,460.6738110287115,462.223708727397,"[81, 0, 173]",173,l,1.0276085883378983,colour,0.5
038,65,0,1,6,45,295,462.7362749672029,463.3515372783877,"[37, 0, 217]",217,a,0.091908635571599,colour,0.5
038,65,0,1,6,46,296,463.86128752096556,464.3999113845639,"[89, 0, 165]",165,l,0.015237892745062709,colour,0.5
038,65,0,1,6,47,297,464.9081457150169,465.47153775091283,"[59, 0, 195]",195,a,0.04006789904087782,colour,0.5
038,65,0,1,6,48,298,465.9862728996668,466.55158178298734,"[64, 0, 190]",190,l,0.04229430924169719,colour,0.5
038,65,0,1,6,49,299,467.06437684735283,467.59159572515637,"[58, 0, 196]",196,a,0.0037092394195497036,colour,0.5
038,65,0,1,6,50,300,468.1112314965576,469.51952194981277,"[33, 0, 221]",221,a,0.8848867593333125,colour,0.5
038,65,0,1,7,1,301,479.9614747946616,482.2074972479604,"[60, 0, 194]",194,a,1.7218574555590749,colour,0.5
038,65,0,1,7,2,302,482.72792504308745,483.3195160422474,"[50, 0, 204]",204,a,0.0682286589872092,colour,0.5
038,65,0,1,7,3,303,483.8372408740688,484.415536821587,"[98, 0, 156]",156,l,0.05495014903135598,colour,0.5
038,65,0,1,7,4,304,484.93279770296067,486.52748629893176,"[87, 0, 167]",167,l,1.0712478805799037,colour,0.5
038,65,0,1,7,5,305,487.0423080935143,488.5674746411387,"[79, 0, 175]",175,l,1.0022740655113012,colour,0.5
038,65,0,1,7,6,306,489.07346247532405,489.7114780440461,"[7, 0, 247]",247,a,0.11463038576766849,colour,0.5
038,65,0,1,7,7,307,490.229811367346,490.79956283117644,"[93, 0, 161]",161,l,0.04639503126963973,colour,0.5
038,65,0,1,7,8,308,491.3079192535952,491.88751252903603,"[94, 0, 160]",160,l,0.056279772194102407,colour,0.5
038,65,0,1,7,9,309,492.4016309152357,493.01549074146897,"[71, 0, 183]",183,l,0.09047818765975535,colour,0.5
038,65,0,1,7,10,310,493.52676989347674,494.0714644957334,"[28, 0, 226]",226,a,0.021667424822226167,colour,0.5
038,65,0,1,7,11,311,494.5891873582732,496.22363468422554,"[22, 0, 232]",232,a,1.1111944750882685,colour,0.5
038,65,0,1,7,12,312,496.72978753969073,497.2874609353021,"[6, 0, 248]",248,a,0.03272897703573108,colour,0.5
038,65,0,1,7,13,313,497.807840681402,498.39949627104215,"[86, 0, 168]",168,l,0.06828931113705039,colour,0.5
038,65,0,1,7,14,314,498.91719904751517,500.58349116682075,"[65, 0, 189]",189,l,1.142844314686954,colour,0.5
038,65,0,1,7,15,315,501.10474328137934,501.6794859524816,"[83, 0, 171]",171,l,0.05219165328890085,colour,0.5
038,65,0,1,7,16,316,502.18603501678444,502.78356520994566,"[5, 0, 249]",249,a,0.07413989002816379,colour,0.5
038,65,0,1,7,17,317,503.29555722279474,503.85548577900045,"[82, 0, 172]",172,l,0.03665955760516226,colour,0.5
038,65,0,1,7,18,318,504.3735615273472,505.75147820147686,"[32, 0, 222]",222,a,0.8545204631518573,colour,0.5
038,65,0,1,7,19,319,506.2641858321149,506.8395413272083,"[58, 0, 196]",196,a,0.052696563536301255,colour,0.5
038,65,0,1,7,20,320,507.3580187980551,508.7434630463831,"[45, 0, 209]",209,a,0.862135865027085,colour,0.5
038,65,0,1,7,21,321,509.2641992229037,509.9995273849927,"[81, 0, 173]",173,l,0.21192722511477768,colour,0.5
038,65,0,1,7,22,322,510.51421369658783,511.0874983507674,"[15, 0, 239]",239,a,0.04989907704293728,colour,0.5
038,65,0,1,7,23,323,511.6079245705623,512.1594590921886,"[27, 0, 227]",227,a,0.040644883178174496,colour,0.5
038,65,0,1,7,24,324,512.6737176873721,513.2554558468983,"[44, 0, 210]",210,a,0.058448287192732096,colour,0.5
038,65,0,1,7,25,325,513.7674277734477,515.8394574378617,"[35, 0, 219]",219,a,1.5487437304109335,colour,0.5
038,65,0,1,7,26,326,516.3454937150236,516.9514852906577,"[46, 0, 208]",208,a,0.08266783226281404,colour,0.5
038,65,0,1,7,27,327,517.4705503797159,517.9998527015559,"[41, 0, 213]",213,a,0.005935255670920014,colour,0.5
038,65,0,1,7,28,328,518.5330454320647,519.9674596749246,"[39, 0, 215]",215,a,0.9111665119417012,colour,0.5
038,65,0,1,7,29,329,520.4861620320007,522.0074909464456,"[8, 0, 246]",246,a,0.9980788205284625,colour,0.5
038,65,0,1,7,30,330,522.5174771025777,523.0634792728815,"[59, 0, 195]",195,a,0.022714267019182444,colour,0.5
038,65,0,1,7,31,331,523.5799004749861,525.2074531372637,"[64, 0, 190]",190,a,1.1041635405272245,colour,0.5
038,65,0,1,7,32,332,525.7204998689704,526.2874388799537,"[18, 0, 236]",236,a,0.04354713251814246,colour,0.5
038,65,0,1,7,33,333,526.8001547812019,528.0634627311956,"[3, 0, 251]",251,a,0.7400279236026108,colour,0.5
038,65,0,1,7,34,334,528.5813415567391,529.1754909779411,"[96, 0, 158]",158,l,0.07112500071525574,colour,0.5
038,65,0,1,7,35,335,529.6906908643432,530.2954465521034,"[9, 0, 245]",245,a,0.08146857214160264,colour,0.5
038,65,0,1,7,36,336,530.8157416214235,532.2074405341409,"[25, 0, 229]",229,a,0.8683566588442773,colour,0.5
038,65,0,1,7,37,337,532.7219094429165,533.247431239346,"[47, 0, 207]",207,a,0.002164970152080059,colour,0.5
038,65,0,1,7,38,338,533.7688070214354,534.3674604627304,"[90, 0, 164]",164,l,0.07531118742190301,colour,0.5
038,65,0,1,7,39,339,534.8782004397362,535.6316222702153,"[68, 0, 186]",186,l,0.22923556505702436,colour,0.5
038,65,0,1,7,40,340,536.1445965345483,537.5595425874926,"[26, 0, 228]",228,a,0.888460909947753,colour,0.5
038,65,0,1,7,41,341,538.0695547375362,538.6714727664366,"[52, 0, 202]",202,a,0.07861870410852134,colour,0.5
038,65,0,1,7,42,342,539.1808138033375,539.743435870856,"[43, 0, 211]",211,a,0.03911676141433418,colour,0.5
038,65,0,1,7,43,343,540.2603395343758,541.415512796957,"[61, 0, 193]",193,a,0.6319700363092124,colour,0.5
038,65,0,1,7,44,344,541.9321494328324,542.6234582413454,"[75, 0, 179]",179,l,0.1679511945694685,colour,0.5
038,65,0,1,7,45,345,543.1353742419742,543.7994584620465,"[10, 0, 244]",244,a,0.14083609520457685,colour,0.5
038,65,0,1,7,46,346,544.3090220217127,544.8394353825133,"[17, 0, 237]",237,a,0.0071093097794801,colour,0.5
038,65,0,1,7,47,347,545.3559215695132,545.9834624161012,"[67, 0, 187]",187,l,0.10415960196405649,colour,0.5
038,65,0,1,7,48,348,546.496542230947,547.1274429759942,"[88, 0, 166]",166,l,0.10749744507484138,colour,0.5
038,65,0,1,7,49,349,547.6371869170107,548.1915027773939,"[24, 0, 230]",230,a,0.031016141641885042,colour,0.5
038,65,0,1,7,50,350,548.6996906341519,549.2474824392702,"[91, 0, 163]",163,l,0.024397957604378462,colour,0.5
038,65,0,1,8,1,351,559.7772112961393,560.9914440945722,"[97, 0, 157]",157,l,0.6900796159170568,colour,0.5
038,65,0,1,8,2,352,561.5123897970188,562.2394897332415,"[71, 0, 183]",183,l,0.20376240857876837,colour,0.5
038,65,0,1,8,3,353,562.7467437814921,563.7194802023005,"[47, 0, 207]",207,a,0.4493315452709794,colour,0.5
038,65,0,1,8,4,354,564.2310980616603,564.8153981878422,"[55, 0, 199]",199,a,0.060931878397241235,colour,0.5
038,65,0,1,8,5,355,565.3248018461745,565.8954646689817,"[40, 0, 214]",214,a,0.04729772568680346,colour,0.5
038,65,0,1,8,6,356,566.4029621139634,566.935499091167,"[32, 0, 222]",222,a,0.009155732579529285,colour,0.5
038,65,0,1,8,7,357,567.4498533906881,568.0314733965788,"[31, 0, 223]",223,a,0.058208041125908494,colour,0.5
038,65,0,1,8,8,358,568.543605224695,570.1673974473961,"[52, 0, 202]",202,a,1.1005783625878394,colour,0.5
038,65,0,1,8,9,359,570.6842774800025,571.303427048726,"[37, 0, 217]",217,a,0.095787622500211,colour,0.5
038,65,0,1,8,10,360,571.8249146831222,572.5274221021682,"[19, 0, 235]",235,a,0.17947512189857662,colour,0.5
038,65,0,1,8,11,361,573.0436278707348,574.6474024886265,"[35, 0, 219]",219,a,1.0810121048707515,colour,0.5
038,65,0,1,8,12,362,575.1686467260588,576.4394889455289,"[12, 0, 242]",242,a,0.7475452576763928,colour,0.5
038,65,0,1,8,13,363,576.9498591015581,577.7354289866053,"[92, 0, 162]",162,l,0.26219572965055704,colour,0.5
038,65,0,1,8,14,364,578.2343319291249,578.8874077661894,"[44, 0, 210]",210,a,0.12873557792045176,colour,0.5
038,65,0,1,8,15,365,579.408931634156,580.1674100505188,"[83, 0, 171]",171,l,0.23513301159255207,colour,0.5
038,65,0,1,8,16,366,580.6746014771052,582.5274094990455,"[0, 0, 254]",254,a,1.3294129925779998,colour,0.5
038,65,0,1,8,17,367,583.0339018495288,583.6394645271357,"[1, 0, 253]",253,a,0.0821814329829067,colour,0.5
038,65,0,1,8,18,368,584.158892347943,584.927414619131,"[62, 0, 192]",192,a,0.24533164780586958,colour,0.5
038,65,0,1,8,19,369,585.4309105910361,586.0235141674057,"[41, 0, 213]",213,a,0.06922075641341507,colour,0.5
038,65,0,1,8,20,370,586.5421156999655,587.8874191876967,"[30, 0, 224]",224,a,0.8220632397569716,colour,0.5
038,65,0,1,8,21,371,588.4035221624654,589.1514010077808,"[75, 0, 179]",179,l,0.22448066505603492,colour,0.5
038,65,0,1,8,22,372,589.6691262333188,590.1998062278144,"[74, 0, 180]",180,l,0.007256214506924152,colour,0.5
038,65,0,1,8,23,373,590.7316374334041,591.5114047885872,"[61, 0, 193]",193,l,0.2565078088082373,colour,0.5
038,65,0,1,8,24,374,592.0303958344739,593.6875184366945,"[67, 0, 187]",187,l,1.1338134312536567,colour,0.5
038,65,0,1,8,25,375,594.2022780037951,594.8234873858746,"[48, 0, 206]",206,a,0.09791320818476379,colour,0.5
038,65,0,1,8,26,376,595.342901816126,596.1514002201147,"[88, 0, 166]",166,l,0.28541018068790436,colour,0.5
038,65,0,1,8,27,377,596.6709922745358,597.8153733755462,"[69, 0, 185]",185,a,0.6208407424855977,colour,0.5
038,65,0,1,8,28,378,598.3281093628611,598.9594015905168,"[91, 0, 163]",163,l,0.10793618904426694,colour,0.5
038,65,0,1,8,29,379,599.4687000922859,600.1914377929643,"[25, 0, 229]",229,a,0.19931667763739824,colour,0.5
038,65,0,1,8,30,380,600.7031745936256,602.1433661603369,"[20, 0, 234]",234,a,0.9168619157280773,colour,0.5
038,65,0,1,8,31,381,602.6574014448561,604.103473916417,"[27, 0, 227]",227,a,0.9226975282654166,colour,0.5
038,65,0,1,8,32,382,604.610574364895,605.4234992014244,"[70, 0, 184]",184,l,0.2895542257465422,colour,0.5
038,65,0,1,8,33,383,605.9386900295503,606.51136934245,"[86, 0, 168]",168,l,0.04939574212767184,colour,0.5
038,65,0,1,8,34,384,607.0323686080519,607.5594527905341,"[89, 0, 165]",165,l,0.0036785195115953684,colour,0.5
038,65,0,1,8,35,385,608.0792504325509,608.679441053886,"[39, 0, 215]",215,a,0.07673927210271358,colour,0.5
038,65,0,1,8,36,386,609.1884894634131,609.751457327744,"[53, 0, 201]",201,a,0.039393241284415126,colour,0.5
038,65,0,1,8,37,387,610.2695523744915,611.0233684445266,"[96, 0, 158]",158,l,0.23042576690204442,colour,0.5
038,65,0,1,8,38,388,611.5352289129514,612.1193549593445,"[14, 0, 240]",240,a,0.06084877694956958,colour,0.5
038,65,0,1,8,39,389,612.6289527837653,613.2153513201047,"[42, 0, 212]",212,a,0.06310748239047825,colour,0.5
038,65,0,1,8,40,390,613.736156419618,614.3194148237817,"[76, 0, 178]",178,l,0.05992835946381092,colour,0.5
038,65,0,1,8,41,391,614.8299440934788,615.5034254733473,"[68, 0, 186]",186,l,0.15010525519028306,colour,0.5
038,65,0,1,8,42,392,616.0176080563106,616.6473363225814,"[43, 0, 211]",211,a,0.10649156291037798,colour,0.5
038,65,0,1,8,43,393,617.1581424656324,617.719440029934,"[46, 0, 208]",208,a,0.03800611640326679,colour,0.5
038,65,0,1,8,44,394,618.2362562594935,618.8473288393579,"[33, 0, 221]",221,a,0.0877385966014117,colour,0.5
038,65,0,1,8,45,395,619.3612298227381,619.9113496502396,"[85, 0, 169]",169,l,0.02758653275668621,colour,0.5
038,65,0,1,8,46,396,620.4237213304732,621.1433259879705,"[63, 0, 191]",191,l,0.19623798527754843,colour,0.5
038,65,0,1,8,47,397,621.6580508965999,622.2314296797849,"[84, 0, 170]",170,l,0.05000226479023695,colour,0.5
038,65,0,1,8,48,398,622.7518086382188,623.3754019688349,"[99, 0, 155]",155,l,0.09850752167403698,colour,0.5
038,65,0,1,8,49,399,623.8941598578822,624.447407608619,"[21, 0, 233]",233,a,0.029775527538731694,colour,0.5
038,65,0,1,8,50,400,624.9568006331101,625.5593448767904,"[38, 0, 216]",216,a,0.07916772505268455,colour,0.5
038,65,0,1,9,1,401,637.7855127772782,638.983370650094,"[45, 0, 209]",209,a,0.6737436812836677,colour,0.5
038,65,0,1,9,2,402,639.5050386656076,641.455347933108,"[10, 0, 244]",244,a,1.4269445643294603,colour,0.5
038,65,0,1,9,3,403,641.9737938963808,643.4473725564312,"[19, 0, 235]",235,a,0.9626976861618459,colour,0.5
038,65,0,1,9,4,404,643.9614913363475,644.5833379609976,"[79, 0, 175]",175,l,0.09856423526071012,colour,0.5
038,65,0,1,9,5,405,645.1020186564419,645.6314288920257,"[29, 0, 225]",225,a,0.006088855443522334,colour,0.5
038,65,0,1,9,6,406,646.1646066561807,646.8153635293711,"[25, 0, 229]",229,a,0.12744691455736756,colour,0.5
038,65,0,1,9,7,407,647.3364037547726,648.83934282884,"[40, 0, 214]",214,a,0.9796125739812851,colour,0.5
038,65,0,1,9,8,408,649.3519972902723,650.6473256887402,"[32, 0, 222]",222,a,0.7703891000710428,colour,0.5
038,65,0,1,9,9,409,651.1659543965943,651.7913424822036,"[46, 0, 208]",208,a,0.10187372122891247,colour,0.5
038,65,0,1,9,10,410,652.306677851826,652.8633276422042,"[12, 0, 242]",242,a,0.03337133955210447,colour,0.5
038,65,0,1,9,11,411,653.375531937927,653.9913401191588,"[60, 0, 194]",194,l,0.09260968118906021,colour,0.5
038,65,0,1,9,12,412,654.500508651603,655.5033270120621,"[13, 0, 241]",241,a,0.47953597106970847,colour,0.5
038,65,0,1,9,13,413,656.0160949009005,656.9193364484236,"[65, 0, 189]",189,a,0.3797705059405416,colour,0.5
038,65,0,1,9,14,414,657.438036048552,658.999322585063,"[6, 0, 248]",248,a,1.0378982026595622,colour,0.5
038,65,0,1,9,15,415,659.5160998241045,660.8233526907861,"[20, 0, 234]",234,a,0.7838330252561718,colour,0.5
038,65,0,1,9,16,416,661.3443291131407,662.559402378276,"[68, 0, 186]",186,l,0.6918538911268115,colour,0.5
038,65,0,1,9,17,417,663.0805977790151,663.6873077293858,"[0, 0, 254]",254,a,0.08341613947413862,colour,0.5
038,65,0,1,9,18,418,664.2054878468625,664.8393144719303,"[74, 0, 180]",180,l,0.11042883899062872,colour,0.5
038,65,0,1,9,19,419,665.3461494683288,665.8793591340072,"[28, 0, 226]",226,a,0.00986859342083335,colour,0.5
038,65,0,1,9,20,420,666.3934853971004,666.9273023731075,"[86, 0, 168]",168,a,0.010670463554561138,colour,0.5
038,65,0,1,9,21,421,667.4425700011197,668.2873660183977,"[67, 0, 187]",187,l,0.32160539412871003,colour,0.5
038,65,0,1,9,22,422,668.8019349640235,670.1593050984666,"[58, 0, 196]",196,l,0.8344906491693109,colour,0.5
038,65,0,1,9,23,423,670.6770783732645,671.6554365484044,"[81, 0, 173]",173,l,0.45525380410254,colour,0.5
038,65,0,1,9,24,424,672.1769612040371,672.8472953625023,"[70, 0, 184]",184,l,0.1470525567419827,colour,0.5
038,65,0,1,9,25,425,673.3644585702568,674.2152997264639,"[63, 0, 191]",191,a,0.3273622377309948,colour,0.5
038,65,0,1,9,26,426,674.7238400748465,675.3112937242258,"[95, 0, 159]",159,l,0.06413620780222118,colour,0.5
038,65,0,1,9,27,427,675.8175147150178,676.4153402925003,"[17, 0, 237]",237,a,0.07443015440367162,colour,0.5
038,65,0,1,9,28,428,676.926916798111,677.4713002620265,"[15, 0, 239]",239,a,0.021339351311326027,colour,0.5
038,65,0,1,9,29,429,677.9894933763426,678.5433346526697,"[21, 0, 233]",233,a,0.03057621605694294,colour,0.5
038,65,0,1,9,30,430,679.051895087352,679.6473249010742,"[78, 0, 176]",176,l,0.07516270759515464,colour,0.5
038,65,0,1,9,31,431,680.1584421822336,682.7832914870232,"[37, 0, 217]",217,a,2.101523592369631,colour,0.5
038,65,0,1,9,32,432,683.2990632376168,684.6233243339229,"[83, 0, 171]",171,l,0.8008077777922153,colour,0.5
038,65,0,1,9,33,433,685.1428261976689,685.7753523441497,"[50, 0, 204]",204,a,0.10947179375216365,colour,0.5
038,65,0,1,9,34,434,686.2834543422796,686.8713191666175,"[91, 0, 163]",163,l,0.06452375184744596,colour,0.5
038,65,0,1,9,35,435,687.3928064070642,687.9832906993106,"[97, 0, 157]",157,l,0.06731611816212535,colour,0.5
038,65,0,1,9,36,436,688.5041387281381,689.9753314703703,"[94, 0, 160]",160,l,0.9478567899204791,colour,0.5
038,65,0,1,9,37,437,690.4885550388135,691.1752558520529,"[33, 0, 221]",221,a,0.16355469450354576,colour,0.5
038,65,0,1,9,38,438,691.6916305804625,694.1592968276236,"[30, 0, 224]",224,a,1.944479562342167,colour,0.5
038,65,0,1,9,39,439,694.6759708789177,695.399349760497,"[87, 0, 167]",167,l,0.2001744736917317,colour,0.5
038,65,0,1,9,40,440,695.9104540450498,696.4552786161657,"[4, 0, 250]",250,a,0.021670181769877672,colour,0.5
038,65,0,1,9,41,441,696.9728214913048,698.1113279887941,"[62, 0, 192]",192,a,0.6151248589158058,colour,0.5
038,65,0,1,9,42,442,698.6290811772924,699.3672792937141,"[66, 0, 188]",188,a,0.21485034842044115,colour,0.5
038,65,0,1,9,43,443,699.879018851323,700.5113055396359,"[14, 0, 240]",240,a,0.10884991148486733,colour,0.5
038,65,0,1,9,44,444,701.0197245834861,701.5912841930985,"[73, 0, 181]",181,l,0.04826540476642549,colour,0.5
038,65,0,1,9,45,445,702.0978777620476,702.6392786318902,"[71, 0, 183]",183,l,0.01806649286299944,colour,0.5
038,65,0,1,9,46,446,703.1603271281347,703.7033195288386,"[7, 0, 247]",247,a,0.019474491477012634,colour,0.5
038,65,0,1,9,47,447,704.222845811164,705.4953110690694,"[23, 0, 231]",231,a,0.749470375943929,colour,0.5
038,65,0,1,9,48,448,706.0040503097698,706.6073038696777,"[76, 0, 178]",178,l,0.07987507223151624,colour,0.5
038,65,0,1,9,49,449,707.113449241966,707.695250416873,"[16, 0, 238]",238,a,0.07075005955994129,colour,0.5
038,65,0,1,9,50,450,708.2122793232556,709.7592802860308,"[55, 0, 199]",199,a,1.0225173439830542,colour,0.5
038,65,0,1,10,1,451,717.7814612858929,719.3592987968586,"[81, 0, 173]",173,l,1.0536343101412058,colour,0.5
038,65,0,1,10,2,452,719.8761169956997,720.9433149602264,"[37, 0, 217]",217,a,0.5441302210092545,colour,0.5
038,65,0,1,10,3,453,721.4542061742395,723.5592495661695,"[50, 0, 204]",204,a,1.5817751809954643,colour,0.5
038,65,0,1,10,4,454,724.079164180439,725.8312587507535,"[10, 0, 244]",244,a,1.2288031224161386,colour,0.5
038,65,0,1,10,5,455,726.3448249648791,726.9272594437934,"[89, 0, 165]",165,l,0.059105615597218275,colour,0.5
038,65,0,1,10,6,456,727.4385129958391,728.0313182212412,"[57, 0, 197]",197,a,0.06678915256634355,colour,0.5
038,65,0,1,10,7,457,728.5505723562092,730.6314115629066,"[63, 0, 191]",191,a,1.5576340111438185,colour,0.5
038,65,0,1,10,8,458,731.1444354515988,732.7032777813729,"[65, 0, 189]",189,a,1.0355808143503964,colour,0.5
038,65,0,1,10,9,459,733.2225445192307,733.759243658511,"[11, 0, 243]",243,a,0.013421082170680165,colour,0.5
038,65,0,1,10,10,460,734.269286922412,734.8712435481139,"[84, 0, 170]",170,l,0.07885816227644682,colour,0.5
038,65,0,1,10,11,461,735.3787098792382,735.903302987339,"[27, 0, 227]",227,a,0.001234312541782856,colour,0.5
038,65,0,1,10,12,462,736.4255889470223,737.1192643747199,"[36, 0, 218]",218,a,0.1705608165357262,colour,0.5
038,65,0,1,10,13,463,737.6287393192761,738.1672777181957,"[51, 0, 203]",203,a,0.0244416743516922,colour,0.5
038,65,0,1,10,14,464,738.681970331585,740.8152410434559,"[85, 0, 169]",169,l,1.609904827317223,colour,0.5
038,65,0,1,10,15,465,741.3225994606037,743.5912928576581,"[59, 0, 195]",195,a,1.7453798938076943,colour,0.5
038,65,0,1,10,16,466,744.1037716639694,744.6632717160974,"[2, 0, 252]",252,a,0.03616921976208687,colour,0.5
038,65,0,1,10,17,467,745.1819047562312,745.7432602157351,"[73, 0, 181]",181,l,0.03799115028232336,colour,0.5
038,65,0,1,10,18,468,746.2599945254624,747.255225840956,"[31, 0, 223]",223,a,0.472119067562744,colour,0.5
038,65,0,1,10,19,469,747.7757060176227,748.3352698727977,"[53, 0, 201]",201,a,0.03643979178741574,colour,0.5
038,65,0,1,10,20,470,748.8537264701445,750.2712045575026,"[21, 0, 233]",233,a,0.8940405228640884,colour,0.5
038,65,0,1,10,21,471,750.7912235409021,751.3752467934974,"[61, 0, 193]",193,a,0.06057229731231928,colour,0.5
038,65,0,1,10,22,472,751.8850021562539,753.4392695734277,"[90, 0, 164]",164,l,1.0312540244776756,colour,0.5
038,65,0,1,10,23,473,753.9477500575595,754.5432409173809,"[1, 0, 253]",253,a,0.07208007690496743,colour,0.5
038,65,0,1,10,24,474,755.0571099990048,755.6312489043921,"[69, 0, 185]",185,l,0.05102193122729659,colour,0.5
038,65,0,1,10,25,475,756.150864983676,756.7672450290993,"[24, 0, 230]",230,a,0.09332136041484773,colour,0.5
038,65,0,1,10,26,476,757.2758582390379,757.8952748354059,"[83, 0, 171]",171,l,0.09618343762122095,colour,0.5
038,65,0,1,10,27,477,758.4166029619519,760.1272566867992,"[16, 0, 238]",238,a,1.1873043817467988,colour,0.5
038,65,0,1,10,28,478,760.6352432882413,761.2312185782939,"[46, 0, 208]",208,a,0.07110097608529031,colour,0.5
038,65,0,1,10,29,479,761.7460730622988,762.3113736747764,"[80, 0, 174]",174,l,0.042543613351881504,colour,0.5
038,65,0,1,10,30,480,762.8242148191202,764.3351966175251,"[18, 0, 236]",236,a,0.9876478151418269,colour,0.5
038,65,0,1,10,31,481,764.855391649995,765.40726527269,"[39, 0, 215]",215,a,0.028506950242444873,colour,0.5
038,65,0,1,10,32,482,765.9179268744774,766.5352809005417,"[96, 0, 158]",158,l,0.0940342212561518,colour,0.5
038,65,0,1,10,33,483,767.0429378529079,767.6072168296669,"[55, 0, 199]",199,a,0.041417214553803205,colour,0.5
038,65,0,1,10,34,484,768.1210705514532,768.6632626575883,"[9, 0, 245]",245,a,0.018801015336066484,colour,0.5
038,65,0,1,10,35,485,769.1837176282424,769.7591920646373,"[79, 0, 175]",175,l,0.052395665319636464,colour,0.5
038,65,0,1,10,36,486,770.2778416462243,770.8631929468829,"[95, 0, 159]",159,l,0.06194800045341253,colour,0.5
038,65,0,1,10,37,487,771.3716876092367,771.9192486209795,"[32, 0, 222]",222,a,0.024295163806527853,colour,0.5
038,65,0,1,10,38,488,772.4340920771938,772.9672521182802,"[26, 0, 228]",228,a,0.009814242599532008,colour,0.5
038,65,0,1,10,39,489,773.4809876861982,774.0232369001023,"[12, 0, 242]",242,a,0.018957766005769372,colour,0.5
038,65,0,1,10,40,490,774.5446670327801,775.2712340957951,"[71, 0, 183]",183,l,0.2031598244793713,colour,0.5
038,65,0,1,10,41,491,775.7790623712353,776.4312075506896,"[33, 0, 221]",221,a,0.1287296700756997,colour,0.5
038,65,0,1,10,42,492,776.9509398143273,778.2952756229788,"[47, 0, 207]",207,a,0.8210250623524189,colour,0.5
038,65,0,1,10,43,493,778.8103242728394,779.4152083541267,"[58, 0, 196]",196,a,0.08043551468290389,colour,0.5
038,65,0,1,10,44,494,779.9363746102899,780.5351871652529,"[13, 0, 241]",241,a,0.07538641197606921,colour,0.5
038,65,0,1,10,45,495,781.0464938865043,781.6232069677208,"[97, 0, 157]",157,l,0.054360167821869254,colour,0.5
038,65,0,1,10,46,496,782.1395509762224,782.7431806589011,"[86, 0, 168]",168,l,0.08032366237603128,colour,0.5
038,65,0,1,10,47,497,783.264516268624,783.8392301888671,"[30, 0, 224]",224,a,0.05128856468945742,colour,0.5
038,65,0,1,10,48,498,784.3458111546934,784.9273007975426,"[0, 0, 254]",254,a,0.05815132730640471,colour,0.5
038,65,0,1,10,49,499,785.4395755915903,786.0711899851449,"[14, 0, 240]",240,a,0.10832255170680583,colour,0.5
038,65,0,1,10,50,500,786.5801812871359,787.2152430126444,"[25, 0, 229]",229,a,0.11165015469305217,colour,0.5
038,65,0,1,11,1,501,800.9699586264323,803.2312473291531,"[53, 0, 201]",201,a,1.7371363081037998,colour,0.5
038,65,0,1,11,2,502,803.7546872568782,804.3512052663136,"[52, 0, 202]",202,a,0.0730292450170964,colour,0.5
038,65,0,1,11,3,503,804.8641555060167,805.5512450449169,"[65, 0, 189]",189,l,0.16365236812271178,colour,0.5
038,65,0,1,11,4,504,806.0692707747221,806.6151977202389,"[73, 0, 181]",181,l,0.022433060919865966,colour,0.5
038,65,0,1,11,5,505,807.1318335684482,807.7751774766948,"[90, 0, 164]",164,l,0.1202903431840241,colour,0.5
038,65,0,1,11,6,506,808.2887192724738,808.8631964914966,"[20, 0, 234]",234,a,0.051772995153442025,colour,0.5
038,65,0,1,11,7,507,809.3818728546612,809.9831733333413,"[49, 0, 205]",205,a,0.0783465567510575,colour,0.5
038,65,0,1,11,8,508,810.4911945932545,811.0231514356565,"[54, 0, 200]",200,a,0.008641370106488466,colour,0.5
038,65,0,1,11,9,509,811.5380523931235,812.1032183105126,"[26, 0, 228]",228,a,0.041865017265081406,colour,0.5
038,65,0,1,11,10,510,812.6161244392861,813.1832178379409,"[41, 0, 213]",213,a,0.04360463400371373,colour,0.5
038,65,0,1,11,11,511,813.6943272424396,814.2311862830538,"[24, 0, 230]",230,a,0.013591223629191518,colour,0.5
038,65,0,1,11,12,512,814.7412543592509,815.3191962393466,"[50, 0, 204]",204,a,0.05472289980389178,colour,0.5
038,65,0,1,11,13,513,815.8349518424366,816.3911739161704,"[33, 0, 221]",221,a,0.032991278218105435,colour,0.5
038,65,0,1,11,14,514,816.8973988455255,817.4711742312647,"[39, 0, 215]",215,a,0.05036499653942883,colour,0.5
038,65,0,1,11,15,515,817.991383836139,818.5431617542636,"[10, 0, 244]",244,a,0.028742076363414526,colour,0.5
038,65,0,1,11,16,516,819.0535929563921,819.5834127916023,"[6, 0, 248]",248,a,0.007021088385954499,colour,0.5
038,65,0,1,11,17,517,820.1161427532788,820.9832146870904,"[59, 0, 195]",195,a,0.3436906891874969,colour,0.5
038,65,0,1,11,18,518,821.4880694269668,823.1592101815622,"[83, 0, 171]",171,l,1.147810315946117,colour,0.5
038,65,0,1,11,19,519,823.6755679748021,824.2551624316256,"[28, 0, 226]",226,a,0.056351845851168036,colour,0.5
038,65,0,1,11,20,520,824.7693379253615,825.407178232912,"[1, 0, 253]",253,a,0.11447284743189812,colour,0.5
038,65,0,1,11,21,521,825.9260570327751,826.5511769095901,"[0, 0, 254]",254,a,0.10192177048884332,colour,0.5
038,65,0,1,11,22,522,827.0667214111891,827.7431609665509,"[60, 0, 194]",194,l,0.15307879075407982,colour,0.5
038,65,0,1,11,23,523,828.2541297681164,828.8391872597858,"[92, 0, 162]",162,l,0.06169436383061111,colour,0.5
038,65,0,1,11,24,524,829.3479572203942,829.9831946010236,"[16, 0, 238]",238,a,0.11185810528695583,colour,0.5
038,65,0,1,11,25,525,830.5041596018709,831.0791425188072,"[13, 0, 241]",241,a,0.05164538905955851,colour,0.5
038,65,0,1,11,26,526,831.5978763834573,832.1991603206843,"[34, 0, 220]",220,a,0.0778195911552757,colour,0.5
038,65,0,1,11,27,527,832.7072662573773,833.3191926947329,"[75, 0, 179]",179,l,0.08857748797163367,colour,0.5
038,65,0,1,11,28,528,833.8322031928692,834.4471520027146,"[91, 0, 163]",163,l,0.09152975608594716,colour,0.5
038,65,0,1,11,29,529,834.9573531989008,835.6071286082733,"[76, 0, 178]",178,l,0.12660526623949409,colour,0.5
038,65,0,1,11,30,530,836.1134968972765,836.7111672996543,"[2, 0, 252]",252,a,0.07428915752097964,colour,0.5
038,65,0,1,11,31,531,837.2228765313048,837.831144929165,"[4, 0, 250]",250,a,0.08489581779576838,colour,0.5
038,65,0,1,11,32,532,838.3354392265901,839.0311862831004,"[45, 0, 209]",209,a,0.1727596577256918,colour,0.5
038,65,0,1,11,33,533,839.5386360725388,840.1832087794319,"[58, 0, 196]",196,a,0.12164044636301696,colour,0.5
038,65,0,1,11,34,534,840.6948242757935,841.367244635243,"[87, 0, 167]",167,l,0.14913009316660464,colour,0.5
038,65,0,1,11,35,535,841.8823582695331,842.47114744992,"[3, 0, 251]",251,a,0.06543786800466478,colour,0.5
038,65,0,1,11,36,536,842.9916725249495,843.5751558151096,"[55, 0, 199]",199,a,0.06014300533570349,colour,0.5
038,65,0,1,11,37,537,844.085472014267,844.6711309084203,"[17, 0, 237]",237,a,0.06269197538495064,colour,0.5
038,65,0,1,11,38,538,845.1792376325466,845.8071199436672,"[66, 0, 188]",188,l,0.10457353387027979,colour,0.5
038,65,0,1,11,39,539,846.3198185157962,846.8871793355793,"[89, 0, 165]",165,l,0.04404259053990245,colour,0.5
038,65,0,1,11,40,540,847.3979346726555,847.9831737272907,"[81, 0, 173]",173,l,0.06178140384145081,colour,0.5
038,65,0,1,11,41,541,848.4916463342961,849.1432641542051,"[23, 0, 231]",231,a,0.1282617812976241,colour,0.5
038,65,0,1,11,42,542,849.6374358276371,850.2233133062255,"[70, 0, 184]",184,l,0.06260769232176244,colour,0.5
038,65,0,1,11,43,543,850.7311923876405,852.3191351932473,"[36, 0, 218]",218,a,1.0644871240947396,colour,0.5
038,65,0,1,11,44,544,852.8405692644883,853.3751802335028,"[12, 0, 242]",242,a,0.011333699570968747,colour,0.5
038,65,0,1,11,45,545,853.8874278522562,854.6551825178321,"[61, 0, 193]",193,a,0.2444289531558752,colour,0.5
038,65,0,1,11,46,546,855.1686805968639,855.8471681503579,"[68, 0, 186]",186,a,0.15510552120395005,colour,0.5
038,65,0,1,11,47,547,856.3582901579794,856.9271755546797,"[44, 0, 210]",210,a,0.0455907981377095,colour,0.5
038,65,0,1,11,48,548,857.4363811085932,857.9911680086516,"[22, 0, 232]",232,a,0.03136902768164873,colour,0.5
038,65,0,1,11,49,549,858.498996283859,859.1751668427605,"[69, 0, 185]",185,l,0.15283027407713234,colour,0.5
038,65,0,1,11,50,550,859.6863987331744,860.2391990751494,"[80, 0, 174]",174,l,0.029479749500751495,colour,0.5
038,65,0,1,12,1,551,869.9073186388705,871.5751361227594,"[66, 0, 188]",188,a,1.1437292860355228,colour,0.5
038,65,0,1,12,2,552,872.095653714845,873.3191206210759,"[89, 0, 165]",165,l,0.7001707321032882,colour,0.5
038,65,0,1,12,3,553,873.830001201015,874.4391498444602,"[79, 0, 175]",175,l,0.08593635843135417,colour,0.5
038,65,0,1,12,4,554,874.9572456788737,875.4951625892427,"[46, 0, 208]",208,a,0.014537634793668985,colour,0.5
038,65,0,1,12,5,555,875.9966310432646,876.623140407959,"[68, 0, 186]",186,l,0.10310882166959345,colour,0.5
038,65,0,1,12,6,556,877.1372654894367,877.7031048829667,"[85, 0, 169]",169,l,0.042544007301330566,colour,0.5
038,65,0,1,12,7,557,878.2154749876354,878.7831296164077,"[17, 0, 237]",237,a,0.04436160554178059,colour,0.5
038,65,0,1,12,8,558,879.293518677121,879.8790991958231,"[84, 0, 170]",170,l,0.062321366276592016,colour,0.5
038,65,0,1,12,9,559,880.3872204923537,880.9191312550101,"[41, 0, 213]",213,a,0.008552360814064741,colour,0.5
038,65,0,1,12,10,560,881.434038907988,882.0392077397555,"[38, 0, 216]",216,a,0.08174111344851553,colour,0.5
038,65,0,1,12,11,561,882.5591755232308,883.1191588242073,"[92, 0, 162]",162,l,0.03677022852934897,colour,0.5
038,65,0,1,12,12,562,883.6372223631479,884.7911042056512,"[74, 0, 180]",180,l,0.6305407700128853,colour,0.5
038,65,0,1,12,13,563,885.3091196955647,885.9191517347936,"[27, 0, 227]",227,a,0.08680596994236112,colour,0.5
038,65,0,1,12,14,564,886.434128310997,888.1670957615133,"[47, 0, 207]",207,a,1.2097559534013271,colour,0.5
038,65,0,1,12,15,565,888.6841160031036,890.0151067420375,"[36, 0, 218]",218,a,0.8077461586799473,colour,0.5
038,65,0,1,12,16,566,890.5278009816539,891.0631271747407,"[58, 0, 196]",196,a,0.011945342179387808,colour,0.5
038,65,0,1,12,17,567,891.5746316064615,892.1190749348607,"[8, 0, 246]",246,a,0.02105144993402064,colour,0.5
038,65,0,1,12,18,568,892.6372077909764,893.1671079706866,"[72, 0, 182]",182,l,0.006540202768519521,colour,0.5
038,65,0,1,12,19,569,893.6995882340707,895.0952307246625,"[86, 0, 168]",168,l,0.8722368273884058,colour,0.5
038,65,0,1,12,20,570,895.6059163510799,896.2631047253963,"[43, 0, 211]",211,a,0.13368976372294128,colour,0.5
038,65,0,1,12,21,571,896.777842630865,898.1110645059962,"[33, 0, 221]",221,a,0.8097366550937295,colour,0.5
038,65,0,1,12,22,572,898.6215602986049,899.1511079864576,"[3, 0, 251]",251,a,0.006175895454362035,colour,0.5
038,65,0,1,12,23,573,899.6684641786851,900.2231069309637,"[34, 0, 220]",220,a,0.031647082651034,colour,0.5
038,65,0,1,12,24,574,900.7309403263498,902.0150571174454,"[35, 0, 219]",219,a,0.7607591771520674,colour,0.5
038,65,0,1,12,25,575,902.5277462371159,903.391111294739,"[64, 0, 190]",190,a,0.33996805897913873,colour,0.5
038,65,0,1,12,26,576,903.9027925631963,905.5191379503813,"[32, 0, 222]",222,a,1.0930578776169568,colour,0.5
038,65,0,1,12,27,577,906.0277590372134,906.567117423052,"[28, 0, 226]",226,a,0.015989744337275624,colour,0.5
038,65,0,1,12,28,578,907.074692455586,907.6791161312722,"[96, 0, 158]",158,l,0.08111056638881564,colour,0.5
038,65,0,1,12,29,579,908.1995427450165,908.8550749979913,"[4, 0, 250]",250,a,0.13206672528758645,colour,0.5
038,65,0,1,12,30,580,909.3715552771464,910.2391833213624,"[73, 0, 181]",181,l,0.34444923629052937,colour,0.5
038,65,0,1,12,31,581,910.7463164587971,911.3352013437543,"[0, 0, 254]",254,a,0.06545637873932719,colour,0.5
038,65,0,1,12,32,582,911.8558524495456,912.5751443936024,"[69, 0, 185]",185,l,0.19670154177583754,colour,0.5
038,65,0,1,12,33,583,913.0901808340568,913.6873518400826,"[82, 0, 172]",172,l,0.07480036956258118,colour,0.5
038,65,0,1,12,34,584,914.1994974527042,914.9831229210831,"[59, 0, 195]",195,l,0.2610480629373342,colour,0.5
038,65,0,1,12,35,585,915.4964276219252,916.1191556733102,"[52, 0, 202]",202,a,0.09989819093607366,colour,0.5
038,65,0,1,12,36,586,916.6370994832832,917.2711915606633,"[78, 0, 176]",176,l,0.11117872130125761,colour,0.5
038,65,0,1,12,37,587,917.7776417694986,918.3432680927217,"[7, 0, 247]",247,a,0.04309105919674039,colour,0.5
038,65,0,1,12,38,588,918.8558875017334,920.1990858837962,"[18, 0, 236]",236,a,0.8204701335635036,colour,0.5
038,65,0,1,12,39,589,920.7152191849891,921.2631744360551,"[39, 0, 215]",215,a,0.025544836185872555,colour,0.5
038,65,0,1,12,40,590,921.7775952958036,922.3511304357089,"[9, 0, 245]",245,a,0.05047960579395294,colour,0.5
038,65,0,1,12,41,591,922.8713191666175,923.44714176259,"[81, 0, 173]",173,l,0.05321801523678005,colour,0.5
038,65,0,1,12,42,592,923.965181671083,924.4951015431434,"[88, 0, 166]",166,l,0.007192411459982395,colour,0.5
038,65,0,1,12,43,593,925.0119189543184,925.5671926476061,"[93, 0, 161]",161,l,0.031452916795387864,colour,0.5
038,65,0,1,12,44,594,926.0747444431763,926.6311276000924,"[13, 0, 241]",241,a,0.033482010243460536,colour,0.5
038,65,0,1,12,45,595,927.1370827448554,927.7430542344227,"[54, 0, 200]",200,a,0.08261387562379241,colour,0.5
038,65,0,1,12,46,596,928.2619074343238,928.8311012124177,"[29, 0, 225]",225,a,0.04682629252783954,colour,0.5
038,65,0,1,12,47,597,929.3400413142517,929.9191009288188,"[14, 0, 240]",240,a,0.0562419630587101,colour,0.5
038,65,0,1,12,48,598,930.4337907850277,931.1352340329904,"[60, 0, 194]",194,a,0.1784948396962136,colour,0.5
038,65,0,1,12,49,599,931.6525539911818,932.3510804171674,"[61, 0, 193]",193,a,0.17536376579664648,colour,0.5
038,65,0,1,12,50,600,932.8713581573684,933.4073030818254,"[15, 0, 239]",239,a,0.013302140636369586,colour,0.5
038,65,0,1,13,1,601,947.0424325489439,949.2391659920104,"[91, 0, 163]",163,l,1.6730954109225422,colour,0.5
038,65,0,1,13,2,602,949.7464109819848,951.1670437739231,"[48, 0, 206]",206,a,0.8973421319387853,colour,0.5
038,65,0,1,13,3,603,951.6837946251035,952.2711183051579,"[25, 0, 229]",229,a,0.0639873337931931,colour,0.5
038,65,0,1,13,4,604,952.7775783604011,953.4470673259348,"[54, 0, 200]",200,a,0.14651220035739243,colour,0.5
038,65,0,1,13,5,605,953.9651147173718,954.511112555163,"[58, 0, 196]",196,a,0.022629590006545186,colour,0.5
038,65,0,1,13,6,606,955.0275967726484,955.6230482480023,"[41, 0, 213]",213,a,0.07213088287971914,colour,0.5
038,65,0,1,13,7,607,956.1369350526948,956.7030477754306,"[12, 0, 242]",242,a,0.04273187182843685,colour,0.5
038,65,0,1,13,8,608,957.2151087112725,957.767029989278,"[37, 0, 217]",217,a,0.028899614699184895,colour,0.5
038,65,0,1,13,9,609,958.2779468032531,958.91107592755,"[11, 0, 243]",243,a,0.1097510305698961,colour,0.5
038,65,0,1,13,10,610,959.4184993293602,959.9910214978736,"[52, 0, 202]",202,a,0.0492791635915637,colour,0.5
038,65,0,1,13,11,611,960.5121905109845,961.4790578419343,"[81, 0, 173]",173,l,0.4435380739159882,colour,0.5
038,65,0,1,13,12,612,961.9841433754191,963.5029926369898,"[75, 0, 179]",179,l,0.9955578136723489,colour,0.5
038,65,0,1,13,13,613,964.0154604155105,964.7910998733714,"[0, 0, 254]",254,a,0.25237912381999195,colour,0.5
038,65,0,1,13,14,614,965.3122921232134,965.8390565030277,"[28, 0, 226]",226,a,0.003481202758848667,colour,0.5
038,65,0,1,13,15,615,966.3592160893604,967.9191127440426,"[47, 0, 207]",207,a,1.0367623514030129,colour,0.5
038,65,0,1,13,16,616,968.4373208247125,968.9830335180741,"[27, 0, 227]",227,a,0.02245235932059586,colour,0.5
038,65,0,1,13,17,617,969.4997985477094,970.0390155429486,"[24, 0, 230]",230,a,0.01593421190045774,colour,0.5
038,65,0,1,13,18,618,970.5466260216199,971.5030162676703,"[59, 0, 195]",195,a,0.43307319818995893,colour,0.5
038,65,0,1,13,19,619,972.0157049936242,972.5670276260935,"[42, 0, 212]",212,a,0.027861043345183134,colour,0.5
038,65,0,1,13,20,620,973.0782532151788,974.5270290439948,"[3, 0, 251]",251,a,0.9254402702208608,colour,0.5
038,65,0,1,13,21,621,975.0469759537373,976.1669866661541,"[70, 0, 184]",184,l,0.5952545523177832,colour,0.5
038,65,0,1,13,22,622,976.6736487643793,977.1994777603541,"[98, 0, 156]",156,l,0.0024493266828358173,colour,0.5
038,65,0,1,13,23,623,977.7205353151076,978.4069958822802,"[73, 0, 181]",181,l,0.1631257962435484,colour,0.5
038,65,0,1,13,24,624,978.9236297612078,979.4950046571903,"[13, 0, 241]",241,a,0.04804800194688141,colour,0.5
038,65,0,1,13,25,625,980.0017849088181,980.567028807709,"[97, 0, 157]",157,l,0.04190203873440623,colour,0.5
038,65,0,1,13,26,626,981.079855773598,982.2310291386675,"[55, 0, 199]",199,a,0.6278181143570691,colour,0.5
038,65,0,1,13,27,627,982.7516944229137,983.3030458060093,"[2, 0, 252]",252,a,0.027933510951697826,colour,0.5
038,65,0,1,13,28,628,983.8142339796759,985.3190501227509,"[6, 0, 248]",248,a,0.9814325352199376,colour,0.5
038,65,0,1,13,29,629,985.8298791088164,986.6389674937818,"[76, 0, 178]",178,l,0.28639282565563917,colour,0.5
038,65,0,1,13,30,630,987.1580187981017,988.7109932198655,"[77, 0, 177]",177,l,1.029594752471894,colour,0.5
038,65,0,1,13,31,631,989.2206469704397,989.7510666325688,"[71, 0, 183]",183,l,0.016435577534139156,colour,0.5
038,65,0,1,13,32,632,990.2580934318248,990.8630547069479,"[15, 0, 239]",239,a,0.08154773502610624,colour,0.5
038,65,0,1,13,33,633,991.3831150440965,993.0230364326853,"[16, 0, 238]",238,a,1.1164747653529048,colour,0.5
038,65,0,1,13,34,634,993.5414768820629,995.1029989384115,"[23, 0, 231]",231,a,1.0383641221560538,colour,0.5
038,65,0,1,13,35,635,995.619631242007,996.2229643587489,"[80, 0, 174]",174,l,0.07998968125320971,colour,0.5
038,65,0,1,13,36,636,996.7311782091856,997.2870206157677,"[18, 0, 236]",236,a,0.04371491074562073,colour,0.5
038,65,0,1,13,37,637,997.7981839771383,999.1911530424841,"[33, 0, 221]",221,a,0.8695598577614874,colour,0.5
038,65,0,1,13,38,638,999.6965761017054,1000.2390045153443,"[67, 0, 187]",187,a,0.018991242861375213,colour,0.5
038,65,0,1,13,39,639,1000.7591255046427,1003.8789893127978,"[72, 0, 182]",182,l,2.5965499109588563,colour,0.5
038,65,0,1,13,40,640,1004.3996585356072,1005.0949747248087,"[93, 0, 161]",161,l,0.1718514491803944,colour,0.5
038,65,0,1,13,41,641,1005.6028620770667,1006.2709914869629,"[45, 0, 209]",209,a,0.14479227596893907,colour,0.5
038,65,0,1,13,42,642,1006.790383073967,1007.3989748193417,"[57, 0, 197]",197,a,0.08527233451604843,colour,0.5
038,65,0,1,13,43,643,1007.9168898786884,1008.6150366372894,"[68, 0, 186]",186,a,0.17479544621892273,colour,0.5
038,65,0,1,13,44,644,1009.1356215770356,1010.1910427657422,"[61, 0, 193]",193,a,0.5307386775966734,colour,0.5
038,65,0,1,13,45,645,1010.699393280549,1011.2790885621216,"[44, 0, 210]",210,a,0.05627504619769752,colour,0.5
038,65,0,1,13,46,646,1011.7932593296282,1012.3590301941149,"[10, 0, 244]",244,a,0.042701151920482516,colour,0.5
038,65,0,1,13,47,647,1012.871391634224,1014.4550742101856,"[85, 0, 169]",169,l,1.0603674973826855,colour,0.5
038,65,0,1,13,48,648,1014.9651800957508,1016.0549970164429,"[50, 0, 204]",204,a,0.5665640698280185,colour,0.5
038,65,0,1,13,49,649,1016.5745004557539,1018.7750053659547,"[38, 0, 216]",216,a,1.6772268530912697,colour,0.5
038,65,0,1,13,50,650,1019.293306787964,1019.8469629567116,"[94, 0, 160]",160,l,0.03055888693779707,colour,0.5
038,65,0,1,14,1,651,1026.9643880717922,1028.0870536987204,"[38, 0, 216]",216,a,0.5985140197444707,colour,0.5
038,65,0,1,14,2,652,1028.6059533725493,1029.182922847569,"[45, 0, 209]",209,a,0.05377688258886337,colour,0.5
038,65,0,1,14,3,653,1029.6995425480418,1035.6230242233723,"[33, 0, 221]",221,a,5.410062759416178,colour,0.5
038,65,0,1,14,4,654,1036.1427033178043,1037.9749868551735,"[26, 0, 228]",228,a,1.3090574678499252,colour,0.5
038,65,0,1,14,5,655,1038.4864641116,1039.4549332135357,"[59, 0, 195]",195,a,0.445076041854918,colour,0.5
038,65,0,1,14,6,656,1039.9708506870084,1040.5110046414193,"[44, 0, 210]",210,a,0.016815638868138194,colour,0.5
038,65,0,1,14,7,657,1041.0183063449804,1041.6629641226027,"[27, 0, 227]",227,a,0.12127338233403862,colour,0.5
038,65,0,1,14,8,658,1042.1745374773163,1043.7029906676617,"[0, 0, 254]",254,a,1.0051129057537764,colour,0.5
038,65,0,1,14,9,659,1044.2219261813443,1045.3509587189183,"[34, 0, 220]",220,a,0.6057596004102379,colour,0.5
038,65,0,1,14,10,660,1045.8625490090344,1046.503004846163,"[70, 0, 184]",184,l,0.11716557084582746,colour,0.5
038,65,0,1,14,11,661,1047.0187198829371,1049.0709568285383,"[30, 0, 224]",224,a,1.5289277746342123,colour,0.5
038,65,0,1,14,12,662,1049.5813395874575,1050.1349807900842,"[5, 0, 249]",249,a,0.030391502426937222,colour,0.5
038,65,0,1,14,13,663,1050.6436581967864,1052.046968076611,"[6, 0, 248]",248,a,0.8800932625308633,colour,0.5
038,65,0,1,14,14,664,1052.5655597629957,1053.1190379133914,"[85, 0, 169]",169,l,0.03016740409657359,colour,0.5
038,65,0,1,14,15,665,1053.6156344951596,1054.7269112842623,"[68, 0, 186]",186,l,0.5879451688379049,colour,0.5
038,65,0,1,14,16,666,1055.2406121937092,1055.7670284139458,"[84, 0, 170]",170,l,0.002140551805496216,colour,0.5
038,65,0,1,14,17,667,1056.2883234575856,1056.8469771351665,"[15, 0, 239]",239,a,0.03396171424537897,colour,0.5
038,65,0,1,14,18,668,1057.3539999958593,1059.0629282826558,"[42, 0, 212]",212,a,1.185565552674234,colour,0.5
038,65,0,1,14,19,669,1059.5727604450658,1060.1829807427712,"[80, 0, 174]",174,l,0.08779885503463447,colour,0.5
038,65,0,1,14,20,670,1060.697702106787,1061.3189252736047,"[73, 0, 181]",181,l,0.09775842679664493,colour,0.5
038,65,0,1,14,21,671,1061.8383204052225,1062.3909738427028,"[11, 0, 243]",243,a,0.03852796205319464,colour,0.5
038,65,0,1,14,22,672,1062.9072331741918,1063.526925462531,"[23, 0, 231]",231,a,0.09638154204003513,colour,0.5
038,65,0,1,14,23,673,1064.047825872898,1064.6229170972947,"[8, 0, 246]",246,a,0.05208137631416321,colour,0.5
038,65,0,1,14,24,674,1065.1415938544087,1067.1109648628626,"[89, 0, 165]",165,l,1.4469294799491763,colour,0.5
038,65,0,1,14,25,675,1067.6156860890333,1068.3909525750205,"[52, 0, 202]",202,a,0.2520132411736995,colour,0.5
038,65,0,1,14,26,676,1068.912426818395,1070.2709072038997,"[65, 0, 189]",189,a,0.8351066238246858,colour,0.5
038,65,0,1,14,27,677,1070.787464282941,1071.3669909986202,"[40, 0, 214]",214,a,0.05620888015255332,colour,0.5
038,65,0,1,14,28,678,1071.8812720428687,1073.28696980956,"[14, 0, 240]",240,a,0.8822960420511663,colour,0.5
038,65,0,1,14,29,679,1073.8032177197747,1074.3909443041775,"[86, 0, 168]",168,l,0.06451075500808656,colour,0.5
038,65,0,1,14,30,680,1074.8968301322311,1075.51897923043,"[56, 0, 198]",198,l,0.0986713613383472,colour,0.5
038,65,0,1,14,31,681,1076.0375224736053,1076.6629326147959,"[95, 0, 159]",159,l,0.1020328348968178,colour,0.5
038,65,0,1,14,32,682,1077.178222692106,1077.734909110237,"[97, 0, 157]",157,l,0.034127523424103856,colour,0.5
038,65,0,1,14,33,683,1078.2566566825844,1078.9029441939201,"[72, 0, 182]",182,l,0.12307089427486062,colour,0.5
038,65,0,1,14,34,684,1079.410840604687,1080.0469113630243,"[35, 0, 219]",219,a,0.11281318124383688,colour,0.5
038,65,0,1,14,35,685,1080.5684592556208,1081.2309161047451,"[79, 0, 175]",175,l,0.13903425075113773,colour,0.5
038,65,0,1,14,36,686,1081.7303365608677,1082.4229442726355,"[53, 0, 201]",201,a,0.1693812485318631,colour,0.5
038,65,0,1,14,37,687,1082.9333955608308,1083.6389206261374,"[87, 0, 167]",167,l,0.18186458386480808,colour,0.5
038,65,0,1,14,38,688,1084.15251401579,1085.2308999572415,"[81, 0, 173]",173,l,0.5662222118116915,colour,0.5
038,65,0,1,14,39,689,1085.7506503376644,1087.3429049667902,"[47, 0, 207]",207,a,1.0689230090938509,colour,0.5
038,65,0,1,14,40,690,1087.8600350916386,1089.6869260927197,"[19, 0, 235]",235,a,1.3025826434604824,colour,0.5
038,65,0,1,14,41,691,1090.2047584443353,1091.5029725506902,"[20, 0, 234]",234,a,0.7748186830431223,colour,0.5
038,65,0,1,14,42,692,1092.0173059767112,1093.5108975153416,"[67, 0, 187]",187,a,0.9703186014667153,colour,0.5
038,65,0,1,14,43,693,1094.0173024320975,1096.1589400034864,"[74, 0, 180]",180,l,1.618365422124043,colour,0.5
038,65,0,1,14,44,694,1096.6735782658216,1097.2150019789115,"[55, 0, 199]",199,a,0.018098394386470318,colour,0.5
038,65,0,1,14,45,695,1097.7359803705476,1099.518905581208,"[99, 0, 155]",155,l,1.2595805935561657,colour,0.5
038,65,0,1,14,46,696,1100.0329097521026,1100.5589266126044,"[57, 0, 197]",197,a,0.002643886487931013,colour,0.5
038,65,0,1,14,47,697,1101.0806312558707,1102.694890835788,"[32, 0, 222]",222,a,1.0917262851726264,colour,0.5
038,65,0,1,14,48,698,1103.2048029489815,1103.7749407752417,"[96, 0, 158]",158,l,0.04717563348822296,colour,0.5
038,65,0,1,14,49,699,1104.2827914999798,1104.8469164830167,"[41, 0, 213]",213,a,0.04046765249222517,colour,0.5
038,65,0,1,14,50,700,1105.3622640615795,1105.9109156322666,"[4, 0, 250]",250,a,0.025312073528766632,colour,0.5
038,65,0,1,15,1,701,1113.830218210118,1115.4308755386155,"[67, 0, 187]",187,l,1.0765053275972605,colour,0.5
038,65,0,1,15,2,702,1115.9403831723612,1117.3188606828917,"[61, 0, 193]",193,a,0.8551368319895118,colour,0.5
038,65,0,1,15,3,703,1117.8312607198022,1118.4628869288135,"[75, 0, 179]",179,l,0.10828789346851408,colour,0.5
038,65,0,1,15,4,704,1118.9738478532527,1120.4229064635,"[91, 0, 163]",163,l,0.9256399502046406,colour,0.5
038,65,0,1,15,5,705,1120.9426221856847,1122.7109077551868,"[92, 0, 162]",162,l,1.2449941218364984,colour,0.5
038,65,0,1,15,6,706,1123.2238579948898,1123.830885778647,"[93, 0, 161]",161,l,0.09302715747617185,colour,0.5
038,65,0,1,15,7,707,1124.33938516723,1124.8788443775848,"[36, 0, 218]",218,a,0.01604173192754388,colour,0.5
038,65,0,1,15,8,708,1125.3862532072235,1125.910932567669,"[38, 0, 216]",216,a,0.0012536111753433943,colour,0.5
038,65,0,1,15,9,709,1126.4330928903073,1126.9670457430184,"[30, 0, 224]",224,a,0.01052670949138701,colour,0.5
038,65,0,1,15,10,710,1127.4800302472431,1128.2629278886598,"[65, 0, 189]",189,a,0.25863378844223917,colour,0.5
038,65,0,1,15,11,711,1128.7779099785257,1129.814927148167,"[71, 0, 183]",183,l,0.5136571926996112,colour,0.5
038,65,0,1,15,12,712,1130.3247801847756,1131.8630019316915,"[7, 0, 247]",247,a,1.0149377821944654,colour,0.5
038,65,0,1,15,13,713,1132.3716356216464,1134.3669086848386,"[90, 0, 164]",164,l,1.4719225384760648,colour,0.5
038,65,0,1,15,14,714,1134.887143889442,1135.502874877071,"[72, 0, 182]",182,l,0.09230248141102493,colour,0.5
038,65,0,1,15,15,715,1136.0121812555008,1138.1268904104363,"[28, 0, 226]",226,a,1.5913716270588338,colour,0.5
038,65,0,1,15,16,716,1138.6323426142335,1139.230816067895,"[62, 0, 192]",192,a,0.0751276551745832,colour,0.5
038,65,0,1,15,17,717,1139.7417340634856,1140.3908296951558,"[69, 0, 185]",185,a,0.12580379005521536,colour,0.5
038,65,0,1,15,18,718,1140.8979096633848,1141.6948278204072,"[23, 0, 231]",231,a,0.2735451830085367,colour,0.5
038,65,0,1,15,19,719,1142.2115652807988,1142.7588584772311,"[14, 0, 240]",240,a,0.024657895555719733,colour,0.5
038,65,0,1,15,20,720,1143.2740922346711,1143.8068560669199,"[64, 0, 190]",190,l,0.009518070612102747,colour,0.5
038,65,0,1,15,21,721,1144.3210197454318,1144.9828338383231,"[11, 0, 243]",243,a,0.1385179189965129,colour,0.5
038,65,0,1,15,22,722,1145.4928302345797,1146.0708894808777,"[97, 0, 157]",157,l,0.054982050554826856,colour,0.5
038,65,0,1,15,23,723,1146.5865497731138,1147.270895388443,"[3, 0, 251]",251,a,0.16092341067269444,colour,0.5
038,65,0,1,15,24,724,1147.7897036899813,1148.3588285450824,"[79, 0, 175]",175,l,0.046079560881480575,colour,0.5
038,65,0,1,15,25,725,1148.8678033053875,1149.5988988070749,"[57, 0, 197]",197,a,0.2077528538648039,colour,0.5
038,65,0,1,15,26,726,1150.117761853151,1150.7188008183148,"[19, 0, 235]",235,a,0.07755847135558724,colour,0.5
038,65,0,1,15,27,727,1151.2273049328942,1151.8149881942663,"[96, 0, 158]",158,l,0.0645958255045116,colour,0.5
038,65,0,1,15,28,728,1152.3210512530059,1153.046851104591,"[47, 0, 207]",207,a,0.20243121008388698,colour,0.5
038,65,0,1,15,29,729,1153.5553725485224,1154.198857453419,"[59, 0, 195]",195,a,0.12011074949987233,colour,0.5
038,65,0,1,15,30,730,1154.7122933047358,1155.2868603204843,"[42, 0, 212]",212,a,0.05116883572191,colour,0.5
038,65,0,1,15,31,731,1155.80604513851,1156.3668838725425,"[58, 0, 196]",196,a,0.037436615442857146,colour,0.5
038,65,0,1,15,32,732,1156.8840762248728,1157.59886060399,"[10, 0, 244]",244,a,0.19134681462310255,colour,0.5
038,65,0,1,15,33,733,1158.1185475755483,1158.702857941622,"[54, 0, 200]",200,a,0.061041367473080754,colour,0.5
038,65,0,1,15,34,734,1159.212202917086,1159.7588738373015,"[44, 0, 210]",210,a,0.023322758497670293,colour,0.5
038,65,0,1,15,35,735,1160.2747554709204,1160.799304074375,"[20, 0, 234]",234,a,0.0012536109425127506,colour,0.5
038,65,0,1,15,36,736,1161.3216459602118,1161.8628514825832,"[24, 0, 230]",230,a,0.017833730205893517,colour,0.5
038,65,0,1,15,37,737,1162.3841063540895,1162.9349390424322,"[0, 0, 254]",254,a,0.025866214651614428,colour,0.5
038,65,0,1,15,38,738,1163.4484631151427,1164.0707878686953,"[78, 0, 176]",176,l,0.0991853300947696,colour,0.5
038,65,0,1,15,39,739,1164.58881399245,1165.166819281876,"[32, 0, 222]",222,a,0.054543700302019715,colour,0.5
038,65,0,1,15,40,740,1165.6825012355112,1166.2948486942332,"[46, 0, 208]",208,a,0.08893825090490282,colour,0.5
038,65,0,1,15,41,741,1166.8075689277612,1167.3668291280046,"[5, 0, 249]",249,a,0.03595142322592437,colour,0.5
038,65,0,1,15,42,742,1167.8856575156096,1168.5028295847587,"[50, 0, 204]",204,a,0.09379003685899079,colour,0.5
038,65,0,1,15,43,743,1169.0106539216358,1169.5588163358625,"[1, 0, 253]",253,a,0.024770929478108883,colour,0.5
038,65,0,1,15,44,744,1170.0731529125478,1170.654858776601,"[85, 0, 169]",169,l,0.058339585550129414,colour,0.5
038,65,0,1,15,45,745,1171.1669090786017,1171.7348642116413,"[25, 0, 229]",229,a,0.04466447280719876,colour,0.5
038,65,0,1,15,46,746,1172.2451079431921,1172.82284266036,"[84, 0, 170]",170,l,0.05284858774393797,colour,0.5
038,65,0,1,15,47,747,1173.3403646617662,1173.8868197544944,"[35, 0, 219]",219,a,0.01887466455809772,colour,0.5
038,65,0,1,15,48,748,1174.4070124237332,1174.998809010256,"[37, 0, 217]",217,a,0.06960199913010001,colour,0.5
038,65,0,1,15,49,749,1175.5163251038175,1176.126797068864,"[15, 0, 239]",239,a,0.08687095437198877,colour,0.5
038,65,0,1,15,50,750,1176.6415223712102,1177.1670933985151,"[99, 0, 155]",155,l,0.002260281005874276,colour,0.5
038,65,0,1,16,1,751,1187.947172285756,1191.8147936344612,"[69, 0, 185]",185,l,3.3434906154870987,colour,0.5
038,65,0,1,16,2,752,1192.3229019341525,1193.7028087109793,"[37, 0, 217]",217,a,0.8565235629212111,colour,0.5
038,65,0,1,16,3,753,1194.2135557772126,1195.718797273701,"[5, 0, 249]",249,a,0.981931931572035,colour,0.5
038,65,0,1,16,4,754,1196.229169398779,1197.5907800705172,"[16, 0, 238]",238,a,0.8382782638072968,colour,0.5
038,65,0,1,16,5,755,1198.1060929908417,1199.4707543917466,"[26, 0, 228]",228,a,0.8413274178747088,colour,0.5
038,65,0,1,16,6,756,1199.981070590904,1201.4148306560237,"[51, 0, 203]",203,a,0.9103965435642749,colour,0.5
038,65,0,1,16,7,757,1201.934202156961,1203.678872734541,"[9, 0, 245]",245,a,1.2214047296438366,colour,0.5
038,65,0,1,16,8,758,1204.1998196186032,1204.894834909588,"[79, 0, 175]",175,l,0.17164034792222083,colour,0.5
038,65,0,1,16,9,759,1205.4029660522938,1205.9427761794068,"[6, 0, 248]",248,a,0.01653325161896646,colour,0.5
038,65,0,1,16,10,760,1206.450894325273,1207.0227953989524,"[13, 0, 241]",241,a,0.048611595295369625,colour,0.5
038,65,0,1,16,11,761,1207.5445476975292,1208.142749791732,"[92, 0, 162]",162,l,0.07485708338208497,colour,0.5
038,65,0,1,16,12,762,1208.6414873190224,1209.3027827171609,"[88, 0, 166]",166,l,0.13801419036462903,colour,0.5
038,65,0,1,16,13,763,1209.813318682136,1211.5667783217505,"[2, 0, 252]",252,a,1.2304746038280427,colour,0.5
038,65,0,1,16,14,764,1212.079001128208,1213.2467865138315,"[70, 0, 184]",184,l,0.6444470700807869,colour,0.5
038,65,0,1,16,15,765,1213.7664049561135,1214.3347653564997,"[83, 0, 171]",171,l,0.04492204822599888,colour,0.5
038,65,0,1,16,16,766,1214.8446219374891,1215.4067938392982,"[27, 0, 227]",227,a,0.03679740382358432,colour,0.5
038,65,0,1,16,17,767,1215.9247018094175,1216.4868040005676,"[46, 0, 208]",208,a,0.038726066472008824,colour,0.5
038,65,0,1,16,18,768,1217.0059013848659,1218.3827731860802,"[21, 0, 233]",233,a,0.8538371408358216,colour,0.5
038,65,0,1,16,19,769,1218.896545381751,1219.5027649940457,"[86, 0, 168]",168,l,0.08290807832963765,colour,0.5
038,65,0,1,16,20,770,1220.0215626617428,1220.5987861673348,"[55, 0, 199]",199,a,0.05396395921707153,colour,0.5
038,65,0,1,16,21,771,1221.1152932278346,1221.6627821656875,"[17, 0, 237]",237,a,0.024186068447306752,colour,0.5
038,65,0,1,16,22,772,1222.1777441694867,1223.6228111528326,"[14, 0, 240]",240,a,0.9216215417254716,colour,0.5
038,65,0,1,16,23,773,1224.1328402382787,1224.6787620638497,"[78, 0, 176]",176,l,0.022568543907254934,colour,0.5
038,65,0,1,16,24,774,1225.1954298135825,1226.606808411656,"[97, 0, 157]",157,l,0.8880221657454967,colour,0.5
038,65,0,1,16,25,775,1227.1172675767448,1227.702806347981,"[53, 0, 201]",201,a,0.062285132706165314,colour,0.5
038,65,0,1,16,26,776,1228.2122198524885,1229.7507637653034,"[49, 0, 205]",205,a,1.0151327359490097,colour,0.5
038,65,0,1,16,27,777,1230.2591040402185,1230.8947667742614,"[94, 0, 160]",160,l,0.11295575345866382,colour,0.5
038,65,0,1,16,28,778,1231.4162670115475,1232.0068505532108,"[56, 0, 198]",198,a,0.06718378630466759,colour,0.5
038,65,0,1,16,29,779,1232.5259743251372,1234.0467869075947,"[67, 0, 187]",187,a,0.9976353498641402,colour,0.5
038,65,0,1,16,30,780,1234.5572169281077,1235.7187913660891,"[57, 0, 197]",197,a,0.6382172177545726,colour,0.5
038,65,0,1,16,31,781,1236.2291000820696,1236.782800361514,"[68, 0, 186]",186,a,0.030330850277096033,colour,0.5
038,65,0,1,16,32,782,1237.2935423078015,1237.9827786998358,"[0, 0, 254]",254,a,0.16605364554561675,colour,0.5
038,65,0,1,16,33,783,1238.496704495512,1239.1508177220821,"[77, 0, 177]",177,l,0.13082414190284908,colour,0.5
038,65,0,1,16,34,784,1239.6685177416075,1241.1028630617075,"[22, 0, 232]",232,a,0.9109424138441682,colour,0.5
038,65,0,1,16,35,785,1241.62165048928,1242.7747643324547,"[64, 0, 190]",190,l,0.6297751336824149,colour,0.5
038,65,0,1,16,36,786,1243.293558455538,1243.9347846547607,"[3, 0, 251]",251,a,0.11813640058971941,colour,0.5
038,65,0,1,16,37,787,1244.4496690710075,1245.0947711064946,"[89, 0, 165]",165,l,0.12167471088469028,colour,0.5
038,65,0,1,16,38,788,1245.6067658762913,1246.158748988295,"[23, 0, 231]",231,a,0.02940491889603436,colour,0.5
038,65,0,1,16,39,789,1246.6685043508187,1247.3429585299455,"[73, 0, 181]",181,l,0.15106781432405114,colour,0.5
038,65,0,1,16,40,790,1247.8560300739482,1248.3907375351992,"[71, 0, 183]",183,l,0.011412075022235513,colour,0.5
038,65,0,1,16,41,791,1248.8904722800944,1249.430779834278,"[1, 0, 253]",253,a,0.0172673799097538,colour,0.5
038,65,0,1,16,42,792,1249.937377735274,1251.1267915549688,"[4, 0, 250]",250,a,0.666126704076305,colour,0.5
038,65,0,1,16,43,793,1251.628121375339,1252.2787415839266,"[38, 0, 216]",216,a,0.12737326533533633,colour,0.5
038,65,0,1,16,44,794,1252.7999633722939,1253.3267821026966,"[36, 0, 218]",218,a,0.0018896718975156546,colour,0.5
038,65,0,1,16,45,795,1253.848426093813,1254.7108207154088,"[60, 0, 194]",194,a,0.3390311000403017,colour,0.5
038,65,0,1,16,46,796,1255.2216205571312,1255.8147455854341,"[72, 0, 182]",182,l,0.06972015299834311,colour,0.5
038,65,0,1,16,47,797,1256.3309493847191,1256.9347373933997,"[91, 0, 163]",163,l,0.08036068407818675,colour,0.5
038,65,0,1,16,48,798,1257.443562886212,1258.070766601013,"[41, 0, 213]",213,a,0.10403632838279009,colour,0.5
038,65,0,1,16,49,799,1258.5841622801963,1259.1347704764921,"[40, 0, 214]",214,a,0.030343847116455436,colour,0.5
038,65,0,1,16,50,800,1259.6324016910512,1260.214955111267,"[30, 0, 224]",224,a,0.05921864928677678,colour,0.5
