id,age,condition,counterbalance,block,trialinblock,trial,tstart,tend,trialstim,trialintensity,response,RT,trialtype,colourfreq
057,67,1,2,Practice,1,NA,4.170433385297656e-06,1.1560025112412404,"[23, 0, 231]",231,a,0.6303805322095286,colour,0.5
057,67,1,2,Practice,2,NA,1.6594140806992073,2.428128309256863,"[52, 0, 202]",202,a,0.23583570698974654,colour,0.5
057,67,1,2,Practice,3,NA,2.9429758304322604,3.643977085739607,"[56, 0, 198]",198,a,0.1683649392798543,colour,0.5
057,67,1,2,Practice,4,NA,4.159447925310815,96.93213207932422,"[39, 0, 215]",215,a,92.23985728155822,colour,0.5
057,67,1,2,Practice,5,NA,97.44273763490492,99.46805437080911,"[64, 0, 190]",190,a,1.4927567707782146,colour,0.5
057,67,1,2,Practice,6,NA,99.97706329455832,101.43602388948784,"[11, 0, 243]",243,a,0.9274053818371613,colour,0.5
057,67,1,2,Practice,7,NA,101.94303870765725,103.04407627772889,"[67, 0, 187]",187,a,0.568768893223023,colour,0.5
057,67,1,2,Practice,8,NA,103.55865336279385,104.58013106047292,"[24, 0, 230]",230,a,0.4881612813042011,colour,0.5
057,67,1,2,Practice,9,NA,105.0924211476522,106.41210360493278,"[16, 0, 238]",238,a,0.7868164470128249,colour,0.5
057,67,1,2,Practice,10,NA,106.92560792790027,108.05210755721782,"[57, 0, 197]",197,a,0.5935110726277344,colour,0.5
057,67,1,2,1,1,1,5.290694783470826,6.3521020715124905,"[55, 0, 199]",199,a,0.527582400420215,colour,0.5
057,67,1,2,1,2,2,6.858841641515028,7.640084794402355,"[0, 0, 254]",254,a,0.24890454119304195,colour,0.5
057,67,1,2,1,3,3,8.141758899932029,9.016096884792205,"[17, 0, 237]",237,a,0.34158265130827203,colour,0.5
057,67,1,2,1,4,4,9.524796876154142,10.512173315219115,"[92, 0, 162]",162,l,0.4543529149668757,colour,0.5
057,67,1,2,1,5,5,11.02509762806585,11.784110160835553,"[2, 0, 252]",252,a,0.22629024178604595,colour,0.5
057,67,1,2,1,6,6,12.291864748549415,13.312010476103751,"[3, 0, 251]",251,a,0.4875312260701321,colour,0.5
057,67,1,2,1,7,7,13.824683921731776,14.680041973741027,"[38, 0, 216]",216,a,0.32221518954611383,colour,0.5
057,67,1,2,1,8,8,15.192312812781893,16.096119674562942,"[57, 0, 197]",197,a,0.37164950324222445,colour,0.5
057,67,1,2,1,9,9,16.607734152610647,17.23996154224733,"[84, 0, 170]",170,l,0.0988022213568911,colour,0.5
057,67,1,2,1,10,10,17.741551276820246,19.37596076205955,"[45, 0, 209]",209,a,1.1015036954777315,colour,0.5
057,67,1,2,1,11,11,19.891815922484966,20.880072000814835,"[26, 0, 228]",228,a,0.4556239327357616,colour,0.5
057,67,1,2,1,12,12,21.391841426258907,22.288015444675693,"[13, 0, 241]",241,a,0.3635287199576851,colour,0.5
057,67,1,2,1,13,13,22.791345530422404,23.64016114527476,"[35, 0, 219]",219,a,0.31572087269159965,colour,0.5
057,67,1,2,1,14,14,24.140919681754895,25.080063531640917,"[56, 0, 198]",198,a,0.40560608010855503,colour,0.5
057,67,1,2,1,15,15,25.591885247820755,26.487987727392465,"[12, 0, 242]",242,a,0.3635595169616863,colour,0.5
057,67,1,2,1,16,16,26.99106085067615,27.959987642709166,"[60, 0, 194]",194,a,0.43552889191778377,colour,0.5
057,67,1,2,1,17,17,28.475085068668704,29.75202835118398,"[75, 0, 179]",179,l,0.7442780943238176,colour,0.5
057,67,1,2,1,18,18,30.258058307052124,31.096033058012836,"[52, 0, 202]",202,a,0.3049467356468085,colour,0.5
057,67,1,2,1,19,19,31.608368057466578,32.800088348885765,"[81, 0, 173]",173,l,0.659008586924756,colour,0.5
057,67,1,2,1,20,20,33.308424871531315,34.31218852123129,"[22, 0, 232]",232,a,0.47111001040320843,colour,0.5
057,67,1,2,1,21,21,34.82497809722554,35.85610584157985,"[54, 0, 200]",200,a,0.49835540825733915,colour,0.5
057,67,1,2,1,22,22,36.35853992716875,37.4559822686133,"[9, 0, 245]",245,a,0.5648852635349613,colour,0.5
057,67,1,2,1,23,23,37.95836823389982,38.66400411652285,"[76, 0, 178]",178,l,0.1729184036666993,colour,0.5
057,67,1,2,1,24,24,39.174333140748786,40.00001122805406,"[53, 0, 201]",201,a,0.2922760167857632,colour,0.5
057,67,1,2,1,25,25,40.50819986095303,41.46412935765693,"[72, 0, 182]",182,a,0.4230853009503335,colour,0.5
057,67,1,2,1,26,26,41.97610185079975,42.71209651522804,"[47, 0, 207]",207,a,0.20434160673175938,colour,0.5
057,67,1,2,1,27,27,43.22488737441017,44.07999744641711,"[1, 0, 253]",253,a,0.322304693312617,colour,0.5
057,67,1,2,1,28,28,44.59126289183041,45.30414793849923,"[44, 0, 210]",210,a,0.17979287094203755,colour,0.5
057,67,1,2,1,29,29,45.80846513216966,46.38398979592603,"[29, 0, 225]",225,a,0.042937430465826765,colour,0.5
057,67,1,2,1,30,30,46.89193654406699,47.76011737505905,"[59, 0, 195]",195,a,0.3357514323142823,colour,0.5
057,67,1,2,1,31,31,48.27483336738078,49.552116058475804,"[97, 0, 157]",157,l,0.7444423449633177,colour,0.5
057,67,1,2,1,32,32,50.05919054581318,51.08801910182228,"[91, 0, 163]",163,l,0.4970163804537151,colour,0.5
057,67,1,2,1,33,33,51.59109575394541,52.52800521752215,"[88, 0, 166]",166,l,0.4036520747758914,colour,0.5
057,67,1,2,1,34,34,53.04170587135013,54.06414020076045,"[18, 0, 236]",236,a,0.489792559761554,colour,0.5
057,67,1,2,1,35,35,54.574826277646935,55.96802662144182,"[80, 0, 174]",174,l,0.8603089901444037,colour,0.5
057,67,1,2,1,36,36,56.47507801101892,57.83999163346016,"[62, 0, 192]",192,l,0.8322785896307323,colour,0.5
057,67,1,2,1,37,37,58.34169268637197,60.16801205702359,"[93, 0, 161]",161,l,1.2937077563838102,colour,0.5
057,67,1,2,1,38,38,60.674907216016436,61.536030722549185,"[28, 0, 226]",226,a,0.32839832836179994,colour,0.5
057,67,1,2,1,39,39,62.04134336501011,63.12009449544712,"[66, 0, 188]",188,a,0.5457696313969791,colour,0.5
057,67,1,2,1,40,40,63.625138305767905,64.36798466052278,"[21, 0, 233]",233,a,0.21033964277012274,colour,0.5
057,67,1,2,1,41,41,64.87465750370757,65.88817161112092,"[79, 0, 175]",175,l,0.4805239467532374,colour,0.5
057,67,1,2,1,42,42,66.39122741110623,67.47996414714726,"[30, 0, 224]",224,a,0.5556875477777794,colour,0.5
057,67,1,2,1,43,43,67.9911230862781,69.07998301030602,"[31, 0, 223]",223,a,0.5557080791040789,colour,0.5
057,67,1,2,1,44,44,69.59114708227571,70.56798677780898,"[27, 0, 227]",227,a,0.44371896842494607,colour,0.5
057,67,1,2,1,45,45,71.07501282406156,72.28011344841798,"[48, 0, 206]",206,a,0.6725108246610034,colour,0.5
057,67,1,2,1,46,46,72.79162591142813,73.6320150186657,"[43, 0, 211]",211,a,0.3077168613963295,colour,0.5
057,67,1,2,1,47,47,74.14130624823156,74.87198907218408,"[90, 0, 164]",164,l,0.19772666829521768,colour,0.5
057,67,1,2,1,48,48,75.37504711779184,76.29602202240494,"[64, 0, 190]",190,a,0.38843707484193146,colour,0.5
057,67,1,2,1,49,49,76.80798649549251,77.80012909072684,"[78, 0, 176]",176,a,0.45921595333493315,colour,0.5
057,67,1,2,1,50,50,78.30834723741282,79.33611297621974,"[11, 0, 243]",243,a,0.49519486640929244,colour,0.5
057,67,1,2,2,1,51,88.82397334519192,89.76800974723301,"[68, 0, 186]",186,a,0.41047521369182505,colour,0.5
057,67,1,2,2,2,52,90.27473744755844,91.16000804569921,"[52, 0, 202]",202,a,0.3524546329572331,colour,0.5
057,67,1,2,2,3,53,91.67416969209444,92.55217540686135,"[88, 0, 166]",166,l,0.3446459901169874,colour,0.5
057,67,1,2,2,4,54,93.05824738778756,93.90400158861303,"[63, 0, 191]",191,a,0.31314194496371783,colour,0.5
057,67,1,2,2,5,55,94.40760467690416,95.35207319931942,"[54, 0, 200]",200,a,0.4111610885011032,colour,0.5
057,67,1,2,2,6,56,95.85774898971431,96.90403591442737,"[69, 0, 185]",185,a,0.513172292849049,colour,0.5
057,67,1,2,2,7,57,97.40822959929937,98.26398127540597,"[56, 0, 198]",198,a,0.3231400618387852,colour,0.5
057,67,1,2,2,8,58,98.77461506158579,99.55201019378728,"[1, 0, 253]",253,a,0.24450281614554115,colour,0.5
057,67,1,2,2,9,59,100.05824578375905,100.9601098682906,"[90, 0, 164]",164,l,0.3692653023463208,colour,0.5
057,67,1,2,2,10,60,101.47494487816584,102.58403522148728,"[27, 0, 227]",227,a,0.576535511034308,colour,0.5
057,67,1,2,2,11,61,103.09151327781728,104.16802424748312,"[5, 0, 249]",249,a,0.5438730496389326,colour,0.5
057,67,1,2,2,12,62,104.67447894526413,105.61607532689231,"[71, 0, 183]",183,a,0.40858472720719874,colour,0.5
057,67,1,2,2,13,63,106.12482215533964,107.10417116456665,"[62, 0, 192]",192,a,0.44666008168132976,colour,0.5
057,67,1,2,2,14,64,107.60841842339141,108.46400616964092,"[26, 0, 228]",228,a,0.323189786169678,colour,0.5
057,67,1,2,2,15,65,108.974287394376,109.60011895338539,"[30, 0, 224]",224,a,0.09264699229970574,colour,0.5
057,67,1,2,2,16,66,110.10736025782535,110.78402161947452,"[77, 0, 177]",177,l,0.14322271969285794,colour,0.5
057,67,1,2,2,17,67,111.2916196557926,112.35206165045383,"[81, 0, 173]",173,l,0.5279285458382219,colour,0.5
057,67,1,2,2,18,68,112.85769734057249,114.4559691157483,"[4, 0, 250]",250,a,1.065171579393791,colour,0.5
057,67,1,2,2,19,69,114.95825627399608,115.92010200221557,"[57, 0, 197]",197,a,0.4292960287712049,colour,0.5
057,67,1,2,2,20,70,116.42506112079718,117.32805507016019,"[24, 0, 230]",230,a,0.37056455068523064,colour,0.5
057,67,1,2,2,21,71,117.84178138815332,118.99199502627016,"[14, 0, 240]",240,a,0.6178548158786725,colour,0.5
057,67,1,2,2,22,72,119.50840453268029,120.49601259082556,"[98, 0, 156]",156,l,0.4551793010905385,colour,0.5
057,67,1,2,2,23,73,121.00810763036134,122.08802166825626,"[60, 0, 194]",194,a,0.5472488497034647,colour,0.5
057,67,1,2,2,24,74,122.59087504213676,123.75201872712933,"[15, 0, 239]",239,a,0.6279186971951276,colour,0.5
057,67,1,2,2,25,75,124.25760405132314,125.34395947371377,"[45, 0, 209]",209,a,0.5532010110327974,colour,0.5
057,67,1,2,2,26,76,125.85710931039648,126.69601246251841,"[55, 0, 199]",199,a,0.30518797878175974,colour,0.5
057,67,1,2,2,27,77,127.20766960724723,128.16009819108876,"[21, 0, 233]",233,a,0.419320047221845,colour,0.5
057,67,1,2,2,28,78,128.67442633374594,129.5841571262572,"[79, 0, 175]",175,l,0.37673004536191,colour,0.5
057,67,1,2,2,29,79,130.09116039556102,130.89609157230007,"[50, 0, 204]",204,a,0.27201640454586595,colour,0.5
057,67,1,2,2,30,80,131.40828541887458,132.33602507645264,"[20, 0, 234]",234,a,0.39526278019184247,colour,0.5
057,67,1,2,2,31,81,132.8416023805912,133.81601585017052,"[19, 0, 235]",235,a,0.4419221560820006,colour,0.5
057,67,1,2,2,32,82,134.32468504455755,135.1921107074886,"[17, 0, 237]",237,a,0.33472133689792827,colour,0.5
057,67,1,2,2,33,83,135.7086122840701,136.600009239075,"[75, 0, 179]",179,l,0.3592793759016786,colour,0.5
057,67,1,2,2,34,84,137.1074388543202,137.95206254869117,"[9, 0, 245]",245,a,0.31129444591351785,colour,0.5
057,67,1,2,2,35,85,138.45781918120338,139.3440185012878,"[42, 0, 212]",212,a,0.3532717158086598,colour,0.5
057,67,1,2,2,36,86,139.85912394733168,140.82411449810024,"[94, 0, 160]",160,l,0.4333904254017398,colour,0.5
057,67,1,2,2,37,87,141.34156147832982,142.2800611576822,"[22, 0, 232]",232,a,0.4060173483157996,colour,0.5
057,67,1,2,2,38,88,142.79066767569748,143.7840434340178,"[28, 0, 226]",226,a,0.4600022391823586,colour,0.5
057,67,1,2,2,39,89,144.29131104421685,145.24010846958845,"[66, 0, 188]",188,l,0.41606968076666817,colour,0.5
057,67,1,2,2,40,90,145.75739761520526,146.839998049516,"[97, 0, 157]",157,l,0.5493051908561029,colour,0.5
057,67,1,2,2,41,91,147.35846902991761,148.3920406443358,"[23, 0, 231]",231,a,0.5013587571156677,colour,0.5
057,67,1,2,2,42,92,148.9073135490471,150.11202792773838,"[2, 0, 252]",252,a,0.6713459923921619,colour,0.5
057,67,1,2,2,43,93,150.62387306246092,151.76800878482754,"[43, 0, 211]",211,a,0.610664037783863,colour,0.5
057,67,1,2,2,44,94,152.27524174840073,153.46402156815748,"[47, 0, 207]",207,a,0.6566818096034694,colour,0.5
057,67,1,2,2,45,95,153.9747653894301,154.84800751446164,"[91, 0, 163]",163,l,0.3406731774448417,colour,0.5
057,67,1,2,2,46,96,155.3580083581619,156.34413270681398,"[13, 0, 241]",241,a,0.4534402331337333,colour,0.5
057,67,1,2,2,47,97,156.85840406749048,157.86402644435293,"[38, 0, 216]",216,a,0.473372627311619,colour,0.5
057,67,1,2,2,48,98,158.37412641590345,159.9041802753345,"[51, 0, 203]",203,a,0.9968400997167919,colour,0.5
057,67,1,2,2,49,99,160.40746127837338,161.36810752769816,"[11, 0, 243]",243,a,0.42746360739693046,colour,0.5
057,67,1,2,2,50,100,161.87447079690173,162.7919803977129,"[78, 0, 176]",176,l,0.38466380105819553,colour,0.5
057,67,1,2,3,1,101,173.0072976051597,173.9121156350302,"[40, 0, 214]",214,a,0.3715041799005121,colour,0.5
057,67,1,2,3,2,102,174.42432648409158,176.4801011296222,"[21, 0, 233]",233,a,1.5228326051437762,colour,0.5
057,67,1,2,3,3,103,176.99068262506626,177.94413296345738,"[62, 0, 192]",192,l,0.4201528493431397,colour,0.5
057,67,1,2,3,4,104,178.45763279520907,179.1840194380202,"[28, 0, 226]",226,a,0.1933836500684265,colour,0.5
057,67,1,2,3,5,105,179.6913409429544,180.32000422175042,"[10, 0, 244]",244,a,0.09603819085168652,colour,0.5
057,67,1,2,3,6,106,180.82439295426593,183.04011565554538,"[4, 0, 250]",250,a,1.6828704854706302,colour,0.5
057,67,1,2,3,7,107,183.55783531753696,184.5680425973842,"[72, 0, 182]",182,l,0.4774580415105447,colour,0.5
057,67,1,2,3,8,108,185.07404785146355,185.70413934101816,"[29, 0, 225]",225,a,0.09690403559943661,colour,0.5
057,67,1,2,3,9,109,186.20732955704443,187.05602262550383,"[18, 0, 236]",236,a,0.31544819092960097,colour,0.5
057,67,1,2,3,10,110,187.55727263074368,188.63211093848804,"[56, 0, 198]",198,a,0.5415485179692041,colour,0.5
057,67,1,2,3,11,111,189.14119043867686,190.04835898519377,"[73, 0, 181]",181,l,0.37444048112956807,colour,0.5
057,67,1,2,3,12,112,190.55766561324708,191.34403646620922,"[34, 0, 220]",220,a,0.25347693290677853,colour,0.5
057,67,1,2,3,13,113,191.85817084441078,192.8960290158866,"[75, 0, 179]",179,l,0.5054358304478228,colour,0.5
057,67,1,2,3,14,114,193.40805476217065,194.45599606310134,"[22, 0, 232]",232,a,0.5154490250279196,colour,0.5
057,67,1,2,3,15,115,194.95716875503422,195.99205309143872,"[91, 0, 163]",163,l,0.5015153085114434,colour,0.5
057,67,1,2,3,16,116,196.50756114406977,197.60815023287432,"[71, 0, 183]",183,l,0.567608873010613,colour,0.5
057,67,1,2,3,17,117,198.12499795487383,199.31206276683952,"[99, 0, 155]",155,l,0.6548586915014312,colour,0.5
057,67,1,2,3,18,118,199.82445166105754,200.7760079841246,"[76, 0, 178]",178,l,0.4187788541603368,colour,0.5
057,67,1,2,3,19,119,201.2909273649566,202.41598851783783,"[90, 0, 164]",164,l,0.5921261701732874,colour,0.5
057,67,1,2,3,20,120,202.92484024859732,203.93615333311027,"[65, 0, 189]",189,l,0.4789302021381445,colour,0.5
057,67,1,2,3,21,121,204.4411891233758,205.33618034463143,"[43, 0, 211]",211,l,0.3623192961968016,colour,0.5
057,67,1,2,3,22,122,205.8406666009978,207.19209530900116,"[57, 0, 197]",197,l,0.8182495949149597,colour,0.5
057,67,1,2,3,23,123,207.7078173365735,209.28801672789268,"[97, 0, 157]",157,l,1.0475152758008335,colour,0.5
057,67,1,2,3,24,124,209.7916227034002,210.66407052255818,"[7, 0, 247]",247,a,0.3402243753953371,colour,0.5
057,67,1,2,3,25,125,211.1752689203422,211.9041007164342,"[81, 0, 173]",173,l,0.1969394200714305,colour,0.5
057,67,1,2,3,26,126,212.4077124664036,213.36007047377643,"[17, 0, 237]",237,a,0.4195744432217907,colour,0.5
057,67,1,2,3,27,127,213.8740348269057,214.7600272296695,"[9, 0, 245]",245,a,0.35286846762755886,colour,0.5
057,67,1,2,3,28,128,215.27479198391666,216.13613588147564,"[49, 0, 205]",205,a,0.3289436918566935,colour,0.5
057,67,1,2,3,29,129,216.64086177697754,217.60005415137857,"[70, 0, 184]",184,l,0.4262365395552479,colour,0.5
057,67,1,2,3,30,130,218.10800410754746,219.12004797914415,"[8, 0, 246]",246,a,0.4795660318050068,colour,0.5
057,67,1,2,3,31,131,219.62463753376505,220.8321711209428,"[50, 0, 204]",204,a,0.6750255919760093,colour,0.5
057,67,1,2,3,32,132,221.3405772576225,223.0960545517446,"[47, 0, 207]",207,a,1.2222519855422433,colour,0.5
057,67,1,2,3,33,133,223.60773960623192,224.5120998515631,"[32, 0, 222]",222,a,0.37162961350986734,colour,0.5
057,67,1,2,3,34,134,225.0239180389035,225.87215236044722,"[77, 0, 177]",177,l,0.3150195994239766,colour,0.5
057,67,1,2,3,35,135,226.37420757880318,227.33604400377953,"[2, 0, 252]",252,a,0.42890400867327116,colour,0.5
057,67,1,2,3,36,136,227.84094730278593,228.67202737595653,"[33, 0, 221]",221,a,0.2982204789004754,colour,0.5
057,67,1,2,3,37,137,229.17417594772996,229.96799614522024,"[16, 0, 238]",238,a,0.2608839315653313,colour,0.5
057,67,1,2,3,38,138,230.47406267252518,231.2002103178238,"[0, 0, 254]",254,a,0.19310936430701986,colour,0.5
057,67,1,2,3,39,139,231.70780001327512,233.2800111125689,"[61, 0, 193]",193,a,1.0395619512128178,colour,0.5
057,67,1,2,3,40,140,233.79099393138313,234.63200988582685,"[80, 0, 174]",174,l,0.30824618478072807,colour,0.5
057,67,1,2,3,41,141,235.14057770674117,235.93599196968717,"[44, 0, 210]",210,a,0.26223579145153053,colour,0.5
057,67,1,2,3,42,142,236.4412609830615,237.25604302852298,"[58, 0, 196]",196,a,0.2822477445297409,colour,0.5
057,67,1,2,3,43,143,237.757948111539,238.56801982043544,"[98, 0, 156]",156,l,0.2776073427812662,colour,0.5
057,67,1,2,3,44,144,239.07509045815095,239.92801843455527,"[26, 0, 228]",228,a,0.3209361517219804,colour,0.5
057,67,1,2,3,45,145,240.44055297289742,241.2481577139697,"[27, 0, 227]",227,a,0.27437879086937755,colour,0.5
057,67,1,2,3,46,146,241.75771264283685,243.0720444426115,"[95, 0, 159]",159,l,0.7816284361470025,colour,0.5
057,67,1,2,3,47,147,243.57527123010368,244.6000573594065,"[46, 0, 208]",208,a,0.4929851818305906,colour,0.5
057,67,1,2,3,48,148,245.10720819764538,247.39214458418428,"[64, 0, 190]",190,a,1.75174315815093,colour,0.5
057,67,1,2,3,49,149,247.90778737366782,249.0881204752659,"[55, 0, 199]",199,a,0.6477115424640942,colour,0.5
057,67,1,2,3,50,150,249.59036464605015,250.4240204389207,"[96, 0, 158]",158,l,0.3002999178424943,colour,0.5
057,67,1,2,4,1,151,266.60720322519774,267.24022556233103,"[17, 0, 237]",237,a,0.09988717391388491,colour,0.5
057,67,1,2,4,2,152,267.75749385583913,268.4080191531684,"[82, 0, 172]",172,l,0.11764196373405866,colour,0.5
057,67,1,2,4,3,153,268.92441422346747,269.4961537437339,"[35, 0, 219]",219,a,0.03915389100438915,colour,0.5
057,67,1,2,4,4,154,270.0073957706045,270.5441450897779,"[33, 0, 221]",221,a,0.0038162612763699144,colour,0.5
057,67,1,2,4,5,155,271.05771806437406,271.7840581909113,"[53, 0, 201]",201,a,0.1936961112660356,colour,0.5
057,67,1,2,4,6,156,272.2905430440733,272.8961153116543,"[90, 0, 164]",164,l,0.07245859809336253,colour,0.5
057,67,1,2,4,7,157,273.4074208573147,274.0001799699385,"[89, 0, 165]",165,l,0.059851398080354556,colour,0.5
057,67,1,2,4,8,158,274.50764872302534,277.0640372232883,"[52, 0, 202]",202,a,2.0237236328830477,colour,0.5
057,67,1,2,4,9,159,277.5738564930507,278.2080032413651,"[32, 0, 222]",222,a,0.10103789088316262,colour,0.5
057,67,1,2,4,10,160,278.7243614194449,281.3120300450246,"[31, 0, 223]",223,a,2.0550534825015347,colour,0.5
057,67,1,2,4,11,161,281.8248189793958,283.2000534456165,"[44, 0, 210]",210,a,0.8430652379756793,colour,0.5
057,67,1,2,4,12,162,283.7076322337962,284.3760229976615,"[56, 0, 198]",198,a,0.13573904935037717,colour,0.5
057,67,1,2,4,13,163,284.89056030323263,285.9840423433052,"[11, 0, 243]",243,a,0.5604241901601199,colour,0.5
057,67,1,2,4,14,164,286.4906423643988,287.61610516146175,"[12, 0, 242]",242,a,0.5924906012951396,colour,0.5
057,67,1,2,4,15,165,288.12374137321603,288.88802981661865,"[81, 0, 173]",173,l,0.23108527014846914,colour,0.5
057,67,1,2,4,16,166,289.39097397748264,290.2161500095972,"[54, 0, 200]",200,a,0.2925419617095031,colour,0.5
057,67,1,2,4,17,167,290.7238962564443,291.4482008939376,"[4, 0, 250]",250,a,0.19126603569020517,colour,0.5
057,67,1,2,4,18,168,291.9575774568366,293.1120956169616,"[55, 0, 199]",199,l,0.6217711673816666,colour,0.5
057,67,1,2,4,19,169,293.6243696640595,294.8961698479834,"[47, 0, 207]",207,a,0.7392366899875924,colour,0.5
057,67,1,2,4,20,170,295.4073268623324,295.984049400955,"[19, 0, 235]",235,a,0.043763495748862624,colour,0.5
057,67,1,2,4,21,171,296.49104015895864,297.17606739664916,"[43, 0, 211]",211,a,0.15244962845463306,colour,0.5
057,67,1,2,4,22,172,297.6910589579493,298.5760459670855,"[68, 0, 186]",186,l,0.3524799763399642,colour,0.5
057,67,1,2,4,23,173,299.0909544406459,300.4961704254383,"[65, 0, 189]",189,l,0.8725357188959606,colour,0.5
057,67,1,2,4,24,174,301.00724980566883,301.67203186717234,"[36, 0, 218]",218,a,0.1317967128707096,colour,0.5
057,67,1,2,4,25,175,302.17425486503635,302.8962083442311,"[59, 0, 195]",195,a,0.18930593511322513,colour,0.5
057,67,1,2,4,26,176,303.4070381404599,304.0240495677572,"[26, 0, 228]",228,a,0.08382557734148577,colour,0.5
057,67,1,2,4,27,177,304.54098454792984,305.4880031258799,"[61, 0, 193]",193,a,0.4144425727427006,colour,0.5
057,67,1,2,4,28,178,305.99101529680775,306.8480216297612,"[79, 0, 175]",175,l,0.32443546058493666,colour,0.5
057,67,1,2,4,29,179,307.3575361375406,308.2481002904242,"[23, 0, 231]",231,a,0.3578835661755875,colour,0.5
057,67,1,2,4,30,180,308.75767895861645,309.4001508411311,"[96, 0, 158]",158,l,0.10993726074229926,colour,0.5
057,67,1,2,4,31,181,309.90739054151345,310.5521141336649,"[39, 0, 215]",215,a,0.1119040981575381,colour,0.5
057,67,1,2,4,32,182,311.05764909193385,311.6640653897193,"[18, 0, 236]",236,a,0.07383933014352806,colour,0.5
057,67,1,2,4,33,183,312.1743761282123,312.7200713335478,"[2, 0, 252]",252,a,0.013162829185603186,colour,0.5
057,67,1,2,4,34,184,313.2242881161801,314.208065476967,"[30, 0, 224]",224,a,0.45120071395649575,colour,0.5
057,67,1,2,4,35,185,314.7242558755679,315.5522129407036,"[66, 0, 188]",188,l,0.29528096967260353,colour,0.5
057,67,1,2,4,36,186,316.0576304854185,316.624035709101,"[7, 0, 247]",247,a,0.033787514170398936,colour,0.5
057,67,1,2,4,37,187,317.141743822227,317.7680899477564,"[74, 0, 180]",180,l,0.09454068684135564,colour,0.5
057,67,1,2,4,38,188,318.27405413918314,318.96815526305,"[34, 0, 220]",220,a,0.16128644190030172,colour,0.5
057,67,1,2,4,39,189,319.4742214695434,320.64005399739835,"[62, 0, 192]",192,l,0.6331897958007175,colour,0.5
057,67,1,2,4,40,190,321.157634110481,321.78402931871824,"[25, 0, 229]",229,a,0.09385000000474975,colour,0.5
057,67,1,2,4,41,191,322.2905260415864,323.1680826334632,"[63, 0, 191]",191,l,0.3445766968652606,colour,0.5
057,67,1,2,4,42,192,323.6737443085585,324.2880125574593,"[15, 0, 239]",239,a,0.08116965711815283,colour,0.5
057,67,1,2,4,43,193,324.7916255906166,325.6480442142056,"[60, 0, 194]",194,l,0.32454357083770446,colour,0.5
057,67,1,2,4,44,194,326.15753337863134,326.70402481468045,"[87, 0, 167]",167,l,0.013866348104784265,colour,0.5
057,67,1,2,4,45,195,327.2079961837153,328.247999237763,"[73, 0, 181]",181,l,0.507831580209313,colour,0.5
057,67,1,2,4,46,196,328.7578053546313,329.6081515160913,"[21, 0, 233]",233,a,0.31798605603398755,colour,0.5
057,67,1,2,4,47,197,330.12426363897976,330.76803958183154,"[97, 0, 157]",157,l,0.11117331107379869,colour,0.5
057,67,1,2,4,48,198,331.27516603912227,331.9521305587259,"[28, 0, 226]",226,a,0.14531531152897514,colour,0.5
057,67,1,2,4,49,199,332.456970659754,333.0480423535628,"[98, 0, 156]",156,l,0.057897713559214026,colour,0.5
057,67,1,2,4,50,200,333.557382986648,337.1605165169749,"[99, 0, 155]",155,l,3.0703467581479345,colour,0.5
057,67,1,2,5,1,201,355.6570895490004,358.10404348536395,"[58, 0, 196]",196,a,1.913948056375375,colour,0.4
057,67,1,2,5,2,202,358.60735592697165,359.2560346876853,"[53, 0, 201]",201,a,0.11597186824656092,colour,0.4
057,67,1,2,5,3,203,359.7741822996177,361.9360789070197,"[38, 0, 216]",216,a,1.6293305470608175,colour,0.4
057,67,1,2,5,4,204,362.44030948414,363.49601547804195,"[83, 0, 171]",171,l,0.5226260086346883,colour,0.4
057,67,1,2,5,5,205,364.00825167048606,364.77612636008416,"[2, 0, 252]",252,a,0.2360705341270659,colour,0.4
057,67,1,2,5,6,206,365.2906270942185,366.0081644123129,"[46, 0, 208]",208,a,0.1847874381346628,colour,0.4
057,67,1,2,5,7,207,366.52352874563076,367.3921914212988,"[94, 0, 160]",160,l,0.3354655976872891,colour,0.4
057,67,1,2,5,8,208,367.90720255151973,368.5680284820846,"[18, 0, 236]",236,a,0.12798622605623677,colour,0.4
057,67,1,2,5,9,209,369.0738332348992,369.6321940261987,"[71, 0, 183]",183,a,0.025480986543698236,colour,0.4
057,67,1,2,5,10,210,370.14068870426854,370.91218813628075,"[68, 0, 186]",186,l,0.23880312603432685,colour,0.4
057,67,1,2,5,11,211,371.42412245398737,372.11225184757495,"[59, 0, 195]",195,l,0.1554991728044115,colour,0.4
057,67,1,2,5,12,212,372.6244796991523,373.8960521136469,"[0, 0, 254]",254,a,0.7393534619477578,colour,0.4
057,67,1,2,5,13,213,374.4068857594975,376.03204652143177,"[44, 0, 210]",210,a,1.0920188618765678,colour,0.4
057,67,1,2,5,14,214,376.54006833725725,377.2161792025727,"[97, 0, 157]",157,l,0.14282524594455026,colour,0.4
057,67,1,2,5,15,215,377.72391357977176,378.6560668320453,"[75, 0, 179]",179,l,0.3993796329887118,colour,0.4
057,67,1,2,5,16,216,379.1740636670147,379.91205628664466,"[54, 0, 200]",200,a,0.20535341641516425,colour,0.4
057,67,1,2,5,17,217,380.4242751557613,381.30405907632667,"[70, 0, 184]",184,a,0.3473872436734382,colour,0.4
057,67,1,2,5,18,218,381.8075197285216,382.80814850053866,"[93, 0, 161]",161,l,0.468137137737358,colour,0.4
057,67,1,2,5,19,219,383.324703009479,384.3361460188171,"[13, 0, 241]",241,a,0.47946690398384817,colour,0.4
057,67,1,2,5,20,220,384.8405145408178,385.59203923281166,"[25, 0, 229]",229,a,0.21871129324426875,colour,0.4
057,67,1,2,5,21,221,386.10715366128716,386.8800110484008,"[99, 0, 155]",155,a,0.24002024900983088,colour,0.4
057,67,1,2,5,22,222,387.39100894492003,389.06407571953605,"[24, 0, 230]",230,a,1.140729446138721,colour,0.4
057,67,1,2,5,23,223,389.57406533518224,390.59207163381507,"[69, 0, 185]",185,a,0.48541938615380786,colour,0.4
057,67,1,2,5,24,224,391.107413831749,391.8880814657605,"[87, 0, 167]",167,l,0.24810157364117913,colour,0.4
057,67,1,2,5,25,225,392.3905601428414,393.1602175294538,"[98, 0, 156]",156,l,0.23690975230420008,colour,0.4
057,67,1,2,5,26,226,393.67458480995265,394.24812050093897,"[96, 0, 158]",158,l,0.04143768083304167,colour,0.4
057,67,1,2,5,27,227,394.7566456552013,395.3601035164029,"[86, 0, 168]",168,l,0.07013502879999578,colour,0.4
057,67,1,2,5,28,228,395.8739193381625,396.6160563995654,"[28, 0, 226]",226,a,0.20939776793238707,colour,0.4
057,67,1,2,5,29,229,397.1240547968191,398.7760859390255,"[22, 0, 232]",232,a,1.1194439088867512,colour,0.4
057,67,1,2,5,30,230,399.29055748018436,400.27218065518537,"[57, 0, 197]",197,a,0.4488931848027278,colour,0.4
057,67,1,2,5,31,231,400.7735012368357,401.84806782525266,"[88, 0, 166]",166,l,0.5414439364685677,colour,0.4
057,67,1,2,5,32,232,402.3573834357667,403.16805247808225,"[15, 0, 239]",239,a,0.27810458597377874,colour,0.4
057,67,1,2,5,33,233,403.6737545742362,404.72815682855435,"[78, 0, 176]",176,l,0.5215513217262924,colour,0.4
057,67,1,2,5,34,234,405.2409743143362,406.2240619507211,"[30, 0, 224]",224,a,0.4507852753158659,colour,0.4
057,67,1,2,5,35,235,406.7404846099962,407.6720754962589,"[36, 0, 218]",218,a,0.39873578323749825,colour,0.4
057,67,1,2,5,36,236,408.1749510054942,409.12821495789103,"[80, 0, 174]",174,l,0.4216182731324807,colour,0.4
057,67,1,2,5,37,237,409.6402570650971,410.7603220467572,"[20, 0, 234]",234,a,0.5870607057004236,colour,0.4
057,67,1,2,5,38,238,411.2739447456843,412.28807350984425,"[73, 0, 181]",181,l,0.48141930528800003,colour,0.4
057,67,1,2,5,39,239,412.7901255202014,413.70403700514,"[16, 0, 238]",238,a,0.3807968530454673,colour,0.4
057,67,1,2,5,40,240,414.20707451942144,415.4080483461439,"[23, 0, 231]",231,a,0.6681469542963896,colour,0.4
057,67,1,2,5,41,241,415.923449571681,416.91203735931776,"[67, 0, 187]",187,l,0.4554089953599032,colour,0.4
057,67,1,2,5,42,242,417.4248134616064,418.0720636907499,"[55, 0, 199]",199,a,0.1154624345654156,colour,0.4
057,67,1,2,5,43,243,418.5741894855746,419.3841376856726,"[62, 0, 192]",192,a,0.27757141293841414,colour,0.4
057,67,1,2,5,44,244,419.89076754136477,420.7760577084264,"[66, 0, 188]",188,a,0.3528328585962299,colour,0.4
057,67,1,2,5,45,245,421.2909963373968,422.03204780461965,"[10, 0, 244]",244,a,0.2088328354875557,colour,0.4
057,67,1,2,5,46,246,422.54049660798046,423.2480399796332,"[19, 0, 235]",235,a,0.17482332629151642,colour,0.4
057,67,1,2,5,47,247,423.7570620562474,424.4481431495806,"[85, 0, 169]",169,l,0.15824620082275942,colour,0.4
057,67,1,2,5,48,248,424.95693168230355,425.74405160805327,"[72, 0, 182]",182,l,0.2541368227102794,colour,0.4
057,67,1,2,5,49,249,426.25694993595243,427.1841365307919,"[11, 0, 243]",243,a,0.3942567449703347,colour,0.4
057,67,1,2,5,50,250,427.69055882754037,428.4081680053205,"[77, 0, 177]",177,l,0.18496259610401466,colour,0.4
057,67,1,2,6,1,251,444.53980271314504,445.09606834623264,"[71, 0, 183]",183,a,0.022914249304449186,colour,0.28
057,67,1,2,6,2,252,445.6066190446727,446.30404688583803,"[81, 0, 173]",173,l,0.16422595112817362,colour,0.28
057,67,1,2,6,3,253,446.80643285115366,448.35201770055573,"[89, 0, 165]",165,l,1.012157435528934,colour,0.28
057,67,1,2,6,4,254,448.85731558612315,449.4800687286188,"[50, 0, 204]",204,a,0.0902493177272845,colour,0.28
057,67,1,2,6,5,255,449.9906685097667,450.6000791739498,"[88, 0, 166]",166,l,0.07687475922284648,colour,0.28
057,67,1,2,6,6,256,451.10673565621255,451.86418780777603,"[94, 0, 160]",160,l,0.22438114875694737,colour,0.28
057,67,1,2,6,7,257,452.37364713763236,454.05602711674874,"[98, 0, 156]",156,l,1.1495059487933759,colour,0.28
057,67,1,2,6,8,258,454.5742494755541,455.60815825292957,"[93, 0, 161]",161,l,0.501673463935731,colour,0.28
057,67,1,2,6,9,259,456.12376479175873,456.78415122351726,"[29, 0, 225]",225,a,0.1276721608301159,colour,0.28
057,67,1,2,6,10,260,457.2898164274229,458.44018982499256,"[75, 0, 179]",179,l,0.6170733420876786,colour,0.28
057,67,1,2,6,11,261,458.9572390106623,459.7681140079221,"[17, 0, 237]",237,a,0.27833652586559765,colour,0.28
057,67,1,2,6,12,262,460.2741490966,461.07204636742244,"[34, 0, 220]",220,a,0.2656013258092571,colour,0.28
057,67,1,2,6,13,263,461.5738372449123,462.6960281818174,"[85, 0, 169]",169,l,0.5895940795307979,colour,0.28
057,67,1,2,6,14,264,463.2064948301122,464.11206866960856,"[83, 0, 171]",171,l,0.3723042602359783,colour,0.28
057,67,1,2,6,15,265,464.62335753356456,465.39204609795706,"[78, 0, 176]",176,l,0.23559478463721462,colour,0.28
057,67,1,2,6,16,266,465.9072622207168,466.65605817039614,"[58, 0, 196]",196,a,0.21630078658927232,colour,0.28
057,67,1,2,6,17,267,467.1737216920301,467.8320524241717,"[69, 0, 185]",185,a,0.1256206316757016,colour,0.28
057,67,1,2,6,18,268,468.3405438942136,469.2001779168204,"[91, 0, 163]",163,l,0.3270933056192007,colour,0.28
057,67,1,2,6,19,269,469.7071837525291,470.83211465977365,"[74, 0, 180]",180,l,0.5923314834653866,colour,0.28
057,67,1,2,6,20,270,471.34049609469366,472.02407298629987,"[86, 0, 168]",168,l,0.15096463574445806,colour,0.28
057,67,1,2,6,21,271,472.5404616405722,473.61607757248566,"[31, 0, 223]",223,a,0.5429731998592615,colour,0.28
057,67,1,2,6,22,272,474.12344238569494,475.03215174449724,"[28, 0, 226]",226,a,0.37574999511707574,colour,0.28
057,67,1,2,6,23,273,475.53999615678913,476.1680325883499,"[66, 0, 188]",188,a,0.09496799518819898,colour,0.28
057,67,1,2,6,24,274,476.6738360579475,478.07206978599424,"[52, 0, 202]",202,a,0.8656756877317093,colour,0.28
057,67,1,2,6,25,275,478.57310389142367,479.5440177313576,"[90, 0, 164]",164,a,0.43759966918150894,colour,0.28
057,67,1,2,6,26,276,480.05704758808133,480.9281005598896,"[54, 0, 200]",200,a,0.3383804051554762,colour,0.28
057,67,1,2,6,27,277,481.4396143060876,482.22404815623304,"[21, 0, 233]",233,a,0.25095446631894447,colour,0.28
057,67,1,2,6,28,278,482.740611006011,483.9280572516145,"[70, 0, 184]",184,l,0.6550133181153797,colour,0.28
057,67,1,2,6,29,279,484.44046122350846,485.60011702857446,"[68, 0, 186]",186,l,0.6270785166125279,colour,0.28
057,67,1,2,6,30,280,486.1068306136294,486.93619247095194,"[77, 0, 177]",177,l,0.2964749949169345,colour,0.28
057,67,1,2,6,31,281,487.44031269216794,488.42410737628234,"[80, 0, 174]",174,l,0.4510765635641292,colour,0.28
057,67,1,2,6,32,282,488.9397597898205,489.6080517466471,"[12, 0, 242]",242,a,0.1350028086162638,colour,0.28
057,67,1,2,6,33,283,490.1235014132981,491.11213026358746,"[43, 0, 211]",211,a,0.4557086244749371,colour,0.28
057,67,1,2,6,34,284,491.6238797992992,492.2081431110564,"[20, 0, 234]",234,a,0.05176205339375883,colour,0.28
057,67,1,2,6,35,285,492.72376504840213,493.40818404540187,"[55, 0, 199]",199,a,0.1518144403817132,colour,0.28
057,67,1,2,6,36,286,493.92377326093265,495.3682287908741,"[4, 0, 250]",250,a,0.9118856199493166,colour,0.28
057,67,1,2,6,37,287,495.87352411003667,496.65604373428505,"[39, 0, 215]",215,a,0.2496930726338178,colour,0.28
057,67,1,2,6,38,288,497.1738243486616,497.9200686388067,"[65, 0, 189]",189,l,0.2137221796438098,colour,0.28
057,67,1,2,6,39,289,498.42346096015535,499.24019059489365,"[2, 0, 252]",252,a,0.28385047157644294,colour,0.28
057,67,1,2,6,40,290,499.7568509684934,500.4160661519272,"[76, 0, 178]",178,l,0.12640114306122996,colour,0.28
057,67,1,2,6,41,291,500.9233693711576,502.3681078485097,"[53, 0, 201]",201,a,0.9117759056389332,colour,0.28
057,67,1,2,6,42,292,502.8740733231534,504.98408276436385,"[57, 0, 197]",197,l,1.57776899493183,colour,0.28
057,67,1,2,6,43,293,505.4902522691118,506.88807954094955,"[73, 0, 181]",181,l,0.8650850911508314,colour,0.28
057,67,1,2,6,44,294,507.3904106490663,509.04011373073445,"[47, 0, 207]",207,l,1.117103657888947,colour,0.28
057,67,1,2,6,45,295,509.55686328731827,510.4080996744742,"[96, 0, 158]",158,l,0.3184666174929589,colour,0.28
057,67,1,2,6,46,296,510.92343032354256,512.1040864728275,"[26, 0, 228]",228,l,0.6477927054220345,colour,0.28
057,67,1,2,6,47,297,512.606788428151,514.7840806470485,"[59, 0, 195]",195,a,1.6444611760380212,colour,0.28
057,67,1,2,6,48,298,515.2911994050955,516.4401554991491,"[92, 0, 162]",162,l,0.6172067957231775,colour,0.28
057,67,1,2,6,49,299,516.9570308101538,517.6400709999143,"[82, 0, 172]",172,l,0.15045905171427876,colour,0.28
057,67,1,2,6,50,300,518.1564962255943,518.9520740975568,"[79, 0, 175]",175,l,0.2624674105027225,colour,0.28
057,67,1,2,7,1,301,533.1560663508426,535.6000785323267,"[59, 0, 195]",195,a,1.9105177199817263,colour,0.14
057,67,1,2,7,2,302,536.106737901835,537.0962342009007,"[19, 0, 235]",235,a,0.4566816171281971,colour,0.14
057,67,1,2,7,3,303,537.6064948942512,538.5120943979127,"[52, 0, 202]",202,a,0.3725256136385724,colour,0.14
057,67,1,2,7,4,304,539.0233444448386,539.792067014263,"[70, 0, 184]",184,l,0.23583763182978146,colour,0.14
057,67,1,2,7,5,305,540.3069065153832,541.3609064839548,"[62, 0, 192]",192,l,0.5213479332451243,colour,0.14
057,67,1,2,7,6,306,541.8736447315896,542.4801229441655,"[33, 0, 221]",221,a,0.07388745044590905,colour,0.14
057,67,1,2,7,7,307,542.9897946449637,543.6801106253697,"[99, 0, 155]",155,l,0.15724497759947553,colour,0.14
057,67,1,2,7,8,308,544.1901056946372,545.0560810114839,"[90, 0, 164]",164,l,0.3331676925299689,colour,0.14
057,67,1,2,7,9,309,545.5740345381782,546.3921657571336,"[60, 0, 194]",194,a,0.28597161479410715,colour,0.14
057,67,1,2,7,10,310,546.9071630928665,547.9841658520745,"[94, 0, 160]",160,l,0.5446439369698055,colour,0.14
057,67,1,2,7,11,311,548.4899930610554,549.4891195170349,"[83, 0, 171]",171,l,0.4662626913341228,colour,0.14
057,67,1,2,7,12,312,550.006944402121,551.2000861674314,"[72, 0, 182]",182,l,0.6605708929419052,colour,0.14
057,67,1,2,7,13,313,551.7069976873172,553.0000375338423,"[43, 0, 211]",211,a,0.7605142072134186,colour,0.14
057,67,1,2,7,14,314,553.5063616651751,554.4241574213956,"[79, 0, 175]",175,l,0.3846528937574476,colour,0.14
057,67,1,2,7,15,315,554.9392243711918,555.9921823746699,"[74, 0, 180]",180,l,0.5192967249022331,colour,0.14
057,67,1,2,7,16,316,556.5068079008197,557.5201863090042,"[86, 0, 168]",168,l,0.4806394354964141,colour,0.14
057,67,1,2,7,17,317,558.0230797831318,559.0720627283445,"[75, 0, 179]",179,l,0.5159071303787641,colour,0.14
057,67,1,2,7,18,318,559.5734301471093,560.4800902223506,"[92, 0, 162]",162,l,0.37390506247174926,colour,0.14
057,67,1,2,7,19,319,560.9901202590554,561.7601841018768,"[54, 0, 200]",200,a,0.2373672160319984,colour,0.14
057,67,1,2,7,20,320,562.2731777079753,563.3600967795646,"[95, 0, 159]",159,l,0.5539449510106351,colour,0.14
057,67,1,2,7,21,321,563.8736870774883,564.4880679278867,"[91, 0, 163]",163,l,0.08192610836704262,colour,0.14
057,67,1,2,7,22,322,564.9902283693373,565.8721151473874,"[98, 0, 156]",156,l,0.34930435675778426,colour,0.14
057,67,1,2,7,23,323,566.3902159222343,567.7920856207784,"[50, 0, 204]",204,l,0.8692641795205418,colour,0.14
057,67,1,2,7,24,324,568.3059656029509,569.3361447356001,"[58, 0, 196]",196,a,0.4966708766587544,colour,0.14
057,67,1,2,7,25,325,569.8403364956903,570.6800990765041,"[24, 0, 230]",230,a,0.3072824953997042,colour,0.14
057,67,1,2,7,26,326,571.1898525818251,572.1761129505467,"[87, 0, 167]",167,l,0.4533269900130108,colour,0.14
057,67,1,2,7,27,327,572.690074095648,573.3361100890033,"[81, 0, 173]",173,l,0.11332781770033762,colour,0.14
057,67,1,2,7,28,328,573.8402835633315,574.520070178638,"[32, 0, 222]",222,a,0.14729241459281184,colour,0.14
057,67,1,2,7,29,329,575.0236726253352,575.6882253133808,"[13, 0, 241]",241,a,0.1321165525005199,colour,0.14
057,67,1,2,7,30,330,576.1902349778684,576.9521055361547,"[77, 0, 177]",177,a,0.22928396658971906,colour,0.14
057,67,1,2,7,31,331,577.4569587900769,578.1681217713049,"[37, 0, 217]",217,a,0.17860750734689645,colour,0.14
057,67,1,2,7,32,332,578.6728011505038,579.3041902843688,"[66, 0, 188]",188,a,0.09809068241156638,colour,0.14
057,67,1,2,7,33,333,579.8065031068109,580.456307882705,"[53, 0, 201]",201,a,0.11683482574881054,colour,0.14
057,67,1,2,7,34,334,580.9728954342427,582.3682207708189,"[63, 0, 191]",191,l,0.8621272961609066,colour,0.14
057,67,1,2,7,35,335,582.87298548338,583.4961986560083,"[76, 0, 178]",178,l,0.09011008962988853,colour,0.14
057,67,1,2,7,36,336,584.0072125926381,584.9361218945123,"[67, 0, 187]",187,l,0.3966980486002285,colour,0.14
057,67,1,2,7,37,337,585.4394465266087,586.4482615255401,"[82, 0, 172]",172,l,0.4755085274227895,colour,0.14
057,67,1,2,7,38,338,586.9570474918582,587.8640877175494,"[51, 0, 203]",203,a,0.3746749874262605,colour,0.14
057,67,1,2,7,39,339,588.3734511275543,589.5841876024788,"[93, 0, 161]",161,l,0.6781126701971516,colour,0.14
057,67,1,2,7,40,340,590.0903378590883,591.5601871174003,"[88, 0, 166]",166,l,0.9374259548494592,colour,0.14
057,67,1,2,7,41,341,592.0733828287921,593.5201000132365,"[78, 0, 176]",176,l,0.9140279360872228,colour,0.14
057,67,1,2,7,42,342,594.0231032017036,594.728245049133,"[80, 0, 174]",174,l,0.17218472936656326,colour,0.14
057,67,1,2,7,43,343,595.2405415523681,595.7841063112137,"[96, 0, 158]",158,l,0.01135735519346781,colour,0.14
057,67,1,2,7,44,344,596.2897577206604,597.0242491066456,"[85, 0, 169]",169,l,0.2015256062732078,colour,0.14
057,67,1,2,7,45,345,597.5394803070812,598.1041092497762,"[64, 0, 190]",190,a,0.03139144362648949,colour,0.14
057,67,1,2,7,46,346,598.6060168991971,599.4322323299712,"[55, 0, 199]",199,a,0.29285442290711217,colour,0.14
057,67,1,2,7,47,347,599.9401030480221,601.0400922370027,"[68, 0, 186]",186,a,0.5673846323625185,colour,0.14
057,67,1,2,7,48,348,601.5569662647613,602.1440981885244,"[97, 0, 157]",157,l,0.05470188346225768,colour,0.14
057,67,1,2,7,49,349,602.6561659598665,603.4241654414509,"[61, 0, 193]",193,a,0.23479694992420264,colour,0.14
057,67,1,2,7,50,350,603.9403414039407,605.2960919572506,"[71, 0, 183]",183,a,0.8233952598820906,colour,0.14
057,67,1,2,8,1,351,615.772137828113,616.5681109282013,"[86, 0, 168]",168,l,0.2621065081912093,colour,0.06
057,67,1,2,8,2,352,617.0728990593052,617.7681136871106,"[50, 0, 204]",204,a,0.16212437688955106,colour,0.06
057,67,1,2,8,3,353,618.2730599736096,618.960094469774,"[93, 0, 161]",161,l,0.1541126663214527,colour,0.06
057,67,1,2,8,4,354,619.4729857400234,620.2400908254785,"[65, 0, 189]",189,a,0.2341088295506779,colour,0.06
057,67,1,2,8,5,355,620.7567749384325,621.976091585122,"[68, 0, 186]",186,a,0.6867749672965147,colour,0.06
057,67,1,2,8,6,356,622.4899035572598,623.8481785019394,"[84, 0, 170]",170,l,0.8255401424248703,colour,0.06
057,67,1,2,8,7,357,624.3560286886641,625.648076615209,"[73, 0, 181]",181,a,0.7587703272001818,colour,0.06
057,67,1,2,8,8,358,626.1565096992708,627.6241277793015,"[9, 0, 245]",245,a,0.9348030772525817,colour,0.06
057,67,1,2,8,9,359,628.1396210750099,629.5841144596052,"[83, 0, 171]",171,a,0.9114932790398598,colour,0.06
057,67,1,2,8,10,360,630.089880074549,631.8480912437954,"[61, 0, 193]",193,a,1.2254702717473265,colour,0.06
057,67,1,2,8,11,361,632.3566035659751,633.1202231370553,"[53, 0, 201]",201,a,0.23094507964560762,colour,0.06
057,67,1,2,8,12,362,633.6230611124483,634.3921808348387,"[80, 0, 174]",174,l,0.2362363887950778,colour,0.06
057,67,1,2,8,13,363,634.9067037043278,635.8000899528852,"[74, 0, 180]",180,l,0.360777842317475,colour,0.06
057,67,1,2,8,14,364,636.3061372320517,637.168240468076,"[96, 0, 158]",158,l,0.328964223182993,colour,0.06
057,67,1,2,8,15,365,637.6741748249333,638.496193843981,"[69, 0, 185]",185,a,0.2902575302578043,colour,0.06
057,67,1,2,8,16,366,639.0066832692246,640.0242587307002,"[51, 0, 203]",203,a,0.48497924572438933,colour,0.06
057,67,1,2,8,17,367,640.53965514421,641.4000953423674,"[77, 0, 177]",177,a,0.32750585704343393,colour,0.06
057,67,1,2,8,18,368,641.905987353326,642.6321773444943,"[78, 0, 176]",176,a,0.19292169509571977,colour,0.06
057,67,1,2,8,19,369,643.1398482028744,643.8000809704245,"[56, 0, 198]",198,a,0.12747262194170617,colour,0.06
057,67,1,2,8,20,370,644.3066370416491,644.9282407503924,"[63, 0, 191]",191,a,0.08899209447554313,colour,0.06
057,67,1,2,8,21,371,645.4403139753849,646.584208775399,"[97, 0, 157]",157,l,0.611617461516289,colour,0.06
057,67,1,2,8,22,372,647.0907446361089,649.0321113234386,"[76, 0, 178]",178,l,1.4095359052880667,colour,0.06
057,67,1,2,8,23,373,649.5391408985015,651.3282578170474,"[32, 0, 222]",222,a,1.25568918386125,colour,0.06
057,67,1,2,8,24,374,651.8402800345211,652.7281488085282,"[99, 0, 155]",155,l,0.35559111469774507,colour,0.06
057,67,1,2,8,25,375,653.2400731813686,654.0642261757166,"[60, 0, 194]",194,a,0.29167258815141395,colour,0.06
057,67,1,2,8,26,376,654.5729762121919,655.3602677670424,"[75, 0, 179]",179,a,0.2543851234950125,colour,0.06
057,67,1,2,8,27,377,655.8732530323032,656.5122503077146,"[64, 0, 190]",190,a,0.10636962106218562,colour,0.06
057,67,1,2,8,28,378,657.0226791013847,657.8481088879053,"[52, 0, 202]",202,a,0.29223046291735955,colour,0.06
057,67,1,2,8,29,379,658.3561890897108,660.2721036626899,"[87, 0, 167]",167,a,1.3828621767170262,colour,0.06
057,67,1,2,8,30,380,660.789250051399,661.6242204910959,"[54, 0, 200]",200,a,0.30168963235337287,colour,0.06
057,67,1,2,8,31,381,662.1396659873135,662.9040898091625,"[88, 0, 166]",166,l,0.23155845317523926,colour,0.06
057,67,1,2,8,32,382,663.4074911129719,666.1361339566647,"[81, 0, 173]",173,l,2.196941665664781,colour,0.06
057,67,1,2,8,33,383,666.6405191603699,667.7040745389822,"[67, 0, 187]",187,a,0.5315593834966421,colour,0.06
057,67,1,2,8,34,384,668.2060232510848,670.8561141824175,"[98, 0, 156]",156,a,2.1169361991924234,colour,0.06
057,67,1,2,8,35,385,671.3732535135059,674.4881121985964,"[62, 0, 192]",192,a,2.5822069706046022,colour,0.06
057,67,1,2,8,36,386,674.9897635271773,675.7600901068654,"[72, 0, 182]",182,a,0.23759851430077106,colour,0.06
057,67,1,2,8,37,387,676.2732514924428,676.9121756250097,"[59, 0, 195]",195,a,0.10634074889821932,colour,0.06
057,67,1,2,8,38,388,677.4238542634703,678.0641697145475,"[95, 0, 159]",159,l,0.10834030809928663,colour,0.06
057,67,1,2,8,39,389,678.5726829991036,679.1121446996694,"[85, 0, 169]",169,l,0.006319479696685448,colour,0.06
057,67,1,2,8,40,390,679.6231650523259,680.5841625799076,"[55, 0, 199]",199,a,0.42832464014645666,colour,0.06
057,67,1,2,8,41,391,681.0901848365029,681.9121230134624,"[94, 0, 160]",160,a,0.2896438359457534,colour,0.06
057,67,1,2,8,42,392,682.4231921280152,684.880126537144,"[24, 0, 230]",230,a,1.9243106044013985,colour,0.06
057,67,1,2,8,43,393,685.3900093256962,686.1442011659674,"[79, 0, 175]",175,l,0.22170822601765394,colour,0.06
057,67,1,2,8,44,394,686.656665769493,687.3601089700242,"[90, 0, 164]",164,l,0.17097690963419154,colour,0.06
057,67,1,2,8,45,395,687.8730984056892,688.5682081312407,"[92, 0, 162]",162,l,0.16235214634798467,colour,0.06
057,67,1,2,8,46,396,689.0731739866605,689.7920852999669,"[70, 0, 184]",184,a,0.1862586363859009,colour,0.06
057,67,1,2,8,47,397,690.3060820540995,691.080299641937,"[91, 0, 163]",163,l,0.2411796276574023,colour,0.06
057,67,1,2,8,48,398,691.5892039842147,692.2801144108234,"[66, 0, 188]",188,a,0.15763282726402394,colour,0.06
057,67,1,2,8,49,399,692.7897517858073,693.4640626308101,"[58, 0, 196]",196,a,0.14162448386196047,colour,0.06
057,67,1,2,8,50,400,693.9731504718657,694.848132306448,"[82, 0, 172]",172,l,0.3423609170713462,colour,0.06
057,67,1,2,9,1,401,706.1892831581645,706.7522108875564,"[65, 0, 189]",189,a,0.029755032330285758,colour,0.06
057,67,1,2,9,2,402,707.2559220861585,708.1922422363423,"[10, 0, 244]",244,a,0.403173117316328,colour,0.06
057,67,1,2,9,3,403,708.7067234015558,710.4640690468659,"[61, 0, 193]",193,a,1.2249848982610274,colour,0.06
057,67,1,2,9,4,404,710.9726644567563,712.0481973009591,"[75, 0, 179]",179,l,0.5424746734788641,colour,0.06
057,67,1,2,9,5,405,712.5559201292635,713.5282025107881,"[69, 0, 185]",185,a,0.43915652157738805,colour,0.06
057,67,1,2,9,6,406,714.0404643673974,714.7840982911875,"[90, 0, 164]",164,l,0.21172133722575381,colour,0.06
057,67,1,2,9,7,407,715.2891757857287,716.2321484081622,"[71, 0, 183]",183,a,0.40977458201814443,colour,0.06
057,67,1,2,9,8,408,716.7390820634027,717.6642283571709,"[98, 0, 156]",156,l,0.3918597119918559,colour,0.06
057,67,1,2,9,9,409,718.1731968598615,719.0002425263519,"[57, 0, 197]",197,a,0.2944991750700865,colour,0.06
057,67,1,2,9,10,410,719.5063048831944,720.7841143312689,"[83, 0, 171]",171,l,0.7450807410641573,colour,0.06
057,67,1,2,9,11,411,721.2897317356837,722.4961027362151,"[72, 0, 182]",182,a,0.6737484789919108,colour,0.06
057,67,1,2,9,12,412,723.0062691137719,723.9681815688091,"[92, 0, 162]",162,l,0.4291683495393954,colour,0.06
057,67,1,2,9,13,413,724.4721481258457,725.4962599292048,"[99, 0, 155]",155,l,0.4905801287968643,colour,0.06
057,67,1,2,9,14,414,726.0057359407656,727.312124040036,"[59, 0, 195]",195,a,0.7730979886837304,colour,0.06
057,67,1,2,9,15,415,727.8236085932585,728.6001151037635,"[79, 0, 175]",175,l,0.24441395397298038,colour,0.06
057,67,1,2,9,16,416,729.1062688892125,730.2241190534842,"[94, 0, 160]",160,l,0.5850868106354028,colour,0.06
057,67,1,2,9,17,417,730.7391811912239,731.7920731095073,"[56, 0, 198]",198,a,0.5197217876266222,colour,0.06
057,67,1,2,9,18,418,732.3059373723809,733.512238758849,"[89, 0, 165]",165,l,0.673241932556266,colour,0.06
057,67,1,2,9,19,419,734.0222784196085,735.1601520858239,"[93, 0, 161]",161,l,0.6044757661293261,colour,0.06
057,67,1,2,9,20,420,735.6732961480739,736.3520895602123,"[87, 0, 167]",167,l,0.14643747711670585,colour,0.06
057,67,1,2,9,21,421,736.8564106035337,737.9841440375603,"[95, 0, 159]",159,l,0.5951275942206848,colour,0.06
057,67,1,2,9,22,422,738.4892613115371,742.4001171569107,"[66, 0, 188]",188,a,3.3777688024565578,colour,0.06
057,67,1,2,9,23,423,742.9068827118608,743.5841417277697,"[23, 0, 231]",231,a,0.14517062981030904,colour,0.06
057,67,1,2,9,24,424,744.0896221497096,744.8801031186013,"[53, 0, 201]",201,a,0.2578093646734487,colour,0.06
057,67,1,2,9,25,425,745.389129365678,746.1521121446858,"[58, 0, 196]",196,a,0.22982098924694583,colour,0.06
057,67,1,2,9,26,426,746.6556703207025,747.4641117135179,"[86, 0, 168]",168,l,0.2751631519058719,colour,0.06
057,67,1,2,9,27,427,747.972434120893,748.8721318290918,"[68, 0, 186]",186,a,0.3665163495170418,colour,0.06
057,67,1,2,9,28,428,749.3897340775293,751.3201049536001,"[73, 0, 181]",181,l,1.3977695274807047,colour,0.06
057,67,1,2,9,29,429,751.8223658060888,753.1361044428777,"[74, 0, 180]",180,l,0.7804867016384378,colour,0.06
057,67,1,2,9,30,430,753.6397665587428,754.5682623467874,"[77, 0, 177]",177,l,0.3959958128980361,colour,0.06
057,67,1,2,9,31,431,755.0729317811201,755.7360934714379,"[55, 0, 199]",199,a,0.1305022765591275,colour,0.06
057,67,1,2,9,32,432,756.2393866649654,757.0002470175677,"[80, 0, 174]",174,l,0.2279920967121143,colour,0.06
057,67,1,2,9,33,433,757.506199018535,758.2161660497077,"[62, 0, 192]",192,a,0.17722581289126538,colour,0.06
057,67,1,2,9,34,434,758.7220301508787,759.552109000826,"[67, 0, 187]",187,a,0.2965096415427979,colour,0.06
057,67,1,2,9,35,435,760.056213502743,760.9201302327856,"[63, 0, 191]",191,a,0.33116267967852764,colour,0.06
057,67,1,2,9,36,436,761.4226772407128,762.2322334207129,"[88, 0, 166]",166,l,0.27666578875505365,colour,0.06
057,67,1,2,9,37,437,762.7390445295605,763.7041165640694,"[81, 0, 173]",173,l,0.4318448011181317,colour,0.06
057,67,1,2,9,38,438,764.2058310906577,765.2162731975841,"[76, 0, 178]",178,l,0.47736982093192637,colour,0.06
057,67,1,2,9,39,439,765.7222447674721,766.4801681772515,"[51, 0, 203]",203,a,0.22460314378258772,colour,0.06
057,67,1,2,9,40,440,766.989679477032,768.680115437397,"[96, 0, 158]",158,l,1.1578846568882,colour,0.06
057,67,1,2,9,41,441,769.1897143161332,769.8561533202883,"[60, 0, 194]",194,a,0.13393036735942587,colour,0.06
057,67,1,2,9,42,442,770.3736516288482,771.2002125634463,"[84, 0, 170]",170,l,0.2946371199504938,colour,0.06
057,67,1,2,9,43,443,771.7056474314595,772.4961296835681,"[54, 0, 200]",200,a,0.2572450738225598,colour,0.06
057,67,1,2,9,44,444,773.0058029883949,775.9601371364552,"[97, 0, 157]",157,l,2.4212641076592263,colour,0.06
057,67,1,2,9,45,445,776.4723621008161,777.1763872363081,"[52, 0, 202]",202,a,0.17082805748214014,colour,0.06
057,67,1,2,9,46,446,777.6892124213045,778.5041830984119,"[64, 0, 190]",190,a,0.2819878948503174,colour,0.06
057,67,1,2,9,47,447,779.0058228781272,779.5601065960946,"[91, 0, 163]",163,l,0.021239662542939186,colour,0.06
057,67,1,2,9,48,448,780.0729160618212,780.6962514600309,"[70, 0, 184]",184,a,0.09071608472731896,colour,0.06
057,67,1,2,9,49,449,781.2068345594744,782.1923003015108,"[82, 0, 172]",172,a,0.4534431203501299,colour,0.06
057,67,1,2,9,50,450,782.706027902721,783.4881253514613,"[1, 0, 253]",253,a,0.24926672669244,colour,0.06
057,67,1,2,10,1,451,798.8390045255364,799.8721873278555,"[73, 0, 181]",181,l,0.5000463558826596,colour,0.06
057,67,1,2,10,2,452,800.3889153907076,800.9842819824407,"[98, 0, 156]",156,l,0.06212171423248947,colour,0.06
057,67,1,2,10,3,453,801.488575436757,802.2722021489171,"[67, 0, 187]",187,l,0.2500738646776881,colour,0.06
057,67,1,2,10,4,454,802.7890126578859,803.5121104380232,"[64, 0, 190]",190,a,0.1899372735642828,colour,0.06
057,67,1,2,10,5,455,804.0223095373949,804.7442521093471,"[88, 0, 166]",166,l,0.1887974638666492,colour,0.06
057,67,1,2,10,6,456,805.2562133744068,805.9602022592735,"[52, 0, 202]",202,a,0.1714157668466214,colour,0.06
057,67,1,2,10,7,457,806.4735519556561,807.2001326837344,"[85, 0, 169]",169,l,0.19468354000127874,colour,0.06
057,67,1,2,10,8,458,807.7061004039715,808.4402289628342,"[68, 0, 186]",186,a,0.20145406739902683,colour,0.06
057,67,1,2,10,9,459,808.9555207948724,809.8322214868676,"[97, 0, 157]",157,l,0.34344875684473664,colour,0.06
057,67,1,2,10,10,460,810.3389097285399,811.0321161354659,"[87, 0, 167]",167,l,0.16000772491679527,colour,0.06
057,67,1,2,10,11,461,811.5390452994907,812.1281296245579,"[14, 0, 240]",240,a,0.056030966399703175,colour,0.06
057,67,1,2,10,12,462,812.6394816865213,813.1841330019524,"[58, 0, 196]",196,a,0.011978427995927632,colour,0.06
057,67,1,2,10,13,463,813.6894629677117,814.3040773620596,"[32, 0, 222]",222,a,0.08198289034771733,colour,0.06
057,67,1,2,10,14,464,814.8054495928518,815.3604358673329,"[54, 0, 200]",200,a,0.021678840566892177,colour,0.06
057,67,1,2,10,15,465,815.8722056135884,816.6082156765042,"[51, 0, 203]",203,l,0.20279502001358196,colour,0.06
057,67,1,2,10,16,466,817.1221479494125,817.7442315780208,"[91, 0, 163]",163,l,0.08880891650915146,colour,0.06
057,67,1,2,10,17,467,818.2557876700885,819.0322373986419,"[53, 0, 201]",201,a,0.2434890816512052,colour,0.06
057,67,1,2,10,18,468,819.5393567982828,820.4881324091111,"[59, 0, 195]",195,a,0.4160571694956161,colour,0.06
057,67,1,2,10,19,469,821.0058366726153,821.9041379294649,"[81, 0, 173]",173,l,0.3653572916809935,colour,0.06
057,67,1,2,10,20,470,822.405606400891,823.1521278639848,"[86, 0, 168]",168,l,0.2133939991472289,colour,0.06
057,67,1,2,10,21,471,823.6561467117572,824.8082088113297,"[96, 0, 158]",158,l,0.6194758286874276,colour,0.06
057,67,1,2,10,22,472,825.3230678813707,827.0561361894361,"[71, 0, 183]",183,l,1.200736433180282,colour,0.06
057,67,1,2,10,23,473,827.573544673447,828.3362445050443,"[89, 0, 165]",165,l,0.2308613503118977,colour,0.06
057,67,1,2,10,24,474,828.8394658389152,829.5682928229799,"[62, 0, 192]",192,a,0.1962419963965658,colour,0.06
057,67,1,2,10,25,475,830.072467580525,830.9041533279815,"[76, 0, 178]",178,a,0.2987690504232887,colour,0.06
057,67,1,2,10,26,476,831.4058643257304,833.9121470736281,"[92, 0, 162]",162,a,1.9734401561436243,colour,0.06
057,67,1,2,10,27,477,834.4228139024053,836.272158199019,"[57, 0, 197]",197,l,1.3167936347599607,colour,0.06
057,67,1,2,10,28,478,836.7892182919895,837.456262649619,"[83, 0, 171]",171,l,0.1342328836908564,colour,0.06
057,67,1,2,10,29,479,837.9727478653076,841.7202461706474,"[79, 0, 175]",175,l,3.2148857286956627,colour,0.06
057,67,1,2,10,30,480,842.2219177097722,844.496286876587,"[84, 0, 170]",170,l,1.7408682892564684,colour,0.06
057,67,1,2,10,31,481,845.0060355698806,845.7841913237644,"[80, 0, 174]",174,l,0.24554189402260818,colour,0.06
057,67,1,2,10,32,482,846.2886939410237,847.2882262116473,"[66, 0, 188]",188,a,0.4662254783033859,colour,0.06
057,67,1,2,10,33,483,847.80607323203,848.5041298452707,"[90, 0, 164]",164,l,0.16546103908331133,colour,0.06
057,67,1,2,10,34,484,849.0066511890327,849.9602266402217,"[99, 0, 155]",155,l,0.4215704736416228,colour,0.06
057,67,1,2,10,35,485,850.4727047174238,851.4401811633143,"[74, 0, 180]",180,a,0.43485296197468415,colour,0.06
057,67,1,2,10,36,486,851.955848975369,852.8081157787237,"[93, 0, 161]",161,l,0.3194704071211163,colour,0.06
057,67,1,2,10,37,487,853.3223425479373,854.5123083728831,"[78, 0, 176]",176,l,0.6570010076393373,colour,0.06
057,67,1,2,10,38,488,855.0225989008613,855.904122210166,"[61, 0, 193]",193,a,0.3487407075590454,colour,0.06
057,67,1,2,10,39,489,856.4060074034496,857.0722003524133,"[69, 0, 185]",185,a,0.1335312895826064,colour,0.06
057,67,1,2,10,40,490,857.5894667211105,858.6002161564247,"[77, 0, 177]",177,l,0.47825298900716007,colour,0.06
057,67,1,2,10,41,491,859.1053122574813,859.7761148111895,"[63, 0, 191]",191,a,0.13748357092845254,colour,0.06
057,67,1,2,10,42,492,860.2886827129696,861.0481052307587,"[50, 0, 204]",204,a,0.22614908890682273,colour,0.06
057,67,1,2,10,43,493,861.5556535427459,862.8081308564288,"[28, 0, 226]",226,a,0.7195108923478983,colour,0.06
057,67,1,2,10,44,494,863.3221426882665,864.0561211117601,"[75, 0, 179]",179,l,0.20083748587057926,colour,0.06
057,67,1,2,10,45,495,864.5720805328456,865.712127953826,"[60, 0, 194]",194,l,0.6068516261584591,colour,0.06
057,67,1,2,10,46,496,866.222165368963,867.4081304714782,"[94, 0, 160]",160,l,0.6528575282718521,colour,0.06
057,67,1,2,10,47,497,867.922771075333,868.6961337256944,"[65, 0, 189]",189,a,0.24083540705032647,colour,0.06
057,67,1,2,10,48,498,869.2061060180131,871.7362551556726,"[56, 0, 198]",198,a,1.9976042502385098,colour,0.06
057,67,1,2,10,49,499,872.2391014719324,873.0961292986176,"[70, 0, 184]",184,a,0.32420384147553705,colour,0.06
057,67,1,2,10,50,500,873.6059716661111,874.4241137923382,"[95, 0, 159]",159,l,0.2855301911768038,colour,0.06
057,67,1,2,11,1,501,882.255138366716,883.6161645098473,"[76, 0, 178]",178,a,0.8275753106863704,colour,0.06
057,67,1,2,11,2,502,884.1232880799216,884.8241385582369,"[92, 0, 162]",162,l,0.16890132031403482,colour,0.06
057,67,1,2,11,3,503,885.3393498689693,885.9521379371872,"[66, 0, 188]",188,a,0.08025344647467136,colour,0.06
057,67,1,2,11,4,504,886.4552768248832,887.3202813947282,"[86, 0, 168]",168,l,0.33173787777195685,colour,0.06
057,67,1,2,11,5,505,887.8222621870227,889.5362286574382,"[68, 0, 186]",186,a,1.181019938812824,colour,0.06
057,67,1,2,11,6,506,890.0393848684616,890.8721696837456,"[85, 0, 169]",169,l,0.3002514767285902,colour,0.06
057,67,1,2,11,7,507,891.3889048042183,892.0642088523891,"[64, 0, 190]",190,a,0.1423401932406705,colour,0.06
057,67,1,2,11,8,508,892.5724715905671,893.2162058291433,"[51, 0, 203]",203,a,0.11101194762159139,colour,0.06
057,67,1,2,11,9,509,893.7223037950462,896.1601225720369,"[50, 0, 204]",204,a,1.9049370473949239,colour,0.06
057,67,1,2,11,10,510,896.6726721880841,897.3041540337435,"[60, 0, 194]",194,a,0.0989594143757131,colour,0.06
057,67,1,2,11,11,511,897.8059006405238,898.5202325044957,"[52, 0, 202]",202,a,0.18171640008222312,colour,0.06
057,67,1,2,11,12,512,899.0219996426022,899.8241244429664,"[96, 0, 158]",158,l,0.2689444040588569,colour,0.06
057,67,1,2,11,13,513,900.3387008864083,901.2161641248967,"[99, 0, 155]",155,l,0.3443248672701884,colour,0.06
057,67,1,2,11,14,514,901.7220349629351,902.4321595079091,"[69, 0, 185]",185,a,0.17699451462249272,colour,0.06
057,67,1,2,11,15,515,902.9386857445352,904.0721682722215,"[18, 0, 236]",236,a,0.6003194546792656,colour,0.06
057,67,1,2,11,16,516,904.5896489366714,905.6721678872418,"[80, 0, 174]",174,l,0.5503384942712728,colour,0.06
057,67,1,2,11,17,517,906.1888070879213,909.2881812993437,"[63, 0, 191]",191,l,2.5663295144040603,colour,0.06
057,67,1,2,11,18,518,909.8057463347504,910.4002156431379,"[95, 0, 159]",159,l,0.06172263648477383,colour,0.06
057,67,1,2,11,19,519,910.9056841954007,911.8322279028944,"[82, 0, 172]",172,l,0.3937550105038099,colour,0.06
057,67,1,2,11,20,520,912.3400238740724,913.088132344943,"[65, 0, 189]",189,a,0.21633062115870416,colour,0.06
057,67,1,2,11,21,521,913.6051905131026,916.5282554431178,"[90, 0, 164]",164,a,2.389778348238906,colour,0.06
057,67,1,2,11,22,522,917.0390727280756,917.840296395414,"[83, 0, 171]",171,l,0.2684904691122938,colour,0.06
057,67,1,2,11,23,523,918.3558644380246,919.3520972594852,"[59, 0, 195]",195,a,0.46361158313811757,colour,0.06
057,67,1,2,11,24,524,919.8559284380462,922.6402480826364,"[53, 0, 201]",201,a,2.2518026669567917,colour,0.06
057,67,1,2,11,25,525,923.155496285588,924.8641461035004,"[72, 0, 182]",182,l,1.1756981534708757,colour,0.06
057,67,1,2,11,26,526,925.3725034782838,926.0321485364693,"[77, 0, 177]",177,l,0.12702125345822424,colour,0.06
057,67,1,2,11,27,527,926.5389195450698,927.2802526765154,"[88, 0, 166]",166,l,0.20849182290839963,colour,0.06
057,67,1,2,11,28,528,927.7890440964838,932.6562695789326,"[54, 0, 200]",200,a,4.334513136360329,colour,0.06
057,67,1,2,11,29,529,933.172546273272,933.9761775600782,"[57, 0, 197]",197,a,0.27108030414092354,colour,0.06
057,67,1,2,11,30,530,934.4891788654204,935.280278661492,"[84, 0, 170]",170,l,0.2585135251865722,colour,0.06
057,67,1,2,11,31,531,935.7888464824064,936.4482236708864,"[94, 0, 160]",160,l,0.12648551401798613,colour,0.06
057,67,1,2,11,32,532,936.9555689151748,938.2001394205727,"[75, 0, 179]",179,l,0.7117423497547861,colour,0.06
057,67,1,2,11,33,533,938.7057253863604,940.8641268553911,"[79, 0, 175]",175,l,1.6257340352167375,colour,0.06
057,67,1,2,11,34,534,941.373354566138,942.1441216070671,"[55, 0, 199]",199,a,0.23907035414595157,colour,0.06
057,67,1,2,11,35,535,942.6555538695538,944.2161349318922,"[73, 0, 181]",181,a,1.027754510694649,colour,0.06
057,67,1,2,11,36,536,944.7230647375109,945.3841290240234,"[91, 0, 163]",163,l,0.1290843315073289,colour,0.06
057,67,1,2,11,37,537,945.8887763230014,946.6721322782396,"[61, 0, 193]",193,a,0.25042706774547696,colour,0.06
057,67,1,2,11,38,538,947.189130135579,948.0961918550311,"[56, 0, 198]",198,a,0.3744433683459647,colour,0.06
057,67,1,2,11,39,539,948.6050034855143,949.384154367377,"[93, 0, 161]",161,l,0.24578923240187578,colour,0.06
057,67,1,2,11,40,540,949.8890897466044,951.0002152581583,"[71, 0, 183]",183,l,0.5785228797467425,colour,0.06
057,67,1,2,11,41,541,951.5057752389985,952.6321183169202,"[67, 0, 187]",187,l,0.5937632230634335,colour,0.06
057,67,1,2,11,42,542,953.1390981676523,953.944144512323,"[78, 0, 176]",176,l,0.27246328178443946,colour,0.06
057,67,1,2,11,43,543,954.4554163737921,955.352163344709,"[74, 0, 180]",180,l,0.36382514107390307,colour,0.06
057,67,1,2,11,44,544,955.855738844024,956.4962384354731,"[81, 0, 173]",173,l,0.1078956764540635,colour,0.06
057,67,1,2,11,45,545,957.006448121334,957.8641701636661,"[97, 0, 157]",157,a,0.32583255352801643,colour,0.06
057,67,1,2,11,46,546,958.3724479795201,959.1522061396972,"[58, 0, 196]",196,a,0.24720268626697361,colour,0.06
057,67,1,2,11,47,547,959.6550024108146,960.7203151430876,"[1, 0, 253]",253,a,0.5318959048599936,colour,0.06
057,67,1,2,11,48,548,961.2224316346692,961.9522697868233,"[98, 0, 156]",156,l,0.1972717710013967,colour,0.06
057,67,1,2,11,49,549,962.4596557729819,963.3841534049716,"[48, 0, 206]",206,a,0.39582610860816203,colour,0.06
057,67,1,2,11,50,550,963.8886964432895,965.768193887634,"[89, 0, 165]",165,l,1.3465371182537638,colour,0.06
057,67,1,2,12,1,551,977.1882585163985,978.008165053936,"[76, 0, 178]",178,l,0.2865394344262313,colour,0.06
057,67,1,2,12,2,552,978.5227969961416,979.2001512902498,"[75, 0, 179]",179,l,0.1451719130272977,colour,0.06
057,67,1,2,12,3,553,979.7053144389356,980.4241417020967,"[42, 0, 212]",212,a,0.18586982428678311,colour,0.06
057,67,1,2,12,4,554,980.938239188079,981.6562371779291,"[91, 0, 163]",163,l,0.1846180546854157,colour,0.06
057,67,1,2,12,5,555,982.1720451804576,982.8882585484826,"[53, 0, 201]",201,a,0.1833300344296731,colour,0.06
057,67,1,2,12,6,556,983.4049484358693,984.1122383738693,"[89, 0, 165]",165,l,0.17391064442927018,colour,0.06
057,67,1,2,12,7,557,984.6218760696647,985.4561397824145,"[50, 0, 204]",204,a,0.3012142036750447,colour,0.06
057,67,1,2,12,8,558,985.9720536496316,986.6160875173518,"[60, 0, 194]",194,a,0.111163045396097,colour,0.06
057,67,1,2,12,9,559,987.1216712375463,987.8242973552551,"[58, 0, 196]",196,a,0.16937674896325916,colour,0.06
057,67,1,2,12,10,560,988.3390954729402,988.9841433959373,"[88, 0, 166]",166,l,0.11254121104138903,colour,0.06
057,67,1,2,12,11,561,989.489747005864,990.5762461475679,"[86, 0, 168]",168,l,0.5546661140397191,colour,0.06
057,67,1,2,12,12,562,991.088901949086,991.800199987978,"[61, 0, 193]",193,a,0.17857863515382633,colour,0.06
057,67,1,2,12,13,563,992.3050266153296,993.3362358433951,"[63, 0, 191]",191,a,0.4979807114577852,colour,0.06
057,67,1,2,12,14,564,993.8387238237483,994.4722809378873,"[59, 0, 195]",195,a,0.10071676803636365,colour,0.06
057,67,1,2,12,15,565,994.9885842587973,995.7282424827281,"[54, 0, 200]",200,a,0.20667640407918952,colour,0.06
057,67,1,2,12,16,566,996.2396057727456,996.9201209295425,"[55, 0, 199]",199,a,0.1485445050348062,colour,0.06
057,67,1,2,12,17,567,997.4232954262698,998.8081372724846,"[83, 0, 171]",171,l,0.8532523073081393,colour,0.06
057,67,1,2,12,18,568,999.3223945178615,1000.4962608916103,"[84, 0, 170]",170,l,0.6413811554957647,colour,0.06
057,67,1,2,12,19,569,1001.0057731537963,1004.3201626979571,"[94, 0, 160]",160,l,2.7819120251515415,colour,0.06
057,67,1,2,12,20,570,1004.8216937257675,1005.6081351551693,"[69, 0, 185]",185,l,0.25322863209294155,colour,0.06
057,67,1,2,12,21,571,1006.1222749870212,1006.7602367134241,"[65, 0, 189]",189,a,0.1053542825684417,colour,0.06
057,67,1,2,12,22,572,1007.2723429810139,1007.8962465196964,"[79, 0, 175]",175,a,0.09133234547334723,colour,0.06
057,67,1,2,12,23,573,1008.4056015888636,1009.0242917732976,"[95, 0, 159]",159,l,0.08607343735639006,colour,0.06
057,67,1,2,12,24,574,1009.5386766979354,1010.1843158591364,"[56, 0, 198]",198,a,0.11279785269289277,colour,0.06
057,67,1,2,12,25,575,1010.6887860753923,1011.4961550269509,"[25, 0, 229]",229,a,0.27462580846622586,colour,0.06
057,67,1,2,12,26,576,1012.0051540058339,1012.600163865689,"[52, 0, 202]",202,a,0.06196323802578263,colour,0.06
057,67,1,2,12,27,577,1013.1046712949756,1013.7761475330044,"[98, 0, 156]",156,l,0.13797375647118315,colour,0.06
057,67,1,2,12,28,578,1014.2887561766256,1015.1522385407006,"[71, 0, 183]",183,l,0.330735050549265,colour,0.06
057,67,1,2,12,29,579,1015.6558150024211,1016.5442256110837,"[82, 0, 172]",172,l,0.35605467364075594,colour,0.06
057,67,1,2,12,30,580,1017.0551561391621,1017.8481547626143,"[51, 0, 203]",203,a,0.2599577760556713,colour,0.06
057,67,1,2,12,31,581,1018.3552561973338,1019.576211500942,"[96, 0, 158]",158,l,0.6880504762812052,colour,0.06
057,67,1,2,12,32,582,1020.0889831120148,1021.4481425079575,"[74, 0, 180]",180,l,0.82665172155248,colour,0.06
057,67,1,2,12,33,583,1021.9561665694055,1023.2881845073716,"[80, 0, 174]",174,l,0.8000379829609301,colour,0.06
057,67,1,2,12,34,584,1023.8054370815516,1024.5601778141572,"[68, 0, 186]",186,a,0.22202870729961433,colour,0.06
057,67,1,2,12,35,585,1025.0724002121133,1025.8801214043342,"[73, 0, 181]",181,a,0.27527479102718644,colour,0.06
057,67,1,2,12,36,586,1026.388808242802,1026.928271226585,"[66, 0, 188]",188,a,0.006781755480915308,colour,0.06
057,67,1,2,12,37,587,1027.438202456251,1027.9761464422918,"[70, 0, 184]",184,a,0.004635268938727677,colour,0.06
057,67,1,2,12,38,588,1028.4887685595895,1029.0322967470274,"[77, 0, 177]",177,l,0.01083701426978223,colour,0.06
057,67,1,2,12,39,589,1029.538882332039,1031.560241332947,"[72, 0, 182]",182,l,1.4887775420502294,colour,0.06
057,67,1,2,12,40,590,1032.0726324727875,1033.2562156200293,"[57, 0, 197]",197,a,0.6514273927023169,colour,0.06
057,67,1,2,12,41,591,1033.772228935879,1034.552242133679,"[97, 0, 157]",157,l,0.24745162864564918,colour,0.06
057,67,1,2,12,42,592,1035.0553479788068,1037.6481779886817,"[62, 0, 192]",192,a,2.060068260267144,colour,0.06
057,67,1,2,12,43,593,1038.155481849477,1039.0402061217173,"[90, 0, 164]",164,l,0.3520882770244498,colour,0.06
057,67,1,2,12,44,594,1039.5547177631524,1040.2481599595922,"[17, 0, 237]",237,a,0.1600260106206406,colour,0.06
057,67,1,2,12,45,595,1040.7552719807718,1041.6081508744683,"[81, 0, 173]",173,l,0.32004720921395347,colour,0.06
057,67,1,2,12,46,596,1042.121427107195,1042.8001621333533,"[87, 0, 167]",167,l,0.14539775767480023,colour,0.06
057,67,1,2,12,47,597,1043.3051892619696,1044.040159926226,"[85, 0, 169]",169,l,0.20205396725214086,colour,0.06
057,67,1,2,12,48,598,1044.5553083597333,1045.4402308876452,"[92, 0, 162]",162,l,0.35213992616627365,colour,0.06
057,67,1,2,12,49,599,1045.9555544790637,1046.504206196143,"[67, 0, 187]",187,l,0.016107150440802798,colour,0.06
057,67,1,2,12,50,600,1047.0216243042087,1047.6322495249624,"[64, 0, 190]",190,a,0.07749775677802972,colour,0.06
057,67,1,2,13,1,601,1058.9380104562151,1060.1762348553166,"[80, 0, 174]",174,l,0.7048547295853496,colour,0.06
057,67,1,2,13,2,602,1060.6884877294651,1061.24816316762,"[95, 0, 159]",159,l,0.026792425342136994,colour,0.06
057,67,1,2,13,3,603,1061.7554343066295,1062.3122667969437,"[83, 0, 171]",171,l,0.024230820941738784,colour,0.06
057,67,1,2,13,4,604,1062.8229086031497,1064.5522341136239,"[89, 0, 165]",165,l,1.1975312998401932,colour,0.06
057,67,1,2,13,5,605,1065.0546993170283,1065.880167920608,"[79, 0, 175]",175,l,0.2920803275483195,colour,0.06
057,67,1,2,13,6,606,1066.388100232667,1067.2882560462167,"[70, 0, 184]",184,l,0.3668981039663777,colour,0.06
057,67,1,2,13,7,607,1067.8064360591816,1068.4881811710366,"[52, 0, 202]",202,a,0.1501581393822562,colour,0.06
057,67,1,2,13,8,608,1069.0049393892405,1069.6961507281812,"[82, 0, 172]",172,l,0.15813616570085287,colour,0.06
057,67,1,2,13,9,609,1070.2048382082721,1071.5441758867819,"[94, 0, 160]",160,l,0.8061643398541491,colour,0.06
057,67,1,2,13,10,610,1072.0551878985716,1072.6961330840713,"[59, 0, 195]",195,a,0.10807885442045517,colour,0.06
057,67,1,2,13,11,611,1073.2061345693946,1074.3841630290262,"[75, 0, 179]",179,l,0.6461623893701471,colour,0.06
057,67,1,2,13,12,612,1074.8888420874137,1075.5282130972482,"[93, 0, 161]",161,l,0.10684280411805958,colour,0.06
057,67,1,2,13,13,613,1076.0387172793853,1076.7601520216558,"[60, 0, 194]",194,a,0.18879489743267186,colour,0.06
057,67,1,2,13,14,614,1077.2720921137952,1078.096252807416,"[87, 0, 167]",167,l,0.2915952748444397,colour,0.06
057,67,1,2,13,15,615,1078.6054696108913,1080.0881544802978,"[72, 0, 182]",182,a,0.9501213754701894,colour,0.06
057,67,1,2,13,16,616,1080.6053098514676,1081.3281760125246,"[65, 0, 189]",189,a,0.19017081745550968,colour,0.06
057,67,1,2,13,17,617,1081.8382329966116,1082.6561444661347,"[90, 0, 164]",164,l,0.28483020106796175,colour,0.06
057,67,1,2,13,18,618,1083.1715335011831,1083.8081693526765,"[66, 0, 188]",188,a,0.10351384116802365,colour,0.06
057,67,1,2,13,19,619,1084.3219068987528,1085.0723142371571,"[56, 0, 198]",198,a,0.2176783106115181,colour,0.06
057,67,1,2,13,20,620,1085.588309908897,1086.3921888548648,"[91, 0, 163]",163,l,0.27087691563065164,colour,0.06
057,67,1,2,13,21,621,1086.905251112621,1088.6481937079807,"[71, 0, 183]",183,a,1.210229286865797,colour,0.06
057,67,1,2,13,22,622,1089.1552508720197,1090.064243499015,"[96, 0, 158]",158,l,0.37628220571787097,colour,0.06
057,67,1,2,13,23,623,1090.5714703673439,1091.2801419997995,"[18, 0, 236]",236,a,0.1755207499372773,colour,0.06
057,67,1,2,13,24,624,1091.7882513946097,1092.4001765052672,"[84, 0, 170]",170,l,0.0788877921004314,colour,0.06
057,67,1,2,13,25,625,1092.905535664031,1093.6801629161055,"[50, 0, 204]",204,a,0.2422077982337214,colour,0.06
057,67,1,2,13,26,626,1094.1885238196992,1095.056155758357,"[69, 0, 185]",185,a,0.33481725669116713,colour,0.06
057,67,1,2,13,27,627,1095.5712201417482,1096.328161897225,"[81, 0, 173]",173,l,0.22353808095795102,colour,0.06
057,67,1,2,13,28,628,1096.83932340279,1099.1522391822946,"[92, 0, 162]",162,l,1.7809663006919436,colour,0.06
057,67,1,2,13,29,629,1099.6548801852332,1100.2641824182938,"[85, 0, 169]",169,l,0.07625272398581728,colour,0.06
057,67,1,2,13,30,630,1100.7720547403733,1101.5362228830054,"[61, 0, 193]",193,a,0.23163063364336267,colour,0.06
057,67,1,2,13,31,631,1102.038289008633,1103.1122345242475,"[51, 0, 203]",203,a,0.5409669037908316,colour,0.06
057,67,1,2,13,32,632,1103.6214558189677,1105.2641522629128,"[78, 0, 176]",176,l,1.1095590351324063,colour,0.06
057,67,1,2,13,33,633,1105.771764093719,1107.0881714828138,"[53, 0, 201]",201,a,0.783584045508178,colour,0.06
057,67,1,2,13,34,634,1107.6053358364443,1108.4081747421587,"[64, 0, 190]",190,a,0.27020964736584574,colour,0.06
057,67,1,2,13,35,635,1108.9228538422612,1109.4641566258215,"[55, 0, 199]",199,a,0.009587169450242072,colour,0.06
057,67,1,2,13,36,636,1109.9717771182768,1110.744272319862,"[73, 0, 181]",181,l,0.2397052214073483,colour,0.06
057,67,1,2,13,37,637,1111.2555005522445,1112.0001292832312,"[54, 0, 200]",200,a,0.21223205409478396,colour,0.06
057,67,1,2,13,38,638,1112.5046713591437,1113.3361867606873,"[62, 0, 192]",192,a,0.2982933009916451,colour,0.06
057,67,1,2,13,39,639,1113.8388412373024,1114.5282114932488,"[38, 0, 216]",216,a,0.15698961916496046,colour,0.06
057,67,1,2,13,40,640,1115.0377904822526,1115.9682380299782,"[99, 0, 155]",155,l,0.3970178882300388,colour,0.06
057,67,1,2,13,41,641,1116.471958852635,1117.2321708642994,"[97, 0, 157]",157,l,0.22762157034594566,colour,0.06
057,67,1,2,13,42,642,1117.7386467350007,1120.78429847167,"[63, 0, 191]",191,l,2.513054237700999,colour,0.06
057,67,1,2,13,43,643,1121.2882361565134,1121.8481672738853,"[98, 0, 156]",156,l,0.02696245044353418,colour,0.06
057,67,1,2,13,44,644,1122.3552369491954,1123.0321597645525,"[74, 0, 180]",180,a,0.14428682014113292,colour,0.06
057,67,1,2,13,45,645,1123.5383947129012,1124.3522489988536,"[58, 0, 196]",196,a,0.28105051125749014,colour,0.06
057,67,1,2,13,46,646,1124.8547584729386,1125.5922807967581,"[86, 0, 168]",168,l,0.20440448392764665,colour,0.06
057,67,1,2,13,47,647,1126.1050909040787,1126.6961504073988,"[22, 0, 232]",232,a,0.05829390409053303,colour,0.06
057,67,1,2,13,48,648,1127.204934448906,1128.4641768363363,"[76, 0, 178]",178,l,0.7263208783988375,colour,0.06
057,67,1,2,13,49,649,1128.9719012686692,1129.5922320348327,"[57, 0, 197]",197,a,0.08771915192482993,colour,0.06
057,67,1,2,13,50,650,1130.105456297606,1130.7042452056776,"[77, 0, 177]",177,l,0.06639993045246229,colour,0.06
057,67,1,2,14,1,651,1140.2540360908606,1140.9362011326011,"[55, 0, 199]",199,a,0.14838570798747241,colour,0.06
057,67,1,2,14,2,652,1141.4381049324293,1143.8243121121486,"[61, 0, 193]",193,a,1.8531705027562566,colour,0.06
057,67,1,2,14,3,653,1144.3382062096207,1144.8801749782579,"[50, 0, 204]",204,a,0.009035710711032152,colour,0.06
057,67,1,2,14,4,654,1145.3887254758738,1146.0881602547306,"[78, 0, 176]",176,l,0.16696848793071695,colour,0.06
057,67,1,2,14,5,655,1146.6047157260473,1147.5442291399231,"[76, 0, 178]",178,l,0.40643342860857956,colour,0.06
057,67,1,2,14,6,656,1148.0553944950807,1148.7521775241476,"[84, 0, 170]",170,l,0.16438795620342717,colour,0.06
057,67,1,2,14,7,657,1149.2544807225058,1150.2321894708148,"[86, 0, 168]",168,l,0.44440163517720066,colour,0.06
057,67,1,2,14,8,658,1150.7382232763048,1151.4481803626113,"[81, 0, 173]",173,l,0.17706316625117324,colour,0.06
057,67,1,2,14,9,659,1151.9549067797197,1152.6962726329803,"[54, 0, 200]",200,a,0.20847899082582444,colour,0.06
057,67,1,2,14,10,660,1153.20503935116,1154.0882597033633,"[87, 0, 167]",167,l,0.3504242767521646,colour,0.06
057,67,1,2,14,11,661,1154.6052043075906,1155.8161823464325,"[96, 0, 158]",158,l,0.6783657829801086,colour,0.06
057,67,1,2,14,12,662,1156.3218196405796,1156.8721914982889,"[95, 0, 159]",159,l,0.017759281035978347,colour,0.06
057,67,1,2,14,13,663,1157.3884389996529,1159.3523022519948,"[90, 0, 164]",164,l,1.4311945353401825,colour,0.06
057,67,1,2,14,14,664,1159.8549009090348,1161.1281921809423,"[52, 0, 202]",202,a,0.7404191663663369,colour,0.06
057,67,1,2,14,15,665,1161.6382462778129,1162.3683340139687,"[98, 0, 156]",156,l,0.19725123967509717,colour,0.06
057,67,1,2,14,16,666,1162.8718168014893,1163.600192096259,"[99, 0, 155]",155,l,0.19578100382932462,colour,0.06
057,67,1,2,14,17,667,1164.1049433351145,1164.8242537261976,"[22, 0, 232]",232,a,0.18651976928231306,colour,0.06
057,67,1,2,14,18,668,1165.3376743198314,1166.200264854182,"[56, 0, 198]",198,l,0.329182368615875,colour,0.06
057,67,1,2,14,19,669,1166.7044816367852,1169.256181294215,"[64, 0, 190]",190,l,2.018448043061653,colour,0.06
057,67,1,2,14,20,670,1169.7717069909268,1170.520164494461,"[89, 0, 165]",165,l,0.2157733880158048,colour,0.06
057,67,1,2,14,21,671,1171.0217911212821,1172.352192216873,"[80, 0, 174]",174,l,0.7977997470006812,colour,0.06
057,67,1,2,14,22,672,1172.8547369792068,1174.4561882235284,"[67, 0, 187]",187,a,1.0684784069599118,colour,0.06
057,67,1,2,14,23,673,1174.9710460103815,1175.8322285445174,"[91, 0, 163]",163,l,0.3278484736511018,colour,0.06
057,67,1,2,14,24,674,1176.3383848963713,1177.6241778244148,"[63, 0, 191]",191,l,0.7531341558787972,colour,0.06
057,67,1,2,14,25,675,1178.1384328241984,1179.0962624314707,"[65, 0, 189]",189,l,0.42522344665485434,colour,0.06
057,67,1,2,14,26,676,1179.6045691195177,1180.1761565796332,"[60, 0, 194]",194,a,0.038416367082390934,colour,0.06
057,67,1,2,14,27,677,1180.688113353477,1182.5202610558772,"[73, 0, 181]",181,a,1.299233892612392,colour,0.06
057,67,1,2,14,28,678,1183.0381475349423,1184.1681974806124,"[92, 0, 162]",162,a,0.5971627624530811,colour,0.06
057,67,1,2,14,29,679,1184.6722188947897,1186.7361919576651,"[58, 0, 196]",196,a,1.531851954961894,colour,0.06
057,67,1,2,14,30,680,1187.2377688601846,1187.8721898942895,"[24, 0, 230]",230,a,0.10116974054835737,colour,0.06
057,67,1,2,14,31,681,1188.387681265187,1189.136351139663,"[93, 0, 161]",161,l,0.21529090171679854,colour,0.06
057,67,1,2,14,32,682,1189.6383133254421,1191.960212524922,"[82, 0, 172]",172,l,1.7892160463670734,colour,0.06
057,67,1,2,14,33,683,1192.4717397448258,1193.2561620461056,"[62, 0, 192]",192,a,0.2518357095832471,colour,0.06
057,67,1,2,14,34,684,1193.7724644046102,1194.4242796470062,"[57, 0, 197]",197,a,0.11995815459522419,colour,0.06
057,67,1,2,14,35,685,1194.9382289224013,1195.6322639610444,"[94, 0, 160]",160,l,0.1612354343815241,colour,0.06
057,67,1,2,14,36,686,1196.13776844315,1197.2081963641976,"[68, 0, 186]",186,a,0.5372148029564414,colour,0.06
057,67,1,2,14,37,687,1197.7227076848212,1199.4161774702661,"[83, 0, 171]",171,l,1.1618648480216507,colour,0.06
057,67,1,2,14,38,688,1199.9224759374338,1200.712234139297,"[59, 0, 195]",195,a,0.2579290238209069,colour,0.06
057,67,1,2,14,39,689,1201.2218503413314,1201.888182839204,"[71, 0, 183]",183,a,0.13387968062306754,colour,0.06
057,67,1,2,14,40,690,1202.4048220398545,1203.1921774343355,"[88, 0, 166]",166,l,0.25450510348309763,colour,0.06
057,67,1,2,14,41,691,1203.7051466594567,1204.632183118927,"[85, 0, 169]",169,l,0.3945640732999891,colour,0.06
057,67,1,2,14,42,692,1205.1381938266568,1206.4322692222195,"[75, 0, 179]",179,a,0.761305625870591,colour,0.06
057,67,1,2,14,43,693,1206.9382167319418,1209.4963693227037,"[74, 0, 180]",180,l,2.025402069237316,colour,0.06
057,67,1,2,14,44,694,1210.0047905370884,1210.8881738567434,"[79, 0, 175]",175,l,0.3505705624993425,colour,0.06
057,67,1,2,14,45,695,1211.4050408268522,1212.128291629604,"[66, 0, 188]",188,a,0.1906847423815634,colour,0.06
057,67,1,2,14,46,696,1212.638405074831,1213.3921468298067,"[70, 0, 184]",184,a,0.22118146906723268,colour,0.06
057,67,1,2,14,47,697,1213.9050798043027,1215.1602807274612,"[97, 0, 157]",157,l,0.7226842663076241,colour,0.06
057,67,1,2,14,48,698,1215.6717639974668,1216.4643471822492,"[13, 0, 241]",241,a,0.2600700567709282,colour,0.06
057,67,1,2,14,49,699,1216.9717148826749,1217.9682579197106,"[53, 0, 201]",201,a,0.4639679942338262,colour,0.06
057,67,1,2,14,50,700,1218.4713801257312,1219.144198278751,"[51, 0, 203]",203,a,0.13995278434595093,colour,0.06
057,67,1,2,15,1,701,1228.4705948022893,1229.2161811273836,"[58, 0, 196]",196,a,0.21195423949393444,colour,0.06
057,67,1,2,15,2,702,1229.7216262611037,1230.3043192467885,"[92, 0, 162]",162,l,0.0501118476386182,colour,0.06
057,67,1,2,15,3,703,1230.8216446430597,1232.8722880597052,"[98, 0, 156]",156,l,1.5180404640559573,colour,0.06
057,67,1,2,15,4,704,1233.3880819469632,1234.024342460034,"[71, 0, 183]",183,a,0.1034650792425964,colour,0.06
057,67,1,2,15,5,705,1234.5385650588141,1235.5041859856283,"[82, 0, 172]",172,l,0.4333034880401101,colour,0.06
057,67,1,2,15,6,706,1236.022203993518,1237.296290212922,"[52, 0, 202]",202,a,0.7420956779096741,colour,0.06
057,67,1,2,15,7,707,1237.8047204097675,1238.4402049026685,"[63, 0, 191]",191,a,0.10266596131259575,colour,0.06
057,67,1,2,15,8,708,1238.9542767244857,1239.888169044716,"[73, 0, 181]",181,a,0.400643593078712,colour,0.06
057,67,1,2,15,9,709,1240.4043684257485,1241.2883166778192,"[75, 0, 179]",179,l,0.3507919159310404,colour,0.06
057,67,1,2,15,10,710,1241.804868941108,1243.1042901821202,"[80, 0, 174]",174,l,0.7667406543041579,colour,0.06
057,67,1,2,15,11,711,1243.6214818039443,1247.4163096407137,"[59, 0, 195]",195,a,3.2621318515739404,colour,0.06
057,67,1,2,15,12,712,1247.921396438498,1250.8002872461511,"[65, 0, 189]",189,a,2.3461062810674775,colour,0.06
057,67,1,2,15,13,713,1251.3045210312994,1253.288190602616,"[57, 0, 197]",197,a,1.4506899971165694,colour,0.06
057,67,1,2,15,14,714,1253.8053600890562,1255.40031669577,"[88, 0, 166]",166,l,1.062838386016665,colour,0.06
057,67,1,2,15,15,715,1255.904920686502,1256.608340789302,"[68, 0, 186]",186,a,0.17084345596958883,colour,0.06
057,67,1,2,15,16,716,1257.120761763712,1257.8322218076792,"[95, 0, 159]",159,l,0.1780878080171533,colour,0.06
057,67,1,2,15,17,717,1258.3384124853474,1259.216304636182,"[97, 0, 157]",157,l,0.34550092759309337,colour,0.06
057,67,1,2,15,18,718,1259.7214517447865,1260.3924653862487,"[50, 0, 204]",204,a,0.13833048834931105,colour,0.06
057,67,1,2,15,19,719,1260.9045604257844,1261.9202008092543,"[96, 0, 158]",158,l,0.4827243280597031,colour,0.06
057,67,1,2,15,20,720,1262.43818802014,1263.8241946985945,"[53, 0, 201]",201,l,0.8533649088058155,colour,0.06
057,67,1,2,15,21,721,1264.3381956231606,1267.168237901671,"[90, 0, 164]",164,a,2.2974438171368092,colour,0.06
057,67,1,2,15,22,722,1267.670855486038,1268.320245144103,"[62, 0, 192]",192,a,0.11614317653584294,colour,0.06
057,67,1,2,15,23,723,1268.8380799740262,1269.5203053265577,"[8, 0, 246]",246,a,0.14953000895911828,colour,0.06
057,67,1,2,15,24,724,1270.0382094497327,1270.696220021433,"[74, 0, 180]",180,l,0.1254243008152116,colour,0.06
057,67,1,2,15,25,725,1271.2038895965961,1271.8241719216749,"[91, 0, 163]",163,l,0.0867060590244364,colour,0.06
057,67,1,2,15,26,726,1272.3382347610022,1273.2241979707906,"[66, 0, 188]",188,a,0.35340549028478563,colour,0.06
057,67,1,2,15,27,727,1273.738170343946,1276.0962159151677,"[7, 0, 247]",247,a,1.8254589795251377,colour,0.06
057,67,1,2,15,28,728,1276.604457159614,1277.176210153557,"[94, 0, 160]",160,l,0.03876475809374824,colour,0.06
057,67,1,2,15,29,729,1277.6873739047442,1278.408193348674,"[84, 0, 170]",170,l,0.18744720800896175,colour,0.06
057,67,1,2,15,30,730,1278.921629020013,1279.5042273690924,"[99, 0, 155]",155,l,0.05015451431972906,colour,0.06
057,67,1,2,15,31,731,1280.0223669609695,1280.848370983178,"[56, 0, 198]",198,a,0.29429386171977967,colour,0.06
057,67,1,2,15,32,732,1281.3540012196754,1282.2161904306558,"[70, 0, 184]",184,a,0.32877045875648037,colour,0.06
057,67,1,2,15,33,733,1282.721551835013,1283.3123120300297,"[61, 0, 193]",193,a,0.05824867100454867,colour,0.06
057,67,1,2,15,34,734,1283.8222865679709,1284.4802188639878,"[89, 0, 165]",165,l,0.12614674706128426,colour,0.06
057,67,1,2,15,35,735,1284.9881184542319,1285.9523066790425,"[79, 0, 175]",175,l,0.4315474175673444,colour,0.06
057,67,1,2,15,36,736,1286.454275601689,1287.064197624335,"[85, 0, 169]",169,l,0.07678333061630838,colour,0.06
057,67,1,2,15,37,737,1287.571449515206,1288.4002060190833,"[93, 0, 161]",161,l,0.2961609297199175,colour,0.06
057,67,1,2,15,38,738,1288.9049723356147,1289.5682841613307,"[64, 0, 190]",190,l,0.13090359995840117,colour,0.06
057,67,1,2,15,39,739,1290.0711862971366,1290.912211875635,"[55, 0, 199]",199,l,0.3081637386640068,colour,0.06
057,67,1,2,15,40,740,1291.422236779501,1292.3122103357746,"[83, 0, 171]",171,l,0.3581636263697874,colour,0.06
057,67,1,2,15,41,741,1292.8214720515534,1293.6642229035206,"[29, 0, 225]",225,a,0.31019858608487993,colour,0.06
057,67,1,2,15,42,742,1294.1707744835294,1295.1842058240145,"[67, 0, 187]",187,a,0.4801806885516271,colour,0.06
057,67,1,2,15,43,743,1295.6874130425858,1296.4402851031919,"[69, 0, 185]",185,a,0.21959061166853644,colour,0.06
057,67,1,2,15,44,744,1296.954118248279,1297.9683089272294,"[60, 0, 194]",194,a,0.4809528590994887,colour,0.06
057,67,1,2,15,45,745,1298.4710792133992,1301.616252730426,"[78, 0, 176]",176,l,2.6122090205026325,colour,0.06
057,67,1,2,15,46,746,1302.1209580945724,1303.0163541680377,"[76, 0, 178]",178,l,0.3623478476074524,colour,0.06
057,67,1,2,15,47,747,1303.52145668515,1304.3363067406463,"[54, 0, 200]",200,a,0.2823006768594496,colour,0.06
057,67,1,2,15,48,748,1304.8387235029368,1305.7923005581542,"[77, 0, 177]",177,a,0.4216320676205214,colour,0.06
057,67,1,2,15,49,749,1306.3046018734167,1307.3121910876653,"[87, 0, 167]",167,l,0.47486114886123687,colour,0.06
057,67,1,2,15,50,750,1307.8212891943695,1308.7363238073303,"[51, 0, 203]",203,a,0.3823296453047078,colour,0.06
057,67,1,2,16,1,751,1317.8368634926155,1318.7282055904798,"[71, 0, 183]",183,a,0.35757623781682923,colour,0.06
057,67,1,2,16,2,752,1319.2381291209022,1319.8882158818014,"[99, 0, 155]",155,l,0.11759063540375791,colour,0.06
057,67,1,2,16,3,753,1320.4046818493516,1321.0241852670151,"[74, 0, 180]",180,a,0.08689629464061,colour,0.06
057,67,1,2,16,4,754,1321.538090913382,1322.4402199803735,"[95, 0, 159]",159,l,0.36960246530361474,colour,0.06
057,67,1,2,16,5,755,1322.9546815766953,1323.6882853033603,"[0, 0, 254]",254,a,0.2009943580487743,colour,0.06
057,67,1,2,16,6,756,1324.2044346393086,1324.8323048953898,"[55, 0, 199]",199,a,0.09499558416428044,colour,0.06
057,67,1,2,16,7,757,1325.338043242169,1326.3361854774703,"[70, 0, 184]",184,a,0.4655588516034186,colour,0.06
057,67,1,2,16,8,758,1326.837106339779,1328.6881986868102,"[89, 0, 165]",165,l,1.317574146174593,colour,0.06
057,67,1,2,16,9,759,1329.2039588898479,1330.2002006937691,"[92, 0, 162]",162,l,0.46293533241259865,colour,0.06
057,67,1,2,16,10,760,1330.7043809049646,1331.5842668405676,"[53, 0, 201]",201,a,0.34700484763015993,colour,0.06
057,67,1,2,16,11,761,1332.0879668110865,1333.2642170649196,"[66, 0, 188]",188,a,0.6436206746438984,colour,0.06
057,67,1,2,16,12,762,1333.770674649917,1334.4161922271596,"[73, 0, 181]",181,a,0.1122691709024366,colour,0.06
057,67,1,2,16,13,763,1334.9211179823324,1335.54421791184,"[94, 0, 160]",160,l,0.09030513727338985,colour,0.06
057,67,1,2,16,14,764,1336.0548837782117,1336.776223883906,"[57, 0, 197]",197,a,0.18889177968958393,colour,0.06
057,67,1,2,16,15,765,1337.2877193444,1337.9202088293096,"[69, 0, 185]",185,a,0.09959941447596066,colour,0.06
057,67,1,2,16,16,766,1338.4373840902117,1339.376303378638,"[67, 0, 187]",187,a,0.40570039590238594,colour,0.06
057,67,1,2,16,17,767,1339.8878912301152,1341.0241705101216,"[41, 0, 213]",213,a,0.6035990141099319,colour,0.06
057,67,1,2,16,18,768,1341.5376783619286,1343.2562845924695,"[93, 0, 161]",161,l,1.1857200097292662,colour,0.06
057,67,1,2,16,19,769,1343.7715433818812,1346.3042082492902,"[88, 0, 166]",166,l,2.0003060451708734,colour,0.06
057,67,1,2,16,20,770,1346.820625454915,1347.4643343501666,"[86, 0, 168]",168,l,0.11040723577025346,colour,0.06
057,67,1,2,16,21,771,1347.9715551232512,1354.6083192955703,"[61, 0, 193]",193,a,6.1044383927073795,colour,0.06
057,67,1,2,16,22,772,1355.1208480594796,1355.9602144497621,"[54, 0, 200]",200,a,0.3063544150791131,colour,0.06
057,67,1,2,16,23,773,1356.470574270963,1357.1363816158555,"[96, 0, 158]",158,l,0.13252878317143768,colour,0.06
057,67,1,2,16,24,774,1357.6554682154092,1358.4082623211143,"[64, 0, 190]",190,a,0.22106918835197575,colour,0.06
057,67,1,2,16,25,775,1358.9207612504251,1359.7682262886374,"[77, 0, 177]",177,l,0.31438184491707943,colour,0.06
057,67,1,2,16,26,776,1360.2715448254894,1361.3841784275137,"[72, 0, 182]",182,l,0.5803286745212972,colour,0.06
057,67,1,2,16,27,777,1361.8879810546932,1362.5523739833152,"[50, 0, 204]",204,a,0.13184098355122842,colour,0.06
057,67,1,2,16,28,778,1363.0545366703882,1363.8722431474307,"[58, 0, 196]",196,a,0.28507850188179873,colour,0.06
057,67,1,2,16,29,779,1364.3879433604598,1365.1202988463629,"[60, 0, 194]",194,a,0.19980354083236307,colour,0.06
057,67,1,2,16,30,780,1365.6372495458054,1366.4483083626255,"[98, 0, 156]",156,a,0.27781843053526245,colour,0.06
057,67,1,2,16,31,781,1366.9542523435375,1367.8083448313992,"[81, 0, 173]",173,l,0.32118188610184006,colour,0.06
057,67,1,2,16,32,782,1368.3207712594594,1370.1762890708633,"[83, 0, 171]",171,l,1.3224500166252255,colour,0.06
057,67,1,2,16,33,783,1370.6880915389338,1371.7043350302556,"[63, 0, 191]",191,a,0.48384103999705985,colour,0.06
057,67,1,2,16,34,784,1372.2215612986765,1372.8402941498207,"[84, 0, 170]",170,l,0.08645102140144445,colour,0.06
057,67,1,2,16,35,785,1373.3545324678707,1374.032217188127,"[4, 0, 250]",250,a,0.14507021877216175,colour,0.06
057,67,1,2,16,36,786,1374.5379674045835,1375.2642629396287,"[75, 0, 179]",179,l,0.19377534938394092,colour,0.06
057,67,1,2,16,37,787,1375.7707301486807,1376.5522799883329,"[78, 0, 176]",176,l,0.24844515265431255,colour,0.06
057,67,1,2,16,38,788,1377.054047447251,1378.2162019795214,"[85, 0, 169]",169,l,0.6290713389753364,colour,0.06
057,67,1,2,16,39,789,1378.7203135390882,1380.24022363752,"[97, 0, 157]",157,a,0.9864098624675535,colour,0.06
057,67,1,2,16,40,790,1380.7541597600502,1381.664331334614,"[90, 0, 164]",164,l,0.37721189006697387,colour,0.06
057,67,1,2,16,41,791,1382.1704886489024,1383.4242331307032,"[76, 0, 178]",178,l,0.7204633536748588,colour,0.06
057,67,1,2,16,42,792,1383.937288009969,1384.872246034647,"[59, 0, 195]",195,a,0.40179687648196705,colour,0.06
057,67,1,2,16,43,793,1385.387863480748,1386.2002138466341,"[87, 0, 167]",167,l,0.27977821027161554,colour,0.06
057,67,1,2,16,44,794,1386.7042301279726,1387.7441898737452,"[52, 0, 202]",202,a,0.5070886026369408,colour,0.06
057,67,1,2,16,45,795,1388.2544813641289,1388.8881889344484,"[82, 0, 172]",172,a,0.1010892192425672,colour,0.06
057,67,1,2,16,46,796,1389.4049564559245,1391.5042511084466,"[80, 0, 174]",174,l,1.567160712525947,colour,0.06
057,67,1,2,16,47,797,1392.021146629937,1392.568301484629,"[91, 0, 163]",163,l,0.014547410857630894,colour,0.06
057,67,1,2,16,48,798,1393.0710310289287,1394.024403412419,"[68, 0, 186]",186,a,0.42065362134599127,colour,0.06
057,67,1,2,16,49,799,1394.5371891387913,1395.480334994325,"[51, 0, 203]",203,a,0.4099102812760975,colour,0.06
057,67,1,2,16,50,800,1395.9871544440393,1396.9602413971152,"[62, 0, 192]",192,a,0.4398334138968494,colour,0.06
