id,age,condition,counterbalance,block,trialinblock,trial,tstart,tend,trialstim,trialintensity,response,RT,trialtype,colourfreq
056,70,0,2,Practice,1,NA,5.513837095350027e-06,1.277877989676199,"[0, 0, 254]",254,a,0.7533851056796266,colour,0.5
056,70,0,2,Practice,2,NA,1.7853311298968038,2.5498904320702422,"[14, 0, 240]",240,a,0.2411235006293282,colour,0.5
056,70,0,2,Practice,3,NA,3.066627308333409,3.757856832278776,"[44, 0, 210]",210,a,0.16785319313930813,colour,0.5
056,70,0,2,Practice,4,NA,4.269775003704126,4.805900126972119,"[24, 0, 230]",230,a,0.011461703994427808,colour,0.5
056,70,0,2,Practice,5,NA,5.318343688850291,8.557891411954188,"[94, 0, 160]",160,l,2.71477993465669,colour,0.5
056,70,0,2,Practice,6,NA,9.060440776593168,10.613865975814406,"[73, 0, 181]",181,a,1.0301890775590437,colour,0.5
056,70,0,2,Practice,7,NA,11.122963422734756,14.269844714435749,"[50, 0, 204]",204,a,2.623859028375591,colour,0.5
056,70,0,2,Practice,8,NA,14.780044536091737,15.429863918354386,"[55, 0, 199]",199,a,0.12739143242652062,colour,0.5
056,70,0,2,Practice,9,NA,15.950993752034265,16.5659325641318,"[62, 0, 192]",192,a,0.10317975444195326,colour,0.5
056,70,0,2,Practice,10,NA,17.08206134228385,17.71786611128482,"[27, 0, 227]",227,a,0.11245797663286794,colour,0.5
056,70,0,2,1,1,1,4.509786283451831,5.439908564731013,"[6, 0, 248]",248,a,0.4037440568645252,colour,0.5
056,70,0,2,1,2,2,5.941934114307514,6.543929967898293,"[39, 0, 215]",215,a,0.07872822425269987,colour,0.5
056,70,0,2,1,3,3,7.051225963587058,7.6959871826838935,"[86, 0, 168]",168,l,0.12765727842634078,colour,0.5
056,70,0,2,1,4,4,8.216937422621413,8.823936300948844,"[67, 0, 187]",187,a,0.08220430836081505,colour,0.5
056,70,0,2,1,5,5,9.343375747921527,10.095980250989669,"[93, 0, 161]",161,l,0.22930654759693425,colour,0.5
056,70,0,2,1,6,6,10.609016157133738,11.287936026827083,"[9, 0, 245]",245,a,0.15557110810186714,colour,0.5
056,70,0,2,1,7,7,11.798062593152281,15.039934401022037,"[83, 0, 171]",171,l,2.7185179262887686,colour,0.5
056,70,0,2,1,8,8,15.5498388382548,16.159997936250875,"[5, 0, 249]",249,a,0.08683160408691037,colour,0.5
056,70,0,2,1,9,9,16.674880585924257,18.087946975734667,"[66, 0, 188]",188,a,0.8897014805406798,colour,0.5
056,70,0,2,1,10,10,18.59674667516083,19.287976986801368,"[37, 0, 217]",217,a,0.1678783992829267,colour,0.5
056,70,0,2,1,11,11,19.799844352091895,20.431950120211695,"[7, 0, 247]",247,a,0.1087420403782744,colour,0.5
056,70,0,2,1,12,12,20.94231338793179,21.52796699886676,"[99, 0, 155]",155,l,0.06228988319344353,colour,0.5
056,70,0,2,1,13,13,22.036069984853384,22.639935818879167,"[20, 0, 234]",234,a,0.08057418010139372,colour,0.5
056,70,0,2,1,14,14,23.16105462485575,23.78396960455575,"[88, 0, 166]",166,l,0.09893133847799618,colour,0.5
056,70,0,2,1,15,15,24.3023945044406,24.879944735541358,"[32, 0, 222]",222,a,0.0542656664038077,colour,0.5
056,70,0,2,1,16,16,25.396047519883723,26.111918407739722,"[72, 0, 182]",182,l,0.19250085859675892,colour,0.5
056,70,0,2,1,17,17,26.630500058294274,27.33596514306555,"[89, 0, 165]",165,l,0.18208757242246065,colour,0.5
056,70,0,2,1,18,18,27.849201910634292,28.50397981304559,"[4, 0, 250]",250,a,0.13175957754720002,colour,0.5
056,70,0,2,1,19,19,29.021112898306455,29.6719302861311,"[76, 0, 178]",178,l,0.1276494015182834,colour,0.5
056,70,0,2,1,20,20,30.193179455105565,30.831949883897323,"[8, 0, 246]",246,a,0.11558117478853092,colour,0.5
056,70,0,2,1,21,21,31.349210969085107,32.487967613269575,"[56, 0, 198]",198,l,0.6154307256510947,colour,0.5
056,70,0,2,1,22,22,33.00548509214423,33.99193442938849,"[3, 0, 251]",251,a,0.46316595407552086,colour,0.5
056,70,0,2,1,23,23,34.50552290135238,35.08794579420646,"[11, 0, 243]",243,a,0.059341552638215944,colour,0.5
056,70,0,2,1,24,24,35.599251535211806,36.311932664961205,"[69, 0, 185]",185,l,0.18900823296280578,colour,0.5
056,70,0,2,1,25,25,36.817965596783324,37.43195287713024,"[40, 0, 214]",214,a,0.09072949716937728,colour,0.5
056,70,0,2,1,26,26,37.943006950605195,38.63993030502752,"[12, 0, 242]",242,a,0.17366123893589247,colour,0.5
056,70,0,2,1,27,27,39.14614952597185,39.76000959408702,"[0, 0, 254]",254,a,0.09063891260302626,colour,0.5
056,70,0,2,1,28,28,40.26171888539102,40.871967780258274,"[90, 0, 164]",164,l,0.08692337018146645,colour,0.5
056,70,0,2,1,29,29,41.386703525393386,42.01596887673077,"[62, 0, 192]",192,a,0.1059410081943497,colour,0.5
056,70,0,2,1,30,30,42.52729312849988,43.231973672198365,"[91, 0, 163]",163,l,0.1811966929526534,colour,0.5
056,70,0,2,1,31,31,43.746075325398124,44.3199092263967,"[48, 0, 206]",206,a,0.050532400913652964,colour,0.5
056,70,0,2,1,32,32,44.826302527231746,45.43194106174633,"[85, 0, 169]",169,a,0.0822732313972665,colour,0.5
056,70,0,2,1,33,33,45.951204459604924,46.67195824919327,"[82, 0, 172]",172,l,0.2099123929219786,colour,0.5
056,70,0,2,1,34,34,47.19086915493244,48.37595468251675,"[15, 0, 239]",239,a,0.6617308582935948,colour,0.5
056,70,0,2,1,35,35,48.89398179802811,49.511985125238425,"[47, 0, 207]",207,a,0.09469749483105261,colour,0.5
056,70,0,2,1,36,36,50.01892272113764,50.60799491466605,"[81, 0, 173]",173,l,0.06566356736584567,colour,0.5
056,70,0,2,1,37,37,51.12837053340627,51.7839451861073,"[49, 0, 205]",205,a,0.13223455572733656,colour,0.5
056,70,0,2,1,38,38,52.300155096527305,52.903990210572374,"[74, 0, 180]",180,l,0.08038867865980137,colour,0.5
056,70,0,2,1,39,39,53.40965332106862,53.9519271668687,"[42, 0, 212]",212,a,0.018927447279565968,colour,0.5
056,70,0,2,1,40,40,54.47312237895676,55.05593833004241,"[26, 0, 228]",228,a,0.07183316371811088,colour,0.5
056,70,0,2,1,41,41,55.557688975153724,57.97595413113595,"[97, 0, 157]",157,l,1.8949412066867808,colour,0.5
056,70,0,2,1,42,42,58.4951998059114,59.319911589467665,"[79, 0, 175]",175,l,0.30141264654230326,colour,0.5
056,70,0,2,1,43,43,59.839048562789685,60.41593713274051,"[19, 0, 235]",235,a,0.053734762099338695,colour,0.5
056,70,0,2,1,44,44,60.932662193634314,61.60790748086583,"[29, 0, 225]",225,a,0.15189101180294529,colour,0.5
056,70,0,2,1,45,45,62.120179325924255,63.551990812367876,"[21, 0, 233]",233,a,0.9072236855718074,colour,0.5
056,70,0,2,1,46,46,64.05912099892157,64.66391237085918,"[68, 0, 186]",186,l,0.08152492414228618,colour,0.5
056,70,0,2,1,47,47,65.18404971281416,65.91196283354657,"[54, 0, 200]",200,a,0.20447850073105656,colour,0.5
056,70,0,2,1,48,48,66.4184754697053,68.67191886459477,"[59, 0, 195]",195,a,1.7301607994158985,colour,0.5
056,70,0,2,1,49,49,69.18411154662317,70.12794281673268,"[63, 0, 191]",191,a,0.4205203177261865,colour,0.5
056,70,0,2,1,50,50,70.63716393128561,71.31991631562414,"[41, 0, 213]",213,a,0.16017713614564855,colour,0.5
056,70,0,2,2,1,51,81.07386147021316,81.95195749300183,"[31, 0, 223]",223,a,0.3539902893389808,colour,0.5
056,70,0,2,2,2,52,82.46528326974658,83.05594226848916,"[68, 0, 186]",186,a,0.06725746179290581,colour,0.5
056,70,0,2,2,3,53,83.57469957433932,86.50393176384387,"[75, 0, 179]",179,l,2.405965741709224,colour,0.5
056,70,0,2,2,4,54,87.01212375899195,87.68790152591828,"[20, 0, 234]",234,a,0.15250029144226573,colour,0.5
056,70,0,2,2,5,55,88.19966727896826,88.80789968272438,"[40, 0, 214]",214,a,0.08482495912176091,colour,0.5
056,70,0,2,2,6,56,89.32590986284777,89.96001124824397,"[41, 0, 213]",213,a,0.1110574605409056,colour,0.5
056,70,0,2,2,7,57,90.45725472064805,91.18395715902443,"[87, 0, 167]",167,l,0.20199372681963723,colour,0.5
056,70,0,2,2,8,58,91.6930514551932,92.40796411591873,"[81, 0, 173]",173,l,0.19158477296878118,colour,0.5
056,70,0,2,2,9,59,92.92944053400424,94.92793131642975,"[30, 0, 224]",224,a,1.4752062177285552,colour,0.5
056,70,0,2,2,10,60,95.44508882013906,96.05590524697618,"[2, 0, 252]",252,a,0.08753304366837256,colour,0.5
056,70,0,2,2,11,61,96.56984384797397,97.17590143454436,"[69, 0, 185]",185,l,0.08257294812938198,colour,0.5
056,70,0,2,2,12,62,97.69502107864537,98.2639559302188,"[22, 0, 232]",232,a,0.04744819350889884,colour,0.5
056,70,0,2,2,13,63,98.77118812287517,99.34387159993639,"[27, 0, 227]",227,a,0.04962655529379845,colour,0.5
056,70,0,2,2,14,64,99.86487540291273,100.42396450031083,"[62, 0, 192]",192,l,0.035813984999549575,colour,0.5
056,70,0,2,2,15,65,100.94302270443586,102.06386605458101,"[55, 0, 199]",199,a,0.597804939141497,colour,0.5
056,70,0,2,2,16,66,102.58359655369713,104.95193780070986,"[92, 0, 162]",162,l,1.8449546762130922,colour,0.5
056,70,0,2,2,17,67,105.45860836908105,106.12792666903988,"[93, 0, 161]",161,l,0.14473561910563149,colour,0.5
056,70,0,2,2,18,68,106.64762723587046,107.18395125133975,"[16, 0, 238]",238,a,0.012992976946406998,colour,0.5
056,70,0,2,2,19,69,107.69441376822942,108.33603564149234,"[76, 0, 178]",178,l,0.11821679169952404,colour,0.5
056,70,0,2,2,20,70,108.85078044507827,109.37590545177227,"[14, 0, 240]",240,a,0.002636404591612518,colour,0.5
056,70,0,2,2,21,71,109.89770639890048,110.7279296622728,"[44, 0, 210]",210,a,0.30546138262434397,colour,0.5
056,70,0,2,2,22,72,111.24275402275089,111.84794869291363,"[7, 0, 247]",247,a,0.08180849321070127,colour,0.5
056,70,0,2,2,23,73,112.36780601041391,112.91190336282307,"[24, 0, 230]",230,a,0.01855801981582772,colour,0.5
056,70,0,2,2,24,74,113.43343098087644,115.39989972683543,"[97, 0, 157]",157,l,1.4431715781829553,colour,0.5
056,70,0,2,2,25,75,115.91074860657682,116.56786319683306,"[85, 0, 169]",169,l,0.13385877630207688,colour,0.5
056,70,0,2,2,26,76,117.08246227743803,117.727883582309,"[80, 0, 174]",174,l,0.12195438949856907,colour,0.5
056,70,0,2,2,27,77,118.23877342202468,118.83996149762243,"[49, 0, 205]",205,a,0.07803229850833304,colour,0.5
056,70,0,2,2,28,78,119.34817082200607,120.05590406544798,"[18, 0, 236]",236,a,0.1844455279642716,colour,0.5
056,70,0,2,2,29,79,120.56697822504793,121.19187346204126,"[52, 0, 202]",202,a,0.10155907846638002,colour,0.5
056,70,0,2,2,30,80,121.70761902812228,122.31189012959658,"[35, 0, 219]",219,a,0.07884401496266946,colour,0.5
056,70,0,2,2,31,81,122.81906482073828,123.41587805585004,"[65, 0, 189]",189,l,0.0734829842695035,colour,0.5
056,70,0,2,2,32,82,123.92842086691235,124.61591554999177,"[38, 0, 216]",216,a,0.16415655532910023,colour,0.5
056,70,0,2,2,33,83,125.13389343475865,125.67195943072147,"[48, 0, 206]",206,a,0.014741652819793671,colour,0.5
056,70,0,2,2,34,84,126.18080757319694,126.82387171020673,"[72, 0, 182]",182,l,0.1197807538555935,colour,0.5
056,70,0,2,2,35,85,127.33701080398168,127.89589864612208,"[4, 0, 250]",250,a,0.03558870512642898,colour,0.5
056,70,0,2,2,36,86,128.4151711024315,128.96788186513004,"[96, 0, 158]",158,l,0.029466370280715637,colour,0.5
056,70,0,2,2,37,87,129.47759804400266,130.15990617015632,"[70, 0, 184]",184,l,0.15901489682437386,colour,0.5
056,70,0,2,2,38,88,130.68070517324668,131.26390866871225,"[12, 0, 242]",242,a,0.059807078519952483,colour,0.5
056,70,0,2,2,39,89,131.77627661217412,132.52789886352548,"[64, 0, 190]",190,l,0.22758032093406655,colour,0.5
056,70,0,2,2,40,90,133.04261767328717,133.5759169520752,"[3, 0, 251]",251,a,0.00993712643685285,colour,0.5
056,70,0,2,2,41,91,134.0895704086288,134.70397319643234,"[36, 0, 218]",218,a,0.09109656157670543,colour,0.5
056,70,0,2,2,42,92,135.21456253170618,135.77585716627073,"[86, 0, 168]",168,l,0.038017552928067744,colour,0.5
056,70,0,2,2,43,93,136.29275039937056,136.89590967381082,"[53, 0, 201]",201,a,0.07991488202242181,colour,0.5
056,70,0,2,2,44,94,137.4020517009485,138.03985248107347,"[73, 0, 181]",181,l,0.1145477230893448,colour,0.5
056,70,0,2,2,45,95,138.55831361479068,139.1119010785187,"[89, 0, 165]",165,l,0.03032968055049423,colour,0.5
056,70,0,2,2,46,96,139.60833637908217,140.2319051430095,"[11, 0, 243]",243,a,0.10074342356529087,colour,0.5
056,70,0,2,2,47,97,140.74903113904293,141.31194723724911,"[95, 0, 159]",159,l,0.03968155193433631,colour,0.5
056,70,0,2,2,48,98,141.82704492680205,142.43189576946315,"[50, 0, 204]",204,a,0.08141897957830224,colour,0.5
056,70,0,2,2,49,99,142.95218434825074,143.5438496233255,"[25, 0, 229]",229,a,0.0683665319083957,colour,0.5
056,70,0,2,2,50,100,144.0614568990859,144.6878562336351,"[28, 0, 226]",226,a,0.10281465925800148,colour,0.5
056,70,0,2,3,1,101,152.47460284577392,153.49588746090012,"[9, 0, 245]",245,a,0.5086843025637791,colour,0.5
056,70,0,2,3,2,102,154.010829581297,154.60786967165768,"[91, 0, 163]",163,l,0.07374055951368064,colour,0.5
056,70,0,2,3,3,103,155.12037743043038,155.77587410164415,"[88, 0, 166]",166,l,0.1323267156694783,colour,0.5
056,70,0,2,3,4,104,156.29219822738378,156.8400071837532,"[99, 0, 155]",155,l,0.02423333952901885,colour,0.5
056,70,0,2,3,5,105,157.3422651024157,157.92792383335473,"[13, 0, 241]",241,a,0.06226192014582921,colour,0.5
056,70,0,2,3,6,106,158.43599649320822,159.0558508962422,"[71, 0, 183]",183,l,0.0965454198885709,colour,0.5
056,70,0,2,3,7,107,159.5766294193454,161.31186059115862,"[58, 0, 196]",196,a,1.2119280963379424,colour,0.5
056,70,0,2,3,8,108,161.82671842853597,162.7038861564797,"[64, 0, 190]",190,a,0.3538772555621108,colour,0.5
056,70,0,2,3,9,109,163.2173025177908,163.87188822338067,"[1, 0, 253]",253,a,0.13137321469548624,colour,0.5
056,70,0,2,3,10,110,164.38912725320552,165.00783083845454,"[63, 0, 191]",191,l,0.095351672891411,colour,0.5
056,70,0,2,3,11,111,165.5016332790401,166.12786404755025,"[2, 0, 252]",252,a,0.10277015466999728,colour,0.5
056,70,0,2,3,12,112,166.6357500244194,167.19991579574707,"[0, 0, 254]",254,a,0.04094540349615272,colour,0.5
056,70,0,2,3,13,113,167.7137901998649,168.23986516291916,"[32, 0, 222]",222,a,0.0026797276514116675,colour,0.5
056,70,0,2,3,14,114,168.76073860289762,169.2958810805867,"[16, 0, 238]",238,a,0.011804349938756786,colour,0.5
056,70,0,2,3,15,115,169.80964717706956,170.51184964223648,"[47, 0, 207]",207,l,0.17782222109963186,colour,0.5
056,70,0,2,3,16,116,171.0297861731815,172.83189277624479,"[44, 0, 210]",210,a,1.2787397245701868,colour,0.5
056,70,0,2,3,17,117,173.3440362275287,173.91985826272867,"[92, 0, 162]",162,l,0.05235708906548098,colour,0.5
056,70,0,2,3,18,118,174.43901965449913,175.11186445083877,"[60, 0, 194]",194,a,0.1496602685074322,colour,0.5
056,70,0,2,3,19,119,175.62658562368597,176.66385841397278,"[70, 0, 184]",184,a,0.5139228471525712,colour,0.5
056,70,0,2,3,20,120,177.17341469140956,177.96785823437676,"[69, 0, 185]",185,a,0.27111368598707486,colour,0.5
056,70,0,2,3,21,121,178.48703931842465,179.0718741236924,"[5, 0, 249]",249,a,0.0616427943459712,colour,0.5
056,70,0,2,3,22,122,179.58073801999853,181.4558593245456,"[68, 0, 186]",186,l,1.3517134660651209,colour,0.5
056,70,0,2,3,23,123,181.9607256847521,182.80786069197347,"[57, 0, 197]",197,l,0.32382523638079874,colour,0.5
056,70,0,2,3,24,124,183.30755112908082,183.99982710165204,"[49, 0, 205]",205,a,0.16883898948435672,colour,0.5
056,70,0,2,3,25,125,184.51081343361875,185.15985615171667,"[48, 0, 206]",206,a,0.12580383951717522,colour,0.5
056,70,0,2,3,26,126,185.66696782752115,186.31985014950624,"[66, 0, 188]",188,l,0.1295658557646675,colour,0.5
056,70,0,2,3,27,127,186.83888629826833,187.49584610707825,"[75, 0, 179]",179,l,0.13383317632542457,colour,0.5
056,70,0,2,3,28,128,188.0107535690331,188.5918365980615,"[45, 0, 209]",209,a,0.05782288276532199,colour,0.5
056,70,0,2,3,29,129,189.1044656613667,189.71186980714265,"[50, 0, 204]",204,l,0.08420937793562189,colour,0.5
056,70,0,2,3,30,130,190.22944754445052,190.8958439015405,"[12, 0, 242]",242,a,0.14304365703719668,colour,0.5
056,70,0,2,3,31,131,191.4169079629355,192.00786195228284,"[87, 0, 167]",167,l,0.06760010775178671,colour,0.5
056,70,0,2,3,32,132,192.52623171373853,193.07989715895383,"[98, 0, 156]",156,l,0.030207982155843638,colour,0.5
056,70,0,2,3,33,133,193.5888169813843,194.223859658523,"[65, 0, 189]",189,a,0.11181128163298126,colour,0.5
056,70,0,2,3,34,134,194.7450249383255,195.48788845023955,"[41, 0, 213]",213,a,0.21945724880788475,colour,0.5
056,70,0,2,3,35,135,195.99504817524576,196.6478395188169,"[56, 0, 198]",198,a,0.12939020048361272,colour,0.5
056,70,0,2,3,36,136,197.1669107198686,199.02387612128223,"[39, 0, 215]",215,a,1.3322157298825914,colour,0.5
056,70,0,2,3,37,137,199.543382522068,200.2798444623768,"[14, 0, 240]",240,a,0.21315138177305926,colour,0.5
056,70,0,2,3,38,138,200.7933372297848,202.57582479213306,"[76, 0, 178]",178,l,1.2591821238020202,colour,0.5
056,70,0,2,3,39,139,203.09024309746746,203.71186862561444,"[54, 0, 200]",200,a,0.0982342312054243,colour,0.5
056,70,0,2,3,40,140,204.2307842575101,204.83988784844405,"[30, 0, 224]",224,a,0.08574183243035804,colour,0.5
056,70,0,2,3,41,141,205.35580513134482,205.97585291272844,"[40, 0, 214]",214,a,0.09672973977285437,colour,0.5
056,70,0,2,3,42,142,206.49643766364898,207.03185268273228,"[84, 0, 170]",170,l,0.012161568200099282,colour,0.5
056,70,0,2,3,43,143,207.5433277774864,208.1838484575419,"[51, 0, 203]",203,a,0.1172006692213472,colour,0.5
056,70,0,2,3,44,144,208.70022299556877,209.23182991842623,"[29, 0, 225]",225,a,0.008953693162766285,colour,0.5
056,70,0,2,3,45,145,209.74715170630952,210.3198469987401,"[24, 0, 230]",230,a,0.04810591619752813,colour,0.5
056,70,0,2,3,46,146,210.82648409021203,212.60788897011662,"[26, 0, 228]",228,a,1.2587587394373259,colour,0.5
056,70,0,2,3,47,147,213.1233734163543,213.74383749287517,"[11, 0, 243]",243,a,0.0971440656867344,colour,0.5
056,70,0,2,3,48,148,214.26400634250604,214.84783290220366,"[8, 0, 246]",246,a,0.06056168729264755,colour,0.5
056,70,0,2,3,49,149,215.35776687787438,215.9599647744326,"[27, 0, 227]",227,a,0.0789019103103783,colour,0.5
056,70,0,2,3,50,150,216.46711032096937,218.0878205511981,"[82, 0, 172]",172,l,1.097158637989196,colour,0.5
056,70,0,2,4,1,151,226.35914061244694,227.11984376920736,"[29, 0, 225]",225,a,0.23654661717591807,colour,0.5
056,70,0,2,4,2,152,227.64124338733382,228.487912868688,"[53, 0, 201]",201,a,0.3234298150782706,colour,0.5
056,70,0,2,4,3,153,229.0005194827827,229.6158793161594,"[40, 0, 214]",214,a,0.0923048808472231,colour,0.5
056,70,0,2,4,4,154,230.12555650429567,231.9518917207315,"[13, 0, 241]",241,a,1.3030530148098478,colour,0.5
056,70,0,2,4,5,155,232.4693796611682,233.0238008967135,"[2, 0, 252]",252,a,0.03127412305912003,colour,0.5
056,70,0,2,4,6,156,233.53178848583775,234.1757868253917,"[33, 0, 221]",221,a,0.12998412013985217,colour,0.5
056,70,0,2,4,7,157,234.69429718983884,235.31983163875702,"[50, 0, 204]",204,a,0.10219592732028104,colour,0.5
056,70,0,2,4,8,158,235.83495886673336,236.42382153423387,"[12, 0, 242]",242,a,0.0656493888964178,colour,0.5
056,70,0,2,4,9,159,236.9443074298324,237.57579407215235,"[49, 0, 205]",205,a,0.1082024714560248,colour,0.5
056,70,0,2,4,10,160,238.084902546776,239.81585379494936,"[89, 0, 165]",165,l,1.207633994257776,colour,0.5
056,70,0,2,4,11,161,240.33499234364717,241.03985720722994,"[48, 0, 206]",206,a,0.1816263788496144,colour,0.5
056,70,0,2,4,12,162,241.5536914390541,242.11184200162825,"[47, 0, 207]",207,a,0.034982970100827515,colour,0.5
056,70,0,2,4,13,163,242.62602163632982,243.24785629665712,"[28, 0, 226]",226,a,0.09857175714569166,colour,0.5
056,70,0,2,4,14,164,243.76654074100952,244.32782907402725,"[8, 0, 246]",246,a,0.037942722206935287,colour,0.5
056,70,0,2,4,15,165,244.84464944562933,245.43983924786153,"[69, 0, 185]",185,l,0.0705381983279949,colour,0.5
056,70,0,2,4,16,166,245.95538946635497,246.59981040257844,"[42, 0, 212]",212,a,0.12124113453319296,colour,0.5
056,70,0,2,4,17,167,247.11154779871868,247.73584123913315,"[79, 0, 175]",175,l,0.10088481423736084,colour,0.5
056,70,0,2,4,18,168,248.25225870635768,248.83981223002775,"[81, 0, 173]",173,l,0.0642374512826791,colour,0.5
056,70,0,2,4,19,169,249.34601412175107,249.95178301926353,"[54, 0, 200]",200,a,0.08254498508176766,colour,0.5
056,70,0,2,4,20,170,250.4759746111231,251.15978959176573,"[76, 0, 178]",178,l,0.16516165011853445,colour,0.5
056,70,0,2,4,21,171,251.67464624760032,252.23184645996662,"[84, 0, 170]",170,l,0.033873899999889545,colour,0.5
056,70,0,2,4,22,172,252.75278409682505,253.31181136041414,"[91, 0, 163]",163,l,0.03568834814359434,colour,0.5
056,70,0,2,4,23,173,253.83270882499346,254.43193869867537,"[25, 0, 229]",229,a,0.07594097667606547,colour,0.5
056,70,0,2,4,24,174,254.94210937574098,256.4557967030414,"[5, 0, 249]",249,a,0.9903858272155048,colour,0.5
056,70,0,2,4,25,175,256.9752424515609,257.53582383114554,"[80, 0, 174]",174,l,0.03732556563045364,colour,0.5
056,70,0,2,4,26,176,258.0534137776849,258.6397751297336,"[23, 0, 231]",231,a,0.06305867043556646,colour,0.5
056,70,0,2,4,27,177,259.1471077531023,259.7037888765335,"[94, 0, 160]",160,l,0.033454454081947915,colour,0.5
056,70,0,2,4,28,178,260.2083803322894,260.8478313268279,"[41, 0, 213]",213,a,0.11607466373243369,colour,0.5
056,70,0,2,4,29,179,261.3522089242324,261.9038385798922,"[37, 0, 217]",217,a,0.02832658018451184,colour,0.5
056,70,0,2,4,30,180,262.4146142042882,263.03990525643167,"[62, 0, 192]",192,l,0.10191432748979423,colour,0.5
056,70,0,2,4,31,181,263.5553574072983,264.10379691098933,"[72, 0, 182]",182,l,0.025089560556807555,colour,0.5
056,70,0,2,4,32,182,264.6179978133732,265.1758498407289,"[70, 0, 184]",184,l,0.03449696423194837,colour,0.5
056,70,0,2,4,33,183,265.6961659887311,266.27183127326134,"[74, 0, 180]",180,l,0.05234330445819069,colour,0.5
056,70,0,2,4,34,184,266.78985760107753,267.39182115929725,"[90, 0, 164]",164,l,0.07861637201858684,colour,0.5
056,70,0,2,4,35,185,267.8992782379646,268.5117771745863,"[58, 0, 196]",196,a,0.08917577500687912,colour,0.5
056,70,0,2,4,36,186,269.02425263798796,269.5918184811453,"[27, 0, 227]",227,l,0.04420487234892789,colour,0.5
056,70,0,2,4,37,187,270.1024401117902,270.8318203085946,"[73, 0, 181]",181,l,0.20612556437845342,colour,0.5
056,70,0,2,4,38,188,271.3524424748757,273.4478343200608,"[75, 0, 179]",179,l,1.5721821112092584,colour,0.5
056,70,0,2,4,39,189,273.9617622872174,274.6557956002798,"[65, 0, 189]",189,l,0.1707333883678075,colour,0.5
056,70,0,2,4,40,190,275.1648591764533,275.88776454630715,"[46, 0, 208]",208,a,0.19959166055195965,colour,0.5
056,70,0,2,4,41,191,276.39225832826924,277.0717973237479,"[56, 0, 198]",198,a,0.15637179685290903,colour,0.5
056,70,0,2,4,42,192,277.57948992228194,278.19981418350653,"[82, 0, 172]",172,l,0.09689673045068048,colour,0.5
056,70,0,2,4,43,193,278.7202610883396,279.36786902575113,"[19, 0, 235]",235,a,0.1312066178652458,colour,0.5
056,70,0,2,4,44,194,279.88528528623283,280.4237919957959,"[93, 0, 161]",161,l,0.015259560212143697,colour,0.5
056,70,0,2,4,45,195,280.93213916625245,281.5597889616038,"[1, 0, 253]",253,a,0.10430733529210556,colour,0.5
056,70,0,2,4,46,196,282.0744471190992,282.6797906630236,"[21, 0, 233]",233,a,0.08215822838246822,colour,0.5
056,70,0,2,4,47,197,283.19944475602824,283.73580067300645,"[17, 0, 237]",237,a,0.013000066159293056,colour,0.5
056,70,0,2,4,48,198,284.2462541314453,286.0318223565846,"[31, 0, 223]",223,a,1.2622308850695845,colour,0.5
056,70,0,2,4,49,199,286.5442095985054,287.5758417275065,"[52, 0, 202]",202,a,0.5083243273838889,colour,0.5
056,70,0,2,4,50,200,288.09110877079365,288.71976011633524,"[10, 0, 244]",244,a,0.10525295935804024,colour,0.5
056,70,0,2,5,1,201,302.00321141965105,304.24778934284404,"[98, 0, 156]",156,l,1.7205879804532742,colour,0.5
056,70,0,2,5,2,202,304.7416914264468,305.4798409965297,"[14, 0, 240]",240,a,0.2150355406483868,colour,0.5
056,70,0,2,5,3,203,305.9914566942898,306.5837855997379,"[27, 0, 227]",227,a,0.06961778040567879,colour,0.5
056,70,0,2,5,4,204,307.1008871773229,307.6637993370823,"[82, 0, 172]",172,l,0.03968194578192197,colour,0.5
056,70,0,2,5,5,205,308.17958901390375,308.7998037859652,"[39, 0, 215]",215,a,0.0969187858136138,colour,0.5
056,70,0,2,5,6,206,309.32021524467564,309.9437461993948,"[9, 0, 245]",245,a,0.1006386605440639,colour,0.5
056,70,0,2,5,7,207,310.4608513215935,311.08783118503925,"[12, 0, 242]",242,a,0.10398241241637152,colour,0.5
056,70,0,2,5,8,208,311.60141374931845,312.30381746975763,"[36, 0, 218]",218,a,0.19147607150080148,colour,0.5
056,70,0,2,5,9,209,312.82345620276465,313.37581486722047,"[77, 0, 177]",177,l,0.028989029029617086,colour,0.5
056,70,0,2,5,10,210,313.8859323750803,314.5517997970892,"[16, 0, 238]",238,a,0.142525355797261,colour,0.5
056,70,0,2,5,11,211,315.07341681816615,315.62376804996165,"[90, 0, 164]",164,l,0.02505096365348436,colour,0.5
056,70,0,2,5,12,212,316.1378917585389,316.7437709329097,"[86, 0, 168]",168,l,0.08269307113368995,colour,0.5
056,70,0,2,5,13,213,317.2646286190575,317.83980829156644,"[6, 0, 248]",248,a,0.05188920011278242,colour,0.5
056,70,0,2,5,14,214,318.35839703134843,318.93578381639963,"[65, 0, 189]",189,l,0.054108128024381585,colour,0.5
056,70,0,2,5,15,215,319.45203508065606,320.03979537342093,"[29, 0, 225]",225,a,0.07363500881183427,colour,0.5
056,70,0,2,5,16,216,320.5521841907175,321.12780300142185,"[87, 0, 167]",167,l,0.05235984598402865,colour,0.5
056,70,0,2,5,17,217,321.64590022149787,323.1277876414388,"[92, 0, 162]",162,l,0.9588919381349115,colour,0.5
056,70,0,2,5,18,218,323.64754334668396,324.2237745878083,"[43, 0, 211]",211,a,0.052988424082286656,colour,0.5
056,70,0,2,5,19,219,324.74121605441906,325.37573334110493,"[48, 0, 206]",206,a,0.11122878351307008,colour,0.5
056,70,0,2,5,20,220,325.88190451284754,326.47173722286243,"[69, 0, 185]",185,l,0.06656941298570018,colour,0.5
056,70,0,2,5,21,221,326.991181002144,327.5837722089782,"[47, 0, 207]",207,a,0.06641896383371204,colour,0.5
056,70,0,2,5,22,222,328.10338258509,328.76775536182686,"[11, 0, 243]",243,a,0.14101889515586663,colour,0.5
056,70,0,2,5,23,223,329.27525261277333,329.855778743673,"[91, 0, 163]",163,l,0.057121837031445466,colour,0.5
056,70,0,2,5,24,224,330.36908325273544,330.99174932180904,"[10, 0, 244]",244,a,0.09935629823303316,colour,0.5
056,70,0,2,5,25,225,331.5096299266297,332.20773245574674,"[71, 0, 183]",183,l,0.1747545552207157,colour,0.5
056,70,0,2,5,26,226,332.7283845543134,333.25575920891424,"[72, 0, 182]",182,l,0.003987689953646623,colour,0.5
056,70,0,2,5,27,227,333.77524276662734,334.3438014953572,"[2, 0, 252]",252,a,0.04523950557631906,colour,0.5
056,70,0,2,5,28,228,334.8534188189078,335.5997395103186,"[56, 0, 198]",198,l,0.2233137880830327,colour,0.5
056,70,0,2,5,29,229,336.1190312650724,336.76775536182686,"[63, 0, 191]",191,l,0.12542062744614668,colour,0.5
056,70,0,2,5,30,230,337.27526876046613,337.85576220214716,"[62, 0, 192]",192,l,0.0569631171238143,colour,0.5
056,70,0,2,5,31,231,338.36899345586426,339.9277682642132,"[4, 0, 250]",250,a,1.0354154129163362,colour,0.5
056,70,0,2,5,32,232,340.447254972707,340.9997991385899,"[99, 0, 155]",155,l,0.029396265716059133,colour,0.5
056,70,0,2,5,33,233,341.5097654096171,342.1597466625535,"[15, 0, 239]",239,a,0.12667463286197744,colour,0.5
056,70,0,2,5,34,234,342.65357312773995,343.3597593443992,"[21, 0, 233]",233,a,0.1828921996493591,colour,0.5
056,70,0,2,5,35,235,343.86070693767397,344.4157847143797,"[61, 0, 193]",193,l,0.0320468487625476,colour,0.5
056,70,0,2,5,36,236,344.92313624233066,345.4558030045737,"[70, 0, 184]",184,l,0.009276252982090227,colour,0.5
056,70,0,2,5,37,237,345.9703197713825,346.66375246942334,"[35, 0, 219]",219,a,0.17038798549037892,colour,0.5
056,70,0,2,5,38,238,347.17315239002346,347.8637883881747,"[7, 0, 247]",247,a,0.16729471963481046,colour,0.5
056,70,0,2,5,39,239,348.376281968478,348.9517522992828,"[41, 0, 213]",213,a,0.05207470155437477,colour,0.5
056,70,0,2,5,40,240,349.471055869406,350.047799504071,"[19, 0, 235]",235,a,0.053423623816343024,colour,0.5
056,70,0,2,5,41,241,350.56480931556143,351.1437513981655,"[57, 0, 197]",197,a,0.05555078564793803,colour,0.5
056,70,0,2,5,42,242,351.65850722944015,352.2397391322156,"[80, 0, 174]",174,l,0.05786344889202155,colour,0.5
056,70,0,2,5,43,243,352.752316995553,353.38420181610854,"[64, 0, 190]",190,l,0.10690041685302276,colour,0.5
056,70,0,2,5,44,244,353.89535553260066,354.46379689524474,"[68, 0, 186]",186,l,0.045165462550357915,colour,0.5
056,70,0,2,5,45,245,354.97342603416473,355.55975706009485,"[24, 0, 230]",230,a,0.06290979668847285,colour,0.5
056,70,0,2,5,46,246,356.0673212648544,356.65572037569655,"[67, 0, 187]",187,l,0.06517244149290491,colour,0.5
056,70,0,2,5,47,247,357.1767277232866,357.7197794147796,"[26, 0, 228]",228,a,0.019732468339498155,colour,0.5
056,70,0,2,5,48,248,358.239434689327,358.80778034741525,"[73, 0, 181]",181,l,0.045231234820676036,colour,0.5
056,70,0,2,5,49,249,359.3200825186068,359.8797367849038,"[17, 0, 237]",237,a,0.03636300622019917,colour,0.5
056,70,0,2,5,50,250,360.39828220164054,361.01572232917533,"[76, 0, 178]",178,l,0.09421739664685447,colour,0.5
056,70,0,2,6,1,251,376.24131215283705,379.7037345257995,"[18, 0, 236]",236,a,2.938295765678049,colour,0.5
056,70,0,2,6,2,252,380.1984432058525,380.911782058276,"[78, 0, 176]",176,l,0.19002553696918767,colour,0.5
056,70,0,2,6,3,253,381.4327476581966,383.42377742349345,"[12, 0, 242]",242,a,1.4675975083664525,colour,0.5
056,70,0,2,6,4,254,383.93273544897966,384.50375650239585,"[3, 0, 251]",251,a,0.04767465491022449,colour,0.5
056,70,0,2,6,5,255,385.0112513902859,385.5917960319348,"[33, 0, 221]",221,a,0.05719272929127328,colour,0.5
056,70,0,2,6,6,256,386.10513519943925,386.6397605574457,"[45, 0, 209]",209,a,0.011518811661517248,colour,0.5
056,70,0,2,6,7,257,387.151977657908,389.09580262648524,"[79, 0, 175]",175,l,1.4205092900374439,colour,0.5
056,70,0,2,6,8,258,389.60504343333014,390.3437510830845,"[60, 0, 194]",194,a,0.21558534956420772,colour,0.5
056,70,0,2,6,9,259,390.85505564256164,391.60773143175174,"[46, 0, 208]",208,a,0.2298165780812269,colour,0.5
056,70,0,2,6,10,260,392.12072677175456,392.7197262455884,"[7, 0, 247]",247,a,0.0758448782726191,colour,0.5
056,70,0,2,6,11,261,393.230015470268,393.79174569841416,"[59, 0, 195]",195,l,0.03830584813840687,colour,0.5
056,70,0,2,6,12,262,394.30825808251393,395.15975375178095,"[31, 0, 223]",223,l,0.328348950642976,colour,0.5
056,70,0,2,6,13,263,395.66751487950387,396.45576440767036,"[63, 0, 191]",191,l,0.26497638499131426,colour,0.5
056,70,0,2,6,14,264,396.9644762794487,397.503776982383,"[97, 0, 157]",157,l,0.016045676660723984,colour,0.5
056,70,0,2,6,15,265,398.01130298410135,398.6157847931463,"[29, 0, 225]",225,a,0.08150444415514357,colour,0.5
056,70,0,2,6,16,266,399.1362663564214,399.807784285862,"[56, 0, 198]",198,l,0.14820579551451374,colour,0.5
056,70,0,2,6,17,267,400.32380711947917,401.0717126468662,"[99, 0, 155]",155,l,0.22463356575462967,colour,0.5
056,70,0,2,6,18,268,401.58945461793337,402.20772300344834,"[27, 0, 227]",227,a,0.09496452235907782,colour,0.5
056,70,0,2,6,19,269,402.71437545490335,403.3037268851913,"[22, 0, 232]",232,a,0.06610546249430627,colour,0.5
056,70,0,2,6,20,270,403.82371889799833,404.4237281927635,"[71, 0, 183]",183,l,0.07671173315611668,colour,0.5
056,70,0,2,6,21,271,404.93320924561704,405.69573945360025,"[49, 0, 205]",205,l,0.23932401862111874,colour,0.5
056,70,0,2,6,22,272,406.2144006610324,406.83968935009034,"[73, 0, 181]",181,a,0.10204862893442623,colour,0.5
056,70,0,2,6,23,273,407.35505012871,408.0717835391406,"[47, 0, 207]",207,a,0.19368712250434328,colour,0.5
056,70,0,2,6,24,274,408.58957710400864,409.2797231578297,"[35, 0, 219]",219,a,0.16681777221674565,colour,0.5
056,70,0,2,6,25,275,409.7927358270681,410.3917486916471,"[86, 0, 168]",168,l,0.0755999061075272,colour,0.5
056,70,0,2,6,26,276,410.9020572147856,411.5437704602955,"[85, 0, 169]",169,l,0.1180509825644549,colour,0.5
056,70,0,2,6,27,277,412.0598720630951,412.67178574467835,"[42, 0, 212]",212,a,0.08851372002391145,colour,0.5
056,70,0,2,6,28,278,413.18486576156283,414.2397355876019,"[70, 0, 184]",184,l,0.5443297214951599,colour,0.5
056,70,0,2,6,29,279,414.7505348427658,415.4877029488125,"[55, 0, 199]",199,a,0.21390008287562523,colour,0.5
056,70,0,2,6,30,280,416.00049624586245,417.1197925692395,"[14, 0, 240]",240,a,0.595877851053956,colour,0.5
056,70,0,2,6,31,281,417.6411559535336,418.67974812765897,"[40, 0, 214]",214,a,0.5153143047937192,colour,0.5
056,70,0,2,6,32,282,419.18797438741603,420.2637621580361,"[5, 0, 249]",249,a,0.5525540120434016,colour,0.5
056,70,0,2,6,33,283,420.7817936058418,421.81574706270476,"[41, 0, 213]",213,a,0.5106744060030906,colour,0.5
056,70,0,2,6,34,284,422.3305426724255,422.9037566599436,"[90, 0, 164]",164,l,0.04982702287088614,colour,0.5
056,70,0,2,6,35,285,423.42435243853834,424.10369175413507,"[98, 0, 156]",156,l,0.1560996493208222,colour,0.5
056,70,0,2,6,36,286,424.6118490908557,425.6397022682504,"[88, 0, 166]",166,l,0.5045311973372009,colour,0.5
056,70,0,2,6,37,287,426.1586604355107,427.23968438763404,"[30, 0, 224]",224,a,0.5576531351689482,colour,0.5
056,70,0,2,6,38,288,427.752430423192,428.86367220361717,"[28, 0, 226]",226,a,0.587929252666072,colour,0.5
056,70,0,2,6,39,289,429.3773768601386,430.46368149838236,"[74, 0, 180]",180,l,0.5628845905448543,colour,0.5
056,70,0,2,6,40,290,430.97124137084757,432.0237004660012,"[23, 0, 231]",231,a,0.5292737796262372,colour,0.5
056,70,0,2,6,41,291,432.53369430625753,433.5677497692086,"[21, 0, 233]",233,a,0.510736239812104,colour,0.5
056,70,0,2,6,42,292,434.0806950908009,435.11973743081035,"[65, 0, 189]",189,l,0.519749009879888,colour,0.5
056,70,0,2,6,43,293,435.6391099239845,436.6637296263507,"[83, 0, 171]",171,l,0.5014402945234906,colour,0.5
056,70,0,2,6,44,294,437.17028952401597,438.2477318413439,"[57, 0, 197]",197,l,0.5541475126228761,colour,0.5
056,70,0,2,6,45,295,438.7640760532231,439.82372756260156,"[44, 0, 210]",210,a,0.5363334677676903,colour,0.5
056,70,0,2,6,46,296,440.34219617937924,441.5437570695358,"[64, 0, 190]",190,l,0.6782495439256309,colour,0.5
056,70,0,2,6,47,297,442.06099216089933,443.09573055268265,"[26, 0, 228]",228,a,0.5114865162904607,colour,0.5
056,70,0,2,6,48,298,443.6100184950046,444.6157402885583,"[72, 0, 182]",182,l,0.482368699653307,colour,0.5
056,70,0,2,6,49,299,445.1255793473538,446.16773897783423,"[76, 0, 178]",178,l,0.5187746350566158,colour,0.5
056,70,0,2,6,50,300,446.68807127351465,447.68770223988395,"[80, 0, 174]",174,l,0.4764291093015345,colour,0.5
056,70,0,2,7,1,301,459.5622902770556,460.3116743020364,"[0, 0, 254]",254,a,0.22304124670336023,colour,0.5
056,70,0,2,7,2,302,460.8308644445351,461.95971862072474,"[93, 0, 161]",161,l,0.6055247130425414,colour,0.5
056,70,0,2,7,3,303,462.4745488888875,463.5197269545024,"[49, 0, 205]",205,a,0.521903347063926,colour,0.5
056,70,0,2,7,4,304,464.0370356950443,465.6476961589069,"[5, 0, 249]",249,a,1.0874117391358595,colour,0.5
056,70,0,2,7,5,305,466.1638970108761,467.21568144796765,"[78, 0, 176]",176,l,0.5282655340706697,colour,0.5
056,70,0,2,7,6,306,467.72649763850495,468.7356813376973,"[73, 0, 181]",181,l,0.48554664239054546,colour,0.5
056,70,0,2,7,7,307,469.24346333925496,470.2236906986218,"[85, 0, 169]",169,l,0.4568975023867097,colour,0.5
056,70,0,2,7,8,308,470.72970315045677,471.99970422171464,"[70, 0, 184]",184,l,0.7466038666170789,colour,0.5
056,70,0,2,7,9,309,472.51100523657806,473.50368364091264,"[83, 0, 171]",171,l,0.46965338409063406,colour,0.5
056,70,0,2,7,10,310,474.00514480927086,474.99164731570636,"[84, 0, 170]",170,l,0.4634085631550988,colour,0.5
056,70,0,2,7,11,311,475.5079399337701,476.55172063405917,"[22, 0, 232]",232,a,0.5329633282090072,colour,0.5
056,70,0,2,7,12,312,477.0598949061532,478.06371639313875,"[25, 0, 229]",229,a,0.4804991130658891,colour,0.5
056,70,0,2,7,13,313,478.57550026309036,479.7517085036088,"[58, 0, 196]",196,a,0.6528775958286133,colour,0.5
056,70,0,2,7,14,314,480.2629843123286,481.32775778791984,"[16, 0, 238]",238,a,0.5414613416651264,colour,0.5
056,70,0,2,7,15,315,481.84110404465173,482.8476344038645,"[91, 0, 163]",163,l,0.48316426840028726,colour,0.5
056,70,0,2,7,16,316,483.3568267676601,484.42372307275946,"[37, 0, 217]",217,a,0.5436215865338454,colour,0.5
056,70,0,2,7,17,317,484.93486891232897,485.9998302524182,"[87, 0, 167]",167,l,0.541794929158641,colour,0.5
056,70,0,2,7,18,318,486.51295713696163,487.5596767155221,"[61, 0, 193]",193,l,0.5233924784843111,colour,0.5
056,70,0,2,7,19,319,488.07548687233066,489.1678429531603,"[88, 0, 166]",166,a,0.5689809315663297,colour,0.5
056,70,0,2,7,20,320,489.68493310920894,490.8316844317451,"[1, 0, 253]",253,a,0.6234643947536824,colour,0.5
056,70,0,2,7,21,321,491.3411469738494,492.3837189610058,"[8, 0, 246]",246,a,0.519235828629462,colour,0.5
056,70,0,2,7,22,322,492.90372278919676,493.93568496107764,"[52, 0, 202]",202,a,0.5087366840743925,colour,0.5
056,70,0,2,7,23,323,494.45044827542733,495.4717065028817,"[24, 0, 230]",230,a,0.4979287643072894,colour,0.5
056,70,0,2,7,24,324,495.9817684784648,496.91169541217096,"[80, 0, 174]",174,l,0.4069011257670354,colour,0.5
056,70,0,2,7,25,325,497.4193076661322,498.423698654311,"[71, 0, 183]",183,l,0.4810906696366146,colour,0.5
056,70,0,2,7,26,326,498.93490632768953,499.9517751423409,"[30, 0, 224]",224,a,0.4936043360794429,colour,0.5
056,70,0,2,7,27,327,500.4661284631002,501.4957374055957,"[99, 0, 155]",155,l,0.5066646606719587,colour,0.5
056,70,0,2,7,28,328,502.0130087307771,503.0796935406106,"[51, 0, 203]",203,a,0.5436889341799542,colour,0.5
056,70,0,2,7,29,329,503.59114579230663,504.74371776371845,"[21, 0, 233]",233,a,0.6293224589899182,colour,0.5
056,70,0,2,7,30,330,505.2629925830988,506.4477252247307,"[57, 0, 197]",197,a,0.6614114492549561,colour,0.5
056,70,0,2,7,31,331,506.9660689923621,507.9436741255922,"[17, 0, 237]",237,a,0.4545655406836886,colour,0.5
056,70,0,2,7,32,332,508.45049632462906,509.4476885970653,"[63, 0, 191]",191,l,0.47396402769663837,colour,0.5
056,70,0,2,7,33,333,509.9661946292035,510.99170560490165,"[9, 0, 245]",245,a,0.5022642201947747,colour,0.5
056,70,0,2,7,34,334,511.5129366569745,512.527679097504,"[35, 0, 219]",219,a,0.4914633896696614,colour,0.5
056,70,0,2,7,35,335,513.0351361761714,514.0476581133844,"[3, 0, 251]",251,a,0.4986428069532849,colour,0.5
056,70,0,2,7,36,336,514.5569264894584,515.5756440168625,"[23, 0, 231]",231,a,0.49543099346919917,colour,0.5
056,70,0,2,7,37,337,516.0881793448352,517.0716212746192,"[44, 0, 210]",210,a,0.46034010958101135,colour,0.5
056,70,0,2,7,38,338,517.5881643786852,518.6077708163357,"[62, 0, 192]",192,l,0.4965010728337802,colour,0.5
056,70,0,2,7,39,339,519.1193865140958,520.0957337034488,"[67, 0, 187]",187,l,0.4530256031284807,colour,0.5
056,70,0,2,7,40,340,520.6037610710191,521.5756353522447,"[65, 0, 189]",189,l,0.4485849903721828,colour,0.5
056,70,0,2,7,41,341,522.088109240256,523.0396720996505,"[69, 0, 185]",185,l,0.4284370145905996,colour,0.5
056,70,0,2,7,42,342,523.5568839540938,524.6396995113173,"[32, 0, 222]",222,a,0.5594187464303104,colour,0.5
056,70,0,2,7,43,343,525.150638975625,526.1836357807479,"[14, 0, 240]",240,a,0.509690972729004,colour,0.5
056,70,0,2,7,44,344,526.6981635752454,527.7116772164882,"[4, 0, 250]",250,a,0.49025388882728294,colour,0.5
056,70,0,2,7,45,345,528.2293597168173,529.183666106881,"[40, 0, 214]",214,a,0.4310253699804889,colour,0.5
056,70,0,2,7,46,346,529.6980395137798,530.655660904973,"[66, 0, 188]",188,l,0.43424742345814593,colour,0.5
056,70,0,2,7,47,347,531.1668473106693,532.2476798536809,"[38, 0, 216]",216,a,0.5574999290984124,colour,0.5
056,70,0,2,7,48,348,532.7513422269112,533.719662836389,"[59, 0, 195]",195,l,0.44496397097827867,colour,0.5
056,70,0,2,7,49,349,534.2376513549971,535.2076733788563,"[19, 0, 235]",235,a,0.44684182832133956,colour,0.5
056,70,0,2,7,50,350,535.7219270565838,536.8236377657304,"[7, 0, 247]",247,a,0.5785391782119405,colour,0.5
056,70,0,2,8,1,351,548.1898416109325,549.6316240945598,"[3, 0, 251]",251,a,0.9159981788689038,colour,0.5
056,70,0,2,8,2,352,550.1454142156435,551.1437923581398,"[43, 0, 211]",211,a,0.47593207575846463,colour,0.5
056,70,0,2,8,3,353,551.6610506863944,552.7277209239401,"[17, 0, 237]",237,a,0.543419543580967,colour,0.5
056,70,0,2,8,4,354,553.2391550587199,554.3116550035775,"[53, 0, 201]",201,a,0.5493780385149876,colour,0.5
056,70,0,2,8,5,355,554.8328998402576,555.8556397160573,"[99, 0, 155]",155,l,0.499358424989623,colour,0.5
056,70,0,2,8,6,356,556.3640432064858,557.3437026400352,"[94, 0, 160]",160,l,0.45625789661426097,colour,0.5
056,70,0,2,8,7,357,557.864160178724,559.1276289215311,"[60, 0, 194]",194,a,0.7404854702326702,colour,0.5
056,70,0,2,8,8,358,559.6454083079443,560.5596306355437,"[93, 0, 161]",161,l,0.4032482048496604,colour,0.5
056,70,0,2,8,9,359,561.0724771017994,562.2236229571281,"[70, 0, 184]",184,a,0.6279215490503702,colour,0.5
056,70,0,2,8,10,360,562.7443546125724,563.9196231367241,"[40, 0, 214]",214,a,0.6519867163733579,colour,0.5
056,70,0,2,8,11,361,564.4318650494824,565.4636748030025,"[29, 0, 225]",225,a,0.5085417303344002,colour,0.5
056,70,0,2,8,12,362,565.9786507941608,566.9916469218588,"[30, 0, 224]",224,a,0.4896387015032815,colour,0.5
056,70,0,2,8,13,363,567.5100856063509,568.53565053895,"[96, 0, 158]",158,l,0.5023997031967156,colour,0.5
056,70,0,2,8,14,364,569.0568819848704,569.9996329356072,"[55, 0, 199]",199,a,0.4201201702671824,colour,0.5
056,70,0,2,8,15,365,570.5099079818465,571.5836335752101,"[85, 0, 169]",169,l,0.5503295702656033,colour,0.5
056,70,0,2,8,16,366,572.103632283397,573.0716330899886,"[46, 0, 208]",208,a,0.444658740379964,colour,0.5
056,70,0,2,8,17,367,573.5880737941334,574.5676327969704,"[57, 0, 197]",197,a,0.4564162226743065,colour,0.5
056,70,0,2,8,18,368,575.0880308649212,576.0956702942494,"[95, 0, 159]",159,l,0.48442063688708004,colour,0.5
056,70,0,2,8,19,369,576.6036220434034,577.6237026715389,"[44, 0, 210]",210,a,0.49672595885931514,colour,0.5
056,70,0,2,8,20,370,578.1349245233723,579.183653897664,"[34, 0, 220]",220,a,0.5254282680543838,colour,0.5
056,70,0,2,8,21,371,579.697329015733,580.7196344794793,"[58, 0, 196]",196,a,0.49897442522342317,colour,0.5
056,70,0,2,8,22,372,581.2286011695687,582.3116175882169,"[21, 0, 233]",233,a,0.5596278786106268,colour,0.5
056,70,0,2,8,23,373,582.8101146721892,583.8076027228963,"[59, 0, 195]",195,a,0.47427595366025344,colour,0.5
056,70,0,2,8,24,374,584.3256503183948,585.3276030064735,"[97, 0, 157]",157,l,0.47863031417364255,colour,0.5
056,70,0,2,8,25,375,585.8413123891369,586.8555865468661,"[45, 0, 209]",209,a,0.49101598070410546,colour,0.5
056,70,0,2,8,26,376,587.372529798391,588.3676047551417,"[35, 0, 219]",219,a,0.47187388737802394,colour,0.5
056,70,0,2,8,27,377,588.8881036476523,589.5596629309148,"[81, 0, 173]",173,l,0.14832591853337362,colour,0.5
056,70,0,2,8,28,378,590.0756499245472,591.0396382289036,"[89, 0, 165]",165,l,0.4413827300159028,colour,0.5
056,70,0,2,8,29,379,591.5600977368158,592.7036435473856,"[10, 0, 244]",244,a,0.6202238305122592,colour,0.5
056,70,0,2,8,30,380,593.2162501614803,596.5916243151005,"[68, 0, 186]",186,l,2.852006487417384,colour,0.5
056,70,0,2,8,31,381,597.1068984476296,598.1676235809718,"[19, 0, 235]",235,a,0.5374445071065566,colour,0.5
056,70,0,2,8,32,382,598.6849756445736,599.7835982078541,"[5, 0, 249]",249,a,0.5753309093415737,colour,0.5
056,70,0,2,8,33,383,600.2943549276533,601.3437668369152,"[28, 0, 226]",226,a,0.5260993815027177,colour,0.5
056,70,0,2,8,34,384,601.8568389768916,602.8796627418633,"[83, 0, 171]",171,l,0.4997483324550558,colour,0.5
056,70,0,2,8,35,385,603.3880752907426,604.4796137474332,"[4, 0, 250]",250,a,0.5683511719253147,colour,0.5
056,70,0,2,8,36,386,604.9975010476337,606.015604569242,"[41, 0, 213]",213,a,0.49486424917995464,colour,0.5
056,70,0,2,8,37,387,606.5286928568967,607.5036190501705,"[87, 0, 167]",167,l,0.45159712397435214,colour,0.5
056,70,0,2,8,38,388,608.0130591430643,608.9839830740821,"[66, 0, 188]",188,l,0.44753578484233003,colour,0.5
056,70,0,2,8,39,389,609.4974742661143,610.5515981479839,"[22, 0, 232]",232,a,0.530868067915435,colour,0.5
056,70,0,2,8,40,390,611.0599665861228,611.9195857213635,"[62, 0, 192]",192,l,0.33624949981458485,colour,0.5
056,70,0,2,8,41,391,612.4349996691744,613.5516572248744,"[80, 0, 174]",174,l,0.5933493602351518,colour,0.5
056,70,0,2,8,42,392,614.0598133800522,614.9036188138707,"[20, 0, 234]",234,a,0.32040941072045825,colour,0.5
056,70,0,2,8,43,393,615.4192785215419,616.6076369087241,"[23, 0, 231]",231,a,0.6650364071101649,colour,0.5
056,70,0,2,8,44,394,617.1223935276939,618.1035692680452,"[26, 0, 228]",228,a,0.45812905857746955,colour,0.5
056,70,0,2,8,45,395,618.6226065983356,619.5756581953028,"[67, 0, 187]",187,a,0.4297264661290683,colour,0.5
056,70,0,2,8,46,396,620.0913742229459,621.3275746495638,"[1, 0, 253]",253,a,0.7128170065843733,colour,0.5
056,70,0,2,8,47,397,621.8413580752676,622.9115894676215,"[0, 0, 254]",254,a,0.5468373384792358,colour,0.5
056,70,0,2,8,48,398,623.4194648106641,624.4715974075516,"[84, 0, 170]",170,l,0.5287527214677539,colour,0.5
056,70,0,2,8,49,399,624.9820039983315,626.1356121783465,"[24, 0, 230]",230,a,0.6302885630284436,colour,0.5
056,70,0,2,8,50,400,626.6539374352142,627.7195891871961,"[91, 0, 163]",163,l,0.5423990887938999,colour,0.5
056,70,0,2,9,1,401,637.3718937372323,638.0555968656263,"[20, 0, 234]",234,a,0.15980377020605374,colour,0.5
056,70,0,2,9,2,402,638.5758661459549,639.6236368992686,"[76, 0, 178]",178,l,0.5241577211127151,colour,0.5
056,70,0,2,9,3,403,640.1382915121503,641.0795820822241,"[69, 0, 185]",185,l,0.41815212220535614,colour,0.5
056,70,0,2,9,4,404,641.591441176759,642.8315816379618,"[21, 0, 233]",233,a,0.7168247826775769,colour,0.5
056,70,0,2,9,5,405,643.3414242413855,644.543629857304,"[48, 0, 206]",206,a,0.6788997835392365,colour,0.5
056,70,0,2,9,6,406,645.0614336621802,646.3915580702305,"[63, 0, 191]",191,a,0.8066511911601992,colour,0.5
056,70,0,2,9,7,407,646.9052178283018,647.9755980944174,"[89, 0, 165]",165,l,0.5473138920497149,colour,0.5
056,70,0,2,9,8,408,648.4833162929426,649.6475736728171,"[13, 0, 241]",241,a,0.6408849875297165,colour,0.5
056,70,0,2,9,9,409,650.1551981360099,651.2555670121073,"[49, 0, 205]",205,a,0.5771914374781772,colour,0.5
056,70,0,2,9,10,410,651.7665832763596,652.815684047353,"[60, 0, 194]",194,a,0.5257839109253837,colour,0.5
056,70,0,2,9,11,411,653.3290393625357,654.3835905672313,"[94, 0, 160]",160,l,0.5313418645528145,colour,0.5
056,70,0,2,9,12,412,654.8915549194498,655.8795760957582,"[81, 0, 173]",173,l,0.4647350362065481,colour,0.5
056,70,0,2,9,13,413,656.3915994240524,657.4555367647408,"[16, 0, 238]",238,a,0.5406937359657604,colour,0.5
056,70,0,2,9,14,414,657.9696214825672,659.1596044841717,"[29, 0, 225]",225,a,0.6666984368930571,colour,0.5
056,70,0,2,9,15,415,659.6606556589395,660.6795445093157,"[90, 0, 164]",164,l,0.49562712873739656,colour,0.5
056,70,0,2,9,16,416,661.1918714928033,662.2715890580148,"[5, 0, 249]",249,a,0.5564030682144221,colour,0.5
056,70,0,2,9,17,417,662.7855993389676,663.7516037406021,"[46, 0, 208]",208,a,0.4426765138632618,colour,0.5
056,70,0,2,9,18,418,664.2699947697256,665.367537013648,"[28, 0, 226]",226,a,0.5742927315004636,colour,0.5
056,70,0,2,9,19,419,665.8794169820176,666.9276024550782,"[0, 0, 254]",254,a,0.5249879483162658,colour,0.5
056,70,0,2,9,20,420,667.4418360466807,668.5195615392149,"[41, 0, 213]",213,a,0.5543680663395207,colour,0.5
056,70,0,2,9,21,421,669.0355827974417,670.1915847729833,"[23, 0, 231]",231,a,0.6326221001218073,colour,0.5
056,70,0,2,9,22,422,670.7074677912897,671.7835588232556,"[42, 0, 212]",212,a,0.5527395134558901,colour,0.5
056,70,0,2,9,23,423,672.2904763330152,673.4075805099856,"[52, 0, 202]",202,a,0.5938558460911736,colour,0.5
056,70,0,2,9,24,424,673.915388505382,674.9835526004899,"[18, 0, 236]",236,a,0.5448582627286669,colour,0.5
056,70,0,2,9,25,425,675.4935476222745,676.687593538416,"[12, 0, 242]",242,a,0.6707381145242834,colour,0.5
056,70,0,2,9,26,426,677.1965960684756,678.2635274258646,"[85, 0, 169]",169,l,0.5436412788403686,colour,0.5
056,70,0,2,9,27,427,678.7763215106097,679.6555411758163,"[74, 0, 180]",180,l,0.3558760236192029,colour,0.5
056,70,0,2,9,28,428,680.155554566576,681.0635702762956,"[78, 0, 176]",176,l,0.3848485111084301,colour,0.5
056,70,0,2,9,29,429,681.5793493192759,682.6235975146847,"[99, 0, 155]",155,l,0.5209502399375197,colour,0.5
056,70,0,2,9,30,430,683.1418436085223,684.3115774159378,"[61, 0, 193]",193,a,0.6464212796563515,colour,0.5
056,70,0,2,9,31,431,684.8294280884729,686.0315293352323,"[9, 0, 245]",245,a,0.6813376898062415,colour,0.5
056,70,0,2,9,32,432,686.5463753572258,687.6395616652444,"[47, 0, 207]",207,a,0.5706524136476219,colour,0.5
056,70,0,2,9,33,433,688.1548960561922,689.2316097585572,"[77, 0, 177]",177,l,0.5534917591576232,colour,0.5
056,70,0,2,9,34,434,689.7487530838262,690.9515880655235,"[10, 0, 244]",244,a,0.6831462302652653,colour,0.5
056,70,0,2,9,35,435,691.463803196777,692.4555647277884,"[93, 0, 161]",161,l,0.46836550791340414,colour,0.5
056,70,0,2,9,36,436,692.9640773135325,694.0795320637844,"[66, 0, 188]",188,a,0.5921638840081869,colour,0.5
056,70,0,2,9,37,437,694.5890505320131,695.8555668545596,"[35, 0, 219]",219,a,0.7434070192830404,colour,0.5
056,70,0,2,9,38,438,696.3702750304947,697.4795578213088,"[24, 0, 230]",230,a,0.5860194937995402,colour,0.5
056,70,0,2,9,39,439,697.9952372212865,699.0476155780343,"[7, 0, 247]",247,a,0.5289783951884601,colour,0.5
056,70,0,2,9,40,440,699.5577657751128,700.6556266403786,"[91, 0, 163]",163,l,0.5745148605928989,colour,0.5
056,70,0,2,9,41,441,701.1671257597336,702.279534111789,"[87, 0, 167]",167,l,0.589091098139761,colour,0.5
056,70,0,2,9,42,442,702.7921084305126,703.8635371144628,"[55, 0, 199]",199,a,0.5480826792772859,colour,0.5
056,70,0,2,9,43,443,704.370269516643,705.5995646427182,"[14, 0, 240]",240,a,0.7059774783119792,colour,0.5
056,70,0,2,9,44,444,706.1201931105315,707.2955281946488,"[79, 0, 175]",175,l,0.6520402794121765,colour,0.5
056,70,0,2,9,45,445,707.8076976397715,708.9115548091795,"[95, 0, 159]",159,l,0.5805580324085895,colour,0.5
056,70,0,2,9,46,446,709.4327504151152,710.5115684362536,"[59, 0, 195]",195,a,0.5555370010406477,colour,0.5
056,70,0,2,9,47,447,711.0264605382254,712.11951333248,"[86, 0, 168]",168,l,0.5697532634076197,colour,0.5
056,70,0,2,9,48,448,712.6358878704923,713.7275681117171,"[51, 0, 203]",203,a,0.5683952826657332,colour,0.5
056,70,0,2,9,49,449,714.2450670798426,715.4075052854168,"[26, 0, 228]",228,a,0.6389106379356235,colour,0.5
056,70,0,2,9,50,450,715.9170721966948,716.9995860679483,"[32, 0, 222]",222,a,0.5594136264408007,colour,0.5
056,70,0,2,10,1,451,726.3693557941151,727.0715933115571,"[14, 0, 240]",240,a,0.17810775939142331,colour,0.5
056,70,0,2,10,2,452,727.5889532520669,728.6715289571293,"[58, 0, 196]",196,l,0.5595270540652564,colour,0.5
056,70,0,2,10,3,453,729.1826759782416,730.215524697298,"[70, 0, 184]",184,l,0.5095728189626243,colour,0.5
056,70,0,2,10,4,454,730.7295924797509,731.9195254629303,"[31, 0, 223]",223,a,0.666716159961652,colour,0.5
056,70,0,2,10,5,455,732.4326377751859,733.527511319131,"[53, 0, 201]",201,a,0.5718756990681868,colour,0.5
056,70,0,2,10,6,456,734.0420009105728,735.1515436397021,"[26, 0, 228]",228,a,0.5862475305766566,colour,0.5
056,70,0,2,10,7,457,735.6670481720939,736.7755298803095,"[73, 0, 181]",181,l,0.5851372789329616,colour,0.5
056,70,0,2,10,8,458,737.2920513228601,738.375525784315,"[90, 0, 164]",164,l,0.5601170352601912,colour,0.5
056,70,0,2,10,9,459,738.8858681782003,739.9755567405955,"[80, 0, 174]",174,l,0.566346102335956,colour,0.5
056,70,0,2,10,10,460,740.4950584152393,741.6155406086764,"[50, 0, 204]",204,a,0.5969026381499134,colour,0.5
056,70,0,2,10,11,461,742.1358449412946,743.503569425593,"[65, 0, 189]",189,a,0.845013753103558,colour,0.5
056,70,0,2,10,12,462,744.0108823566552,745.1675511133362,"[13, 0, 241]",241,a,0.6334542965487344,colour,0.5
056,70,0,2,10,13,463,745.6828153996903,746.7195423195371,"[75, 0, 179]",179,l,0.5134533828240819,colour,0.5
056,70,0,2,10,14,464,747.2302982516412,748.3276077326154,"[3, 0, 251]",251,a,0.5740572116337717,colour,0.5
056,70,0,2,10,15,465,748.8395585932449,749.975514992926,"[11, 0, 243]",243,a,0.6125375335104764,colour,0.5
056,70,0,2,10,16,466,750.4958547716815,751.5755561892147,"[99, 0, 155]",155,l,0.5563849512982415,colour,0.5
056,70,0,2,10,17,467,752.0896109747555,753.1675176364224,"[98, 0, 156]",156,l,0.5545279677899089,colour,0.5
056,70,0,2,10,18,468,753.6833715101384,754.7595476128336,"[23, 0, 231]",231,a,0.5529068979813019,colour,0.5
056,70,0,2,10,19,469,755.2771462239616,756.3595317014551,"[8, 0, 246]",246,a,0.5590434112818912,colour,0.5
056,70,0,2,10,20,470,756.8708732824452,758.0154852339328,"[29, 0, 225]",225,a,0.6213525929197203,colour,0.5
056,70,0,2,10,21,471,758.5271064455301,759.7038463780482,"[32, 0, 222]",222,a,0.6533706909394823,colour,0.5
056,70,0,2,10,22,472,760.2145404763432,761.3595348522213,"[81, 0, 173]",173,l,0.6216192266147118,colour,0.5
056,70,0,2,10,23,473,761.8708827347436,763.0074744079029,"[86, 0, 168]",168,l,0.6133898160915123,colour,0.5
056,70,0,2,10,24,474,763.5271044763067,764.6395277944976,"[66, 0, 188]",188,l,0.5891009442857467,colour,0.5
056,70,0,2,10,25,475,765.1424867589085,766.2475057737902,"[4, 0, 250]",250,a,0.5823681482725078,colour,0.5
056,70,0,2,10,26,476,766.7675182665844,767.9515549824719,"[15, 0, 239]",239,a,0.6607726311776787,colour,0.5
056,70,0,2,10,27,477,768.458299593869,769.703536815141,"[25, 0, 229]",229,a,0.7220062196138315,colour,0.5
056,70,0,2,10,28,478,770.2238565077569,771.3355248233274,"[85, 0, 169]",169,l,0.5882829263136955,colour,0.5
056,70,0,2,10,29,479,771.8488931354223,772.9915583065304,"[41, 0, 213]",213,a,0.6197567292547319,colour,0.5
056,70,0,2,10,30,480,773.5050908523845,774.911507547673,"[27, 0, 227]",227,a,0.8832471335917944,colour,0.5
056,70,0,2,10,31,481,775.4270105046598,776.519559176144,"[36, 0, 218]",218,a,0.5692278729547979,colour,0.5
056,70,0,2,10,32,482,777.0373771594604,778.0635557039932,"[87, 0, 167]",167,l,0.5029471490270225,colour,0.5
056,70,0,2,10,33,483,778.5842404917785,779.7035301197611,"[88, 0, 166]",166,l,0.5958420110691804,colour,0.5
056,70,0,2,10,34,484,780.2250734916597,781.3435553416639,"[45, 0, 209]",209,a,0.5952890514017781,colour,0.5
056,70,0,2,10,35,485,781.8499746363232,782.9355116688675,"[76, 0, 178]",178,l,0.5625450953521067,colour,0.5
056,70,0,2,10,36,486,783.4438084270514,784.575498293867,"[19, 0, 235]",235,a,0.6084379913227167,colour,0.5
056,70,0,2,10,37,487,785.0844019686047,786.1915544468357,"[10, 0, 244]",244,a,0.5842093779356219,colour,0.5
056,70,0,2,10,38,488,786.7093196548085,787.751487162197,"[94, 0, 160]",160,l,0.5188069304276723,colour,0.5
056,70,0,2,10,39,489,788.2730061156471,789.3675358321052,"[78, 0, 176]",176,l,0.5696914295986062,colour,0.5
056,70,0,2,10,40,490,789.8868208914791,790.9835498435714,"[61, 0, 193]",193,a,0.5734601412113989,colour,0.5
056,70,0,2,10,41,491,791.4961028946127,792.6474862390314,"[42, 0, 212]",212,a,0.6280487612821162,colour,0.5
056,70,0,2,10,42,492,793.168059174568,794.3115506344184,"[39, 0, 215]",215,a,0.6201856274710735,colour,0.5
056,70,0,2,10,43,493,794.8248279681138,795.9515108717314,"[55, 0, 199]",199,a,0.6034263019828359,colour,0.5
056,70,0,2,10,44,494,796.4530126062309,797.5995260458294,"[38, 0, 216]",216,a,0.6232446287322091,colour,0.5
056,70,0,2,10,45,495,798.1092709754448,799.1674609226175,"[72, 0, 182]",182,l,0.5348604840255575,colour,0.5
056,70,0,2,10,46,496,799.6889404914691,800.9034923893341,"[96, 0, 158]",158,l,0.6915044284105534,colour,0.5
056,70,0,2,10,47,497,801.4233654606651,802.5355950066732,"[34, 0, 220]",220,a,0.58900051357341,colour,0.5
056,70,0,2,10,48,498,803.0482882668584,804.2475278291531,"[51, 0, 203]",203,a,0.6758774099434959,colour,0.5
056,70,0,2,10,49,499,804.7670716452994,805.8715294297435,"[44, 0, 210]",210,a,0.5811448628228391,colour,0.5
056,70,0,2,10,50,500,806.3920551037736,807.5755219246203,"[22, 0, 232]",232,a,0.6585312540410087,colour,0.5
056,70,0,2,11,1,501,815.3004725363426,816.0154450616537,"[95, 0, 159]",159,l,0.1985345780994976,colour,0.5
056,70,0,2,11,2,502,816.5279457311844,817.6315177561482,"[7, 0, 247]",247,a,0.5802642233466031,colour,0.5
056,70,0,2,11,3,503,818.1372517589189,819.2634904043371,"[81, 0, 173]",173,l,0.6028445915435441,colour,0.5
056,70,0,2,11,4,504,819.7779406111949,820.9115087292012,"[83, 0, 171]",171,l,0.610508439320256,colour,0.5
056,70,0,2,11,5,505,821.4185270635207,822.6634720511211,"[33, 0, 221]",221,a,0.7217403736140113,colour,0.5
056,70,0,2,11,6,506,823.1855837426701,824.439436343484,"[35, 0, 219]",219,a,0.7310288358276011,colour,0.5
056,70,0,2,11,7,507,824.951229271901,826.1595276842272,"[17, 0, 237]",237,a,0.6839673990180017,colour,0.5
056,70,0,2,11,8,508,826.6606930743001,827.8395652886247,"[91, 0, 163]",163,l,0.6555581111751962,colour,0.5
056,70,0,2,11,9,509,828.3488194862439,829.4234544698411,"[94, 0, 160]",160,l,0.5519581231492339,colour,0.5
056,70,0,2,11,10,510,829.9419156035437,831.1195251478493,"[30, 0, 224]",224,a,0.6543872072506929,colour,0.5
056,70,0,2,11,11,511,831.6294547912257,832.8074908706621,"[28, 0, 226]",226,a,0.654873213119572,colour,0.5
056,70,0,2,11,12,512,833.3169065450929,834.4234532882983,"[56, 0, 198]",198,a,0.5832318523607682,colour,0.5
056,70,0,2,11,13,513,834.9419376589212,836.3195429496845,"[65, 0, 189]",189,a,0.8543813783326186,colour,0.5
056,70,0,2,11,14,514,836.8324366774614,837.9354651950562,"[43, 0, 211]",211,a,0.579643916033092,colour,0.5
056,70,0,2,11,15,515,838.4417915420927,839.5354453452164,"[25, 0, 229]",229,a,0.5702593554160558,colour,0.5
056,70,0,2,11,16,516,840.0511775205377,841.1354597599857,"[9, 0, 245]",245,a,0.5608972440240905,colour,0.5
056,70,0,2,11,17,517,841.6449297851505,842.7834611494618,"[96, 0, 158]",158,l,0.6151948119368171,colour,0.5
056,70,0,2,11,18,518,843.3030707378784,844.4394568234711,"[99, 0, 155]",155,l,0.6130621362826787,colour,0.5
056,70,0,2,11,19,519,844.9593543132505,846.0555846563948,"[26, 0, 228]",228,a,0.5728737046301831,colour,0.5
056,70,0,2,11,20,520,846.5686575840664,847.7114850196813,"[29, 0, 225]",225,a,0.6194889140169835,colour,0.5
056,70,0,2,11,21,521,848.226171927934,849.263573899676,"[86, 0, 168]",168,l,0.5146006559807574,colour,0.5
056,70,0,2,11,22,522,849.7730462879263,850.8475083731755,"[75, 0, 179]",179,l,0.5509920191107085,colour,0.5
056,70,0,2,11,23,523,851.3666859126097,852.4874536443385,"[85, 0, 169]",169,l,0.5974099116865546,colour,0.5
056,70,0,2,11,24,524,853.0075090663449,854.1114497310919,"[51, 0, 203]",203,a,0.5806813061790308,colour,0.5
056,70,0,2,11,25,525,854.6323995771672,855.7354619655234,"[37, 0, 217]",217,a,0.5797408021317096,colour,0.5
056,70,0,2,11,26,526,856.2417930387019,857.3514566785307,"[13, 0, 241]",241,a,0.586324724383303,colour,0.5
056,70,0,2,11,27,527,857.8574817334302,859.1754390594433,"[23, 0, 231]",231,a,0.7948917396424804,colour,0.5
056,70,0,2,11,28,528,859.6855916195927,860.7434282869654,"[15, 0, 239]",239,a,0.5344650627230294,colour,0.5
056,70,0,2,11,29,529,861.263805874929,862.3356638509431,"[80, 0, 174]",174,l,0.5491389740491286,colour,0.5
056,70,0,2,11,30,530,862.8418897672527,863.9274925720674,"[42, 0, 212]",212,a,0.5623261170258047,colour,0.5
056,70,0,2,11,31,531,864.4356085549662,865.4954164211813,"[67, 0, 187]",187,l,0.5364638307655696,colour,0.5
056,70,0,2,11,32,532,866.0137353765022,867.159442613498,"[12, 0, 242]",242,a,0.6223553246381925,colour,0.5
056,70,0,2,11,33,533,867.6701134748873,868.7434948469308,"[71, 0, 183]",183,l,0.5502275641774759,colour,0.5
056,70,0,2,11,34,534,869.2637471918861,870.3835165242053,"[98, 0, 156]",156,l,0.6007702050847001,colour,0.5
056,70,0,2,11,35,535,870.8999367483484,872.0154805077764,"[0, 0, 254]",254,a,0.5922584070212906,colour,0.5
056,70,0,2,11,36,536,872.5249398991145,873.5754124354571,"[19, 0, 235]",235,a,0.5272163285408169,colour,0.5
056,70,0,2,11,37,537,874.0874007114471,875.1754363025102,"[38, 0, 216]",216,a,0.5647971063299337,colour,0.5
056,70,0,2,11,38,538,875.6967799945269,876.7675225988787,"[52, 0, 202]",202,a,0.5474407104338752,colour,0.5
056,70,0,2,11,39,539,877.2749765267945,878.3994487732562,"[89, 0, 165]",165,l,0.6012215525115607,colour,0.5
056,70,0,2,11,40,540,878.915566523734,880.1835692207824,"[97, 0, 157]",157,l,0.7447630307724467,colour,0.5
056,70,0,2,11,41,541,880.6966153669346,882.2394417785545,"[63, 0, 191]",191,a,1.0193201116635464,colour,0.5
056,70,0,2,11,42,542,882.7592439576256,883.8074526676064,"[21, 0, 233]",233,a,0.5248406499449629,colour,0.5
056,70,0,2,11,43,543,884.3248941342172,885.3754359874438,"[11, 0, 243]",243,a,0.5272525623586262,colour,0.5
056,70,0,2,11,44,544,885.8873907865345,886.8394443779398,"[72, 0, 182]",182,l,0.428727279038867,colour,0.5
056,70,0,2,11,45,545,887.3560914573318,888.4714410507295,"[32, 0, 222]",222,a,0.5919516010617372,colour,0.5
056,70,0,2,11,46,546,888.981154078836,890.1194270802225,"[55, 0, 199]",199,a,0.6149833166855387,colour,0.5
056,70,0,2,11,47,547,890.6387239549804,891.6874127631309,"[78, 0, 176]",176,l,0.5257913939858554,colour,0.5
056,70,0,2,11,48,548,892.2012501457357,893.3994412901811,"[31, 0, 223]",223,a,0.6749081551242853,colour,0.5
056,70,0,2,11,49,549,893.9199657826684,895.1754678101861,"[5, 0, 249]",249,a,0.7321981643617619,colour,0.5
056,70,0,2,11,50,550,895.6855738965241,896.935466770432,"[53, 0, 201]",201,a,0.7265177246299572,colour,0.5
056,70,0,2,12,1,551,904.8865995500819,905.8554341284907,"[41, 0, 213]",213,a,0.44475090033665765,colour,0.5
056,70,0,2,12,2,552,906.3718366295652,907.6234395824722,"[65, 0, 189]",189,l,0.7285747818968957,colour,0.5
056,70,0,2,12,3,553,908.1373616419296,909.3754659197293,"[74, 0, 180]",180,l,0.7148228638543515,colour,0.5
056,70,0,2,12,4,554,909.8873789711506,911.0074263587012,"[3, 0, 251]",251,a,0.596823081272305,colour,0.5
056,70,0,2,12,5,555,911.5280753065017,912.7274279025733,"[49, 0, 205]",205,a,0.676162160540116,colour,0.5
056,70,0,2,12,6,556,913.246719657327,914.3434009540651,"[27, 0, 227]",227,a,0.5734250889363466,colour,0.5
056,70,0,2,12,7,557,914.8560674327309,915.9914070696977,"[76, 0, 178]",178,l,0.6125627396540949,colour,0.5
056,70,0,2,12,8,558,916.5012130454415,917.6234773916804,"[31, 0, 223]",223,a,0.5988746246730443,colour,0.5
056,70,0,2,12,9,559,918.141842033132,919.2394535939238,"[18, 0, 236]",236,a,0.5742549222777598,colour,0.5
056,70,0,2,12,10,560,919.7425858505449,920.951439585624,"[73, 0, 181]",181,l,0.6838504267798271,colour,0.5
056,70,0,2,12,11,561,921.4630757633568,922.5353953267913,"[93, 0, 161]",161,l,0.5490038848947734,colour,0.5
056,70,0,2,12,12,562,923.056874895643,924.1993860729854,"[24, 0, 230]",230,a,0.6192565449309768,colour,0.5
056,70,0,2,12,13,563,924.7006538630085,925.7674158666341,"[80, 0, 174]",174,l,0.5434833466133568,colour,0.5
056,70,0,2,12,14,564,926.2786767092184,927.3354700787459,"[34, 0, 220]",220,a,0.5333579618309159,colour,0.5
056,70,0,2,12,15,565,927.856890570707,928.9834285390243,"[30, 0, 224]",224,a,0.6034010958392173,colour,0.5
056,70,0,2,12,16,566,929.4974821430369,930.6074218688591,"[10, 0, 244]",244,a,0.586621290378389,colour,0.5
056,70,0,2,12,17,567,931.1224667830393,932.1675381164096,"[33, 0, 221]",221,a,0.5219151624332881,colour,0.5
056,70,0,2,12,18,568,932.6850874968222,934.0154426985682,"[23, 0, 231]",231,a,0.8070659108925611,colour,0.5
056,70,0,2,12,19,569,934.5287539030251,935.7114275181812,"[38, 0, 216]",216,a,0.6593004351307172,colour,0.5
056,70,0,2,12,20,570,936.2319008107006,937.271400011974,"[97, 0, 157]",157,l,0.5161614673706936,colour,0.5
056,70,0,2,12,21,571,937.7787523276347,938.9114004215808,"[87, 0, 167]",167,l,0.6092477385391248,colour,0.5
056,70,0,2,12,22,572,939.4092945274315,940.6875781784183,"[1, 0, 253]",253,a,0.7549900278245332,colour,0.5
056,70,0,2,12,23,573,941.206160222835,942.2714082827442,"[63, 0, 191]",191,l,0.542121033577132,colour,0.5
056,70,0,2,12,24,574,942.7842941335985,943.9993690588453,"[22, 0, 232]",232,a,0.6918903974146815,colour,0.5
056,70,0,2,12,25,575,944.5186836566572,945.5994271904929,"[71, 0, 183]",183,l,0.557405012237723,colour,0.5
056,70,0,2,12,26,576,946.1124193797441,947.1914118746208,"[21, 0, 233]",233,a,0.5557351055322215,colour,0.5
056,70,0,2,12,27,577,947.7061409243761,948.8793925635691,"[9, 0, 245]",245,a,0.6502171666506911,colour,0.5
056,70,0,2,12,28,578,949.3936261551571,950.4473644618702,"[37, 0, 217]",217,a,0.5303903328167507,colour,0.5
056,70,0,2,12,29,579,950.9560968136357,952.0234094138723,"[14, 0, 240]",240,a,0.5441749400633853,colour,0.5
056,70,0,2,12,30,580,952.534287438204,953.5913935214048,"[98, 0, 156]",156,l,0.5338396354054566,colour,0.5
056,70,0,2,12,31,581,954.1123142228898,955.1913945453998,"[68, 0, 186]",186,l,0.5557666132081067,colour,0.5
056,70,0,2,12,32,582,955.7060727890348,956.7913620924955,"[48, 0, 206]",206,a,0.5620716925623128,colour,0.5
056,70,0,2,12,33,583,957.3004867147974,958.3514354108484,"[84, 0, 170]",170,l,0.5276286852167686,colour,0.5
056,70,0,2,12,34,584,958.8629932132462,959.871420334428,"[77, 0, 177]",177,l,0.48536704864818603,colour,0.5
056,70,0,2,12,35,585,960.378544613297,961.4874209551344,"[96, 0, 158]",158,l,0.5853944603295531,colour,0.5
056,70,0,2,12,36,586,962.0035524902196,963.1594233150536,"[53, 0, 201]",201,a,0.6324712571222335,colour,0.5
056,70,0,2,12,37,587,963.6760317975568,965.2153789743024,"[60, 0, 194]",194,a,1.0159460336581105,colour,0.5
056,70,0,2,12,38,588,965.7229904405831,966.8793811420328,"[32, 0, 222]",222,a,0.6331943582335953,colour,0.5
056,70,0,2,12,39,589,967.3947801237082,968.4633802062599,"[83, 0, 171]",171,l,0.5451788533100626,colour,0.5
056,70,0,2,12,40,590,968.9729479052185,970.1754024317634,"[95, 0, 159]",159,l,0.6792507002537604,colour,0.5
056,70,0,2,12,41,591,970.6917096221296,971.7593514775654,"[78, 0, 176]",176,l,0.5443675307178637,colour,0.5
056,70,0,2,12,42,592,972.2698147821502,973.3034448915132,"[90, 0, 164]",164,l,0.5103577538829995,colour,0.5
056,70,0,2,12,43,593,973.8166938682989,974.9833718252194,"[5, 0, 249]",249,a,0.6420117807283532,colour,0.5
056,70,0,2,12,44,594,975.4899750459299,976.5834055384184,"[42, 0, 212]",212,a,0.5701349001028575,colour,0.5
056,70,0,2,12,45,595,977.099363781308,978.0874121329834,"[75, 0, 179]",179,l,0.4646093993651448,colour,0.5
056,70,0,2,12,46,596,978.5993689012976,979.7033654921688,"[43, 0, 211]",211,a,0.5806757923419354,colour,0.5
056,70,0,2,12,47,597,980.2243649628363,981.2234185510897,"[79, 0, 175]",175,l,0.4757902912242571,colour,0.5
056,70,0,2,12,48,598,981.7399604736274,982.8713565313956,"[26, 0, 228]",228,a,0.608006730049965,colour,0.5
056,70,0,2,12,49,599,983.380607578234,984.7593971636816,"[89, 0, 165]",165,l,0.8554825715254992,colour,0.5
056,70,0,2,12,50,600,985.2711707936542,986.3673802629637,"[91, 0, 163]",163,l,0.5729445969045628,colour,0.5
056,70,0,2,13,1,601,992.9735449756408,995.3677524473605,"[33, 0, 221]",221,a,1.8701009505894035,colour,0.5
056,70,0,2,13,2,602,995.8806205751462,997.0873664468527,"[63, 0, 191]",191,a,0.6834999038983369,colour,0.5
056,70,0,2,13,3,603,997.5993425136257,998.8553738700575,"[31, 0, 223]",223,a,0.7327176471299026,colour,0.5
056,70,0,2,13,4,604,999.3649289659515,1000.4233662483603,"[46, 0, 208]",208,a,0.5357895665511023,colour,0.5
056,70,0,2,13,5,605,1000.9430573628779,1002.0073802787228,"[16, 0, 238]",238,a,0.5410359880625037,colour,0.5
056,70,0,2,13,6,606,1002.521229476697,1003.6553883635934,"[38, 0, 216]",216,a,0.6109452144592069,colour,0.5
056,70,0,2,13,7,607,1004.161739916759,1005.2633769767126,"[83, 0, 171]",171,l,0.5783091721968958,colour,0.5
056,70,0,2,13,8,608,1005.7711747321155,1006.8553380300873,"[32, 0, 222]",222,a,0.5609291455475613,colour,0.5
056,70,0,2,13,9,609,1007.3649364490266,1008.4874107151409,"[30, 0, 224]",224,a,0.5999927532393485,colour,0.5
056,70,0,2,13,10,610,1009.0055859167041,1010.0553503180709,"[90, 0, 164]",164,l,0.5266554919362534,colour,0.5
056,70,0,2,13,11,611,1010.5680337321246,1011.7194174703764,"[9, 0, 245]",245,a,0.6280857827950967,colour,0.5
056,70,0,2,13,12,612,1012.2399084859644,1013.3274210496456,"[91, 0, 163]",163,l,0.5642150020576082,colour,0.5
056,70,0,2,13,13,613,1013.8336438152037,1015.0953753036592,"[62, 0, 192]",192,l,0.7383941484004026,colour,0.5
056,70,0,2,13,14,614,1015.6149136059685,1016.6633633496531,"[22, 0, 232]",232,a,0.5251368220779113,colour,0.5
056,70,0,2,13,15,615,1017.1774082890479,1018.2473584754189,"[76, 0, 178]",178,l,0.5466774370433996,colour,0.5
056,70,0,2,13,16,616,1018.7583499273751,1019.8553277900937,"[81, 0, 173]",173,l,0.5735869596101111,colour,0.5
056,70,0,2,13,17,617,1020.3593339907966,1021.5433600728575,"[87, 0, 167]",167,l,0.6607202496670652,colour,0.5
056,70,0,2,13,18,618,1022.0630795442848,1023.1753921917698,"[47, 0, 207]",207,a,0.5890454120089998,colour,0.5
056,70,0,2,13,19,619,1023.6881382273277,1024.815407173679,"[92, 0, 162]",162,l,0.6041245907981647,colour,0.5
056,70,0,2,13,20,620,1025.3286959288962,1026.415385748449,"[29, 0, 225]",225,a,0.5633469656459056,colour,0.5
056,70,0,2,13,21,621,1026.9244304200402,1027.96740019157,"[23, 0, 231]",231,a,0.5197033237491269,colour,0.5
056,70,0,2,13,22,622,1028.4869132877357,1029.5433250205679,"[26, 0, 228]",228,a,0.5331330758199329,colour,0.5
056,70,0,2,13,23,623,1030.0494308138732,1031.1033936127642,"[94, 0, 160]",160,l,0.5307081664650468,colour,0.5
056,70,0,2,13,24,624,1031.611816401637,1032.7674099589494,"[6, 0, 248]",248,a,0.63231529413315,colour,0.5
056,70,0,2,13,25,625,1033.2838290015643,1034.3913418488082,"[67, 0, 187]",187,l,0.5842617594462354,colour,0.5
056,70,0,2,13,26,626,1034.9087569277617,1036.3273883604415,"[66, 0, 188]",188,l,0.8954595079121646,colour,0.5
056,70,0,2,13,27,627,1036.846243340071,1037.9593617963255,"[53, 0, 201]",201,a,0.5897992331010755,colour,0.5
056,70,0,2,13,28,628,1038.4712898138969,1039.6634618111275,"[24, 0, 230]",230,a,0.6690512724308064,colour,0.5
056,70,0,2,13,29,629,1040.1743378662359,1041.3113548929832,"[64, 0, 190]",190,l,0.6136013113427907,colour,0.5
056,70,0,2,13,30,630,1041.8314288257534,1043.0873668407003,"[28, 0, 226]",226,a,0.7334718620695639,colour,0.5
056,70,0,2,13,31,631,1043.5962724846759,1044.8393577318348,"[86, 0, 168]",168,l,0.7199239562323783,colour,0.5
056,70,0,2,13,32,632,1045.346246490837,1046.5353409760573,"[65, 0, 189]",189,l,0.6658457604935393,colour,0.5
056,70,0,2,13,33,633,1047.0493477123964,1048.0874113452883,"[35, 0, 219]",219,a,0.5148286927724257,colour,0.5
056,70,0,2,13,34,634,1048.5961885954894,1049.815321315269,"[51, 0, 203]",203,a,0.695824130467372,colour,0.5
056,70,0,2,13,35,635,1050.3320243207854,1051.3513822416571,"[79, 0, 175]",175,l,0.49607768848363776,colour,0.5
056,70,0,2,13,36,636,1051.8632232192758,1052.9033836878516,"[89, 0, 165]",165,l,0.5172260328981793,colour,0.5
056,70,0,2,13,37,637,1053.4101405084803,1054.5353606683493,"[14, 0, 240]",240,a,0.6018647028977284,colour,0.5
056,70,0,2,13,38,638,1055.0507698900183,1056.1753339025745,"[0, 0, 254]",254,a,0.599943916342454,colour,0.5
056,70,0,2,13,39,639,1056.6926824215625,1057.8553427562292,"[82, 0, 172]",172,l,0.6392426500387955,colour,0.5
056,70,0,2,13,40,640,1058.3646485476638,1060.591350198345,"[95, 0, 159]",159,l,1.7034422921133228,colour,0.5
056,70,0,2,13,41,641,1061.0989415784716,1062.1593559674075,"[99, 0, 155]",155,l,0.5374149686685996,colour,0.5
056,70,0,2,13,42,642,1062.677036104651,1063.7913187694357,"[44, 0, 210]",210,a,0.6033908558310941,colour,0.5
056,70,0,2,13,43,643,1064.2927594578214,1065.2873515594838,"[75, 0, 179]",179,l,0.4713347123179119,colour,0.5
056,70,0,2,13,44,644,1065.8083435470762,1066.9993355819315,"[12, 0, 242]",242,a,0.6676149163540686,colour,0.5
056,70,0,2,13,45,645,1067.5114683993888,1068.7193260981294,"[18, 0, 236]",236,a,0.6846156693936791,colour,0.5
056,70,0,2,13,46,646,1069.2301997901668,1070.3833719827526,"[71, 0, 183]",183,l,0.6298001940886024,colour,0.5
056,70,0,2,13,47,647,1070.9020698178647,1072.0153788955358,"[3, 0, 251]",251,a,0.5899878852942493,colour,0.5
056,70,0,2,13,48,648,1072.5290118721023,1073.5832984123408,"[34, 0, 220]",220,a,0.5309795263165142,colour,0.5
056,70,0,2,13,49,649,1074.0915215213172,1075.5033043672884,"[56, 0, 198]",198,a,0.8884616535942769,colour,0.5
056,70,0,2,13,50,650,1076.0093881052308,1077.1113705680618,"[19, 0, 235]",235,a,0.5786581196880434,colour,0.5
056,70,0,2,14,1,651,1090.5243715794495,1091.3514188693225,"[83, 0, 171]",171,l,0.30302032560575753,colour,0.5
056,70,0,2,14,2,652,1091.8689119297633,1092.9353403458954,"[78, 0, 176]",176,l,0.5431852052570321,colour,0.5
056,70,0,2,14,3,653,1093.4470730158937,1094.4872866536753,"[92, 0, 162]",162,l,0.5169995714968536,colour,0.5
056,70,0,2,14,4,654,1094.9938378867228,1096.079317417767,"[80, 0, 174]",174,l,0.5620783879421651,colour,0.5
056,70,0,2,14,5,655,1096.5876437143888,1097.607302927383,"[72, 0, 182]",182,l,0.49644672209979035,colour,0.5
056,70,0,2,14,6,656,1098.118846157493,1099.1673549780535,"[15, 0, 239]",239,a,0.5252226804732345,colour,0.5
056,70,0,2,14,7,657,1099.6813825882418,1100.59134271527,"[77, 0, 177]",177,l,0.3866200300544733,colour,0.5
056,70,0,2,14,8,658,1101.1031962959678,1102.2233299357613,"[2, 0, 252]",252,a,0.5968211120343767,colour,0.5
056,70,0,2,14,9,659,1102.7438749082357,1103.8313000381313,"[13, 0, 241]",241,a,0.5641063005896285,colour,0.5
056,70,0,2,14,10,660,1104.3376051174855,1105.4312541944673,"[47, 0, 207]",207,a,0.5704460383858532,colour,0.5
056,70,0,2,14,11,661,1105.9470111820847,1106.9913412974274,"[81, 0, 173]",173,l,0.5210872983152512,colour,0.5
056,70,0,2,14,12,662,1107.5104361292179,1108.575342330878,"[37, 0, 217]",217,a,0.5399958409834653,colour,0.5
056,70,0,2,14,13,663,1109.0901206113776,1110.2473202723631,"[1, 0, 253]",253,a,0.6338445978617528,colour,0.5
056,70,0,2,14,14,664,1110.761929199114,1111.8633740622608,"[97, 0, 157]",157,l,0.5779220216645626,colour,0.5
056,70,0,2,14,15,665,1112.371324629872,1113.43926620204,"[41, 0, 213]",213,a,0.5446483428531792,colour,0.5
056,70,0,2,14,16,666,1113.949693272807,1115.1433165922645,"[30, 0, 224]",224,a,0.6703166993829655,colour,0.5
056,70,0,2,14,17,667,1115.6529473065748,1116.695355847667,"[95, 0, 159]",159,l,0.519144062534906,colour,0.5
056,70,0,2,14,18,668,1117.2153931527573,1118.3192971898388,"[86, 0, 168]",168,l,0.5809593614103505,colour,0.5
056,70,0,2,14,19,669,1118.8404545927187,1119.8872950819787,"[51, 0, 203]",203,a,0.5235519860871136,colour,0.5
056,70,0,2,14,20,670,1120.4028736573819,1121.7273428318586,"[34, 0, 220]",220,a,0.8018695078208111,colour,0.5
056,70,0,2,14,21,671,1122.24663498046,1123.3593056338868,"[21, 0, 233]",233,a,0.5895006978826132,colour,0.5
056,70,0,2,14,22,672,1123.8716015035461,1124.935326561288,"[40, 0, 214]",214,a,0.540531865277444,colour,0.5
056,70,0,2,14,23,673,1125.4498649896268,1126.5752970385947,"[38, 0, 216]",216,a,0.6020549304666929,colour,0.5
056,70,0,2,14,24,674,1127.0904864942422,1128.1274753216276,"[75, 0, 179]",179,l,0.5135687796864659,colour,0.5
056,70,0,2,14,25,675,1128.637378577303,1129.727362130303,"[74, 0, 180]",180,l,0.5667194682755508,colour,0.5
056,70,0,2,14,26,676,1130.2466743650439,1131.3513164693868,"[62, 0, 192]",192,a,0.5813153981143842,colour,0.5
056,70,0,2,14,27,677,1131.871926820284,1133.1193664279563,"[16, 0, 238]",238,a,0.7242759536602534,colour,0.5
056,70,0,2,14,28,678,1133.6375428110623,1134.7193205842777,"[59, 0, 195]",195,a,0.558488088514423,colour,0.5
056,70,0,2,14,29,679,1135.2314344971237,1136.3673062199377,"[4, 0, 250]",250,a,0.612536745829857,colour,0.5
056,70,0,2,14,30,680,1136.887736583245,1138.4552988818032,"[55, 0, 199]",199,a,1.0442084169626469,colour,0.5
056,70,0,2,14,31,681,1138.9659803770337,1140.0312796369108,"[91, 0, 163]",163,l,0.5419607382937102,colour,0.5
056,70,0,2,14,32,682,1140.5316833289835,1141.5992728028941,"[6, 0, 248]",248,a,0.5442986076668603,colour,0.5
056,70,0,2,14,33,683,1142.1097305936419,1143.1593992904527,"[69, 0, 185]",185,l,0.5266684888629243,colour,0.5
056,70,0,2,14,34,684,1143.673878641901,1144.9752995592135,"[32, 0, 222]",222,a,0.7781363526155474,colour,0.5
056,70,0,2,14,35,685,1145.4863764757465,1146.8392994426395,"[64, 0, 190]",190,l,0.8297152021405054,colour,0.5
056,70,0,2,14,36,686,1147.3457179496181,1148.5112962887215,"[99, 0, 155]",155,l,0.6422346975159599,colour,0.5
056,70,0,2,14,37,687,1149.017593491153,1150.1193242864392,"[25, 0, 229]",229,a,0.5783434367913287,colour,0.5
056,70,0,2,14,38,688,1150.614570566162,1151.7433510931587,"[88, 0, 166]",166,l,0.6055113222828368,colour,0.5
056,70,0,2,14,39,689,1152.2552743845881,1153.447260486544,"[19, 0, 235]",235,a,0.6671249720384367,colour,0.5
056,70,0,2,14,40,690,1153.9599462636688,1154.9833151113999,"[70, 0, 184]",184,l,0.4999547077168245,colour,0.5
056,70,0,2,14,41,691,1155.4912294451933,1156.6712855603546,"[58, 0, 196]",196,a,0.6567219258722616,colour,0.5
056,70,0,2,14,42,692,1157.1786260606314,1158.3592953938933,"[18, 0, 236]",236,a,0.6572634640178876,colour,0.5
056,70,0,2,14,43,693,1158.8662097528868,1160.0313363507303,"[5, 0, 249]",249,a,0.641755387026933,colour,0.5
056,70,0,2,14,44,694,1160.5381849374535,1161.599255473673,"[36, 0, 218]",218,a,0.5379186975915218,colour,0.5
056,70,0,2,14,45,695,1162.1162014821311,1163.1992750084319,"[49, 0, 205]",205,a,0.5597480016294867,colour,0.5
056,70,0,2,14,46,696,1163.7099100298365,1164.7832673772791,"[66, 0, 188]",188,l,0.5502878225961467,colour,0.5
056,70,0,2,14,47,697,1165.3037138882792,1166.479340812206,"[10, 0, 244]",244,a,0.6522789500304498,colour,0.5
056,70,0,2,14,48,698,1166.9918454202125,1168.543323839025,"[46, 0, 208]",208,a,1.0281938541156705,colour,0.5
056,70,0,2,14,49,699,1169.0543558571226,1170.143264998449,"[24, 0, 230]",230,a,0.5656143366213655,colour,0.5
056,70,0,2,14,50,700,1170.6636918171425,1171.7912632371736,"[79, 0, 175]",175,l,0.6042695260985056,colour,0.5
056,70,0,2,15,1,701,1180.1472526884027,1182.927275956812,"[84, 0, 170]",170,a,2.255946285717073,colour,0.5
056,70,0,2,15,2,702,1183.4449592448364,1184.5112584795133,"[98, 0, 156]",156,l,0.5430316053534625,colour,0.5
056,70,0,2,15,3,703,1185.0236567491083,1186.2232554988877,"[33, 0, 221]",221,a,0.6763165481534088,colour,0.5
056,70,0,2,15,4,704,1186.7423830198968,1187.8472555240878,"[32, 0, 222]",222,a,0.58146860418492,colour,0.5
056,70,0,2,15,5,705,1188.3674889644462,1189.5433486513211,"[34, 0, 220]",220,a,0.6525451898778556,colour,0.5
056,70,0,2,15,6,706,1190.0556953271007,1191.119316015669,"[64, 0, 190]",190,l,0.5405551021976862,colour,0.5
056,70,0,2,15,7,707,1191.6342569545377,1192.8393061380193,"[61, 0, 193]",193,a,0.6803806442039786,colour,0.5
056,70,0,2,15,8,708,1193.3544038275577,1194.4792455014976,"[69, 0, 185]",185,l,0.6015909799898509,colour,0.5
056,70,0,2,15,9,709,1194.9949441999197,1196.1512391968135,"[45, 0, 209]",209,a,0.6328765245852992,colour,0.5
056,70,0,2,15,10,710,1196.666860701429,1197.7833028234018,"[47, 0, 207]",207,a,0.5931587388040498,colour,0.5
056,70,0,2,15,11,711,1198.2918575506628,1199.415272714672,"[57, 0, 197]",197,a,0.600064039346762,colour,0.5
056,70,0,2,15,12,712,1199.9324814183492,1200.9752712023037,"[46, 0, 208]",208,a,0.519467803882435,colour,0.5
056,70,0,2,15,13,713,1201.4949564091366,1202.5512700743275,"[60, 0, 194]",194,a,0.5329885343526257,colour,0.5
056,70,0,2,15,14,714,1203.0605053673353,1204.1193057756755,"[71, 0, 183]",183,l,0.5354445575212594,colour,0.5
056,70,0,2,15,15,715,1204.638616041193,1205.7352225071954,"[25, 0, 229]",229,a,0.573442418142804,colour,0.5
056,70,0,2,15,16,716,1206.2479634227493,1207.4952297382115,"[58, 0, 196]",196,l,0.7238123970164452,colour,0.5
056,70,0,2,15,17,717,1208.0144269699376,1209.1592590813088,"[48, 0, 206]",206,a,0.6198012338427361,colour,0.5
056,70,0,2,15,18,718,1209.672404476616,1210.9112346124457,"[39, 0, 215]",215,a,0.7156515156821115,colour,0.5
056,70,0,2,15,19,719,1211.4224395289057,1212.4632703232492,"[21, 0, 233]",233,a,0.5299334715527948,colour,0.5
056,70,0,2,15,20,720,1212.9724548101221,1213.983256428357,"[1, 0, 253]",253,a,0.48802157015597913,colour,0.5
056,70,0,2,15,21,721,1214.503618656323,1215.8712297129969,"[3, 0, 251]",251,a,0.8442150335613405,colour,0.5
056,70,0,2,15,22,722,1216.3786828532175,1217.6472814391454,"[72, 0, 182]",182,l,0.7452297381969402,colour,0.5
056,70,0,2,15,23,723,1218.1599203486112,1219.407246922492,"[83, 0, 171]",171,l,0.7238974677311489,colour,0.5
056,70,0,2,15,24,724,1219.9256021116453,1221.0312890892092,"[67, 0, 187]",187,l,0.5822716560069239,colour,0.5
056,70,0,2,15,25,725,1221.550545791688,1222.4392551743513,"[56, 0, 198]",198,l,0.3652420734579209,colour,0.5
056,70,0,2,15,26,726,1222.9567982532171,1224.0472626920819,"[75, 0, 179]",179,l,0.5670881080586696,colour,0.5
056,70,0,2,15,27,727,1224.566507185329,1225.631217251721,"[76, 0, 178]",178,l,0.5415003324160352,colour,0.5
056,70,0,2,15,28,728,1226.1446056499553,1227.2552302738331,"[10, 0, 244]",244,a,0.5872963422734756,colour,0.5
056,70,0,2,15,29,729,1227.7696410960925,1228.8552186947636,"[80, 0, 174]",174,l,0.5622985478112241,colour,0.5
056,70,0,2,15,30,730,1229.3633098653663,1230.5673244156205,"[42, 0, 212]",212,a,0.6807760655210586,colour,0.5
056,70,0,2,15,31,731,1231.082064099217,1232.2232354127336,"[0, 0, 254]",254,a,0.6177941950154491,colour,0.5
056,70,0,2,15,32,732,1232.7383535822737,1233.9112665139692,"[53, 0, 201]",201,l,0.6495366008894052,colour,0.5
056,70,0,2,15,33,733,1234.425885286866,1236.1112409927446,"[91, 0, 163]",163,a,1.1620652334822807,colour,0.5
056,70,0,2,15,34,734,1236.623112296511,1239.135224240119,"[77, 0, 177]",177,l,1.9889266280806623,colour,0.5
056,70,0,2,15,35,735,1239.654430136463,1240.8152283676318,"[24, 0, 230]",230,a,0.6375912541116122,colour,0.5
056,70,0,2,15,36,736,1241.3292020209046,1242.4232083161478,"[15, 0, 239]",239,a,0.5705133860465139,colour,0.5
056,70,0,2,15,37,737,1242.938638411637,1243.9831906560867,"[79, 0, 175]",175,l,0.5213503873819718,colour,0.5
056,70,0,2,15,38,738,1244.4928674503753,1245.5753620231699,"[55, 0, 199]",199,a,0.5571627969911788,colour,0.5
056,70,0,2,15,39,739,1246.0886436891742,1247.1832675348123,"[20, 0, 234]",234,a,0.5719820374797564,colour,0.5
056,70,0,2,15,40,740,1247.697995796887,1248.9192182631086,"[11, 0, 243]",243,a,0.6979075753915822,colour,0.5
056,70,0,2,15,41,741,1249.4323672030441,1250.3752268552635,"[82, 0, 172]",172,l,0.4195506690739421,colour,0.5
056,70,0,2,15,42,742,1250.885508203035,1252.015254046375,"[4, 0, 250]",250,a,0.6064096848276677,colour,0.5
056,70,0,2,15,43,743,1252.5261517630133,1253.5432178944757,"[22, 0, 232]",232,a,0.49381031750817783,colour,0.5
056,70,0,2,15,44,744,1254.0573585384263,1255.1351887939818,"[16, 0, 238]",238,a,0.5545429339254042,colour,0.5
056,70,0,2,15,45,745,1255.652965423491,1256.6952172139136,"[13, 0, 241]",241,a,0.5188880626956234,colour,0.5
056,70,0,2,15,46,746,1257.2154061496694,1258.3352089589025,"[37, 0, 217]",217,a,0.596418207656825,colour,0.5
056,70,0,2,15,47,747,1258.8560311988986,1259.9272349968378,"[88, 0, 166]",166,l,0.5484284760023002,colour,0.5
056,70,0,2,15,48,748,1260.434261601913,1261.6632065989688,"[54, 0, 200]",200,a,0.7056809123314451,colour,0.5
056,70,0,2,15,49,749,1262.1841588081297,1263.3672944045538,"[9, 0, 245]",245,a,0.6597691117640352,colour,0.5
056,70,0,2,15,50,750,1263.8872950819787,1264.9832426437497,"[94, 0, 160]",160,l,0.57254523714073,colour,0.5
056,70,0,2,16,1,751,1277.6692926999967,1278.199236017681,"[3, 0, 251]",251,a,0.005786778114270419,colour,0.5
056,70,0,2,16,2,752,1278.7169551456755,1279.6231934287644,"[79, 0, 175]",175,l,0.3829131522506941,colour,0.5
056,70,0,2,16,3,753,1280.138845259513,1281.3192054237297,"[85, 0, 169]",169,l,0.6572614947799593,colour,0.5
056,70,0,2,16,4,754,1281.8263367918262,1282.9192190508038,"[46, 0, 208]",208,a,0.5695878481201362,colour,0.5
056,70,0,2,16,5,755,1283.4358405302191,1284.6071804413077,"[22, 0, 232]",232,a,0.6482250939734513,colour,0.5
056,70,0,2,16,6,756,1285.123159951865,1286.1751885734266,"[97, 0, 157]",157,l,0.5288200691284146,colour,0.5
056,70,0,2,16,7,757,1286.6856404564896,1287.775260489696,"[11, 0, 243]",243,a,0.5663027792907087,colour,0.5
056,70,0,2,16,8,758,1288.2949870503508,1289.4151927639468,"[27, 0, 227]",227,a,0.5968589212279767,colour,0.5
056,70,0,2,16,9,759,1289.9356699949276,1290.94323538123,"[92, 0, 162]",162,l,0.4842898800416151,colour,0.5
056,70,0,2,16,10,760,1291.4512438441889,1292.5832168862253,"[19, 0, 235]",235,a,0.6086979296233039,colour,0.5
056,70,0,2,16,11,761,1293.0919082780165,1294.143210647715,"[90, 0, 164]",164,l,0.5278252143325517,colour,0.5
056,70,0,2,16,12,762,1294.654442739542,1295.5671865695476,"[48, 0, 206]",206,a,0.38945611454255413,colour,0.5
056,70,0,2,16,13,763,1296.0769401637808,1297.2231846066134,"[45, 0, 209]",209,a,0.6228283335804008,colour,0.5
056,70,0,2,16,14,764,1297.7331607238011,1298.8711922976363,"[44, 0, 210]",210,a,0.6146883260953473,colour,0.5
056,70,0,2,16,15,765,1299.3895364591153,1300.303208977799,"[71, 0, 183]",183,l,0.39057266771851573,colour,0.5
056,70,0,2,16,16,766,1300.809611730947,1301.8631980131322,"[12, 0, 242]",242,a,0.5291654720058432,colour,0.5
056,70,0,2,16,17,767,1302.377370952454,1303.3912000642886,"[2, 0, 252]",252,a,0.49051067637628876,colour,0.5
056,70,0,2,16,18,768,1303.9085639432597,1305.055232951985,"[16, 0, 238]",238,a,0.6233986224833643,colour,0.5
056,70,0,2,16,19,769,1305.564782534042,1306.6231934287644,"[73, 0, 181]",181,l,0.5350881269696401,colour,0.5
056,70,0,2,16,20,770,1307.1428794232925,1308.6712095480907,"[42, 0, 212]",212,a,1.0055945813073777,colour,0.5
056,70,0,2,16,21,771,1309.1897222756088,1310.279183588922,"[4, 0, 250]",250,a,0.5661814747581957,colour,0.5
056,70,0,2,16,22,772,1310.799205140167,1311.8951783019293,"[94, 0, 160]",160,l,0.5710521672590403,colour,0.5
056,70,0,2,16,23,773,1312.4101255423302,1313.4232256453688,"[72, 0, 182]",182,l,0.489762762983446,colour,0.5
056,70,0,2,16,24,774,1313.9408608841768,1315.2231932712311,"[49, 0, 205]",205,a,0.7590639700356405,colour,0.5
056,70,0,2,16,25,775,1315.737750210319,1316.735211085659,"[80, 0, 174]",174,l,0.474448458160623,colour,0.5
056,70,0,2,16,26,776,1317.2533984964539,1318.2391597848764,"[78, 0, 176]",176,l,0.46246136371337343,colour,0.5
056,70,0,2,16,27,777,1318.7533803795523,1319.8551891563257,"[15, 0, 239]",239,a,0.5785234243812738,colour,0.5
056,70,0,2,16,28,778,1320.3595734491246,1321.4551771834085,"[10, 0, 244]",244,a,0.5722931757482002,colour,0.5
056,70,0,2,16,29,779,1321.969986183889,1323.015211904858,"[86, 0, 168]",168,l,0.5206670647021383,colour,0.5
056,70,0,2,16,30,780,1323.533731721618,1324.7591903945722,"[55, 0, 199]",199,a,0.7020031791180372,colour,0.5
056,70,0,2,16,31,781,1325.268164173889,1326.3191770668345,"[54, 0, 200]",200,a,0.5277228143968387,colour,0.5
056,70,0,2,16,32,782,1326.8306624015822,1327.8072073015937,"[91, 0, 163]",163,l,0.4535876212612493,colour,0.5
056,70,0,2,16,33,783,1328.3155217828316,1329.4631620156142,"[25, 0, 229]",229,a,0.6243095880927285,colour,0.5
056,70,0,2,16,34,784,1329.9717687305238,1331.0231699555443,"[76, 0, 178]",178,l,0.5281970048818039,colour,0.5
056,70,0,2,16,35,785,1331.5342898012896,1332.5431832360337,"[65, 0, 189]",189,a,0.4856147777318256,colour,0.5
056,70,0,2,16,36,786,1333.0429166023387,1333.9672257178318,"[24, 0, 230]",230,a,0.4008890677796444,colour,0.5
056,70,0,2,16,37,787,1334.4804364915617,1335.6551603268017,"[58, 0, 196]",196,a,0.6513699536444619,colour,0.5
056,70,0,2,16,38,788,1336.1596139364847,1337.143148813906,"[66, 0, 188]",188,a,0.46021171582106035,colour,0.5
056,70,0,2,16,39,789,1337.6597108225833,1338.7272278288438,"[8, 0, 246]",246,a,0.5441568231472047,colour,0.5
056,70,0,2,16,40,790,1339.2377978656732,1340.2551873446355,"[96, 0, 158]",158,l,0.4940812834975077,colour,0.5
056,70,0,2,16,41,791,1340.7595728189626,1341.8711434607394,"[36, 0, 218]",218,a,0.5863692289713072,colour,0.5
056,70,0,2,16,42,792,1342.386473913226,1343.6631538236252,"[74, 0, 180]",180,l,0.7533508410997456,colour,0.5
056,70,0,2,16,43,793,1344.1845928263356,1346.4071697287,"[69, 0, 185]",185,l,1.6991753654147033,colour,0.5
056,70,0,2,16,44,794,1346.9189394201967,1349.5672224095179,"[57, 0, 197]",197,a,2.1249251692643156,colour,0.5
056,70,0,2,16,45,795,1350.0752678940044,1351.2071838283737,"[61, 0, 193]",193,a,0.6086148281319765,colour,0.5
056,70,0,2,16,46,796,1351.7123361207196,1352.8551627686538,"[5, 0, 249]",249,a,0.6193680033320561,colour,0.5
056,70,0,2,16,47,797,1353.368625997624,1354.391266230392,"[40, 0, 214]",214,a,0.4992958034854382,colour,0.5
056,70,0,2,16,48,798,1354.8998674314644,1355.9351776875264,"[89, 0, 165]",165,l,0.5119788236916065,colour,0.5
056,70,0,2,16,49,799,1356.4467543945357,1357.559263571151,"[21, 0, 233]",233,a,0.5888331290625501,colour,0.5
056,70,0,2,16,50,800,1358.0722175573464,1359.2471485555434,"[18, 0, 236]",236,a,0.650139578996459,colour,0.5
