id,age,condition,counterbalance,block,trialinblock,trial,tstart,tend,trialstim,trialintensity,response,RT,trialtype,colourfreq
059,67,1,2,Practice,1,NA,4.170433385297656e-06,1.1877282908535562,"[44, 0, 210]",210,a,0.6561164460435975,colour,0.5
059,67,1,2,Practice,2,NA,1.6997670334822033,2.2438818216323853,"[29, 0, 225]",225,a,0.012273249012650922,colour,0.5
059,67,1,2,Practice,3,NA,2.748333593190182,3.451832197373733,"[98, 0, 156]",156,l,0.17022147538955323,colour,0.5
059,67,1,2,Practice,4,NA,3.9651846248598304,8.075741710636066,"[8, 0, 246]",246,a,3.577491044794442,colour,0.5
059,67,1,2,Practice,5,NA,8.585759720474016,11.387732076313114,"[41, 0, 213]",213,a,2.272826838045148,colour,0.5
059,67,1,2,Practice,6,NA,11.898945715802256,12.971858272183454,"[21, 0, 233]",233,a,0.5402933928126004,colour,0.5
059,67,1,2,Practice,7,NA,13.482830026827287,14.123877112258924,"[83, 0, 171]",171,l,0.10896269904333167,colour,0.5
059,67,1,2,Practice,8,NA,14.632049547275528,17.275710207875818,"[60, 0, 194]",194,a,2.1108198227593675,colour,0.5
059,67,1,2,Practice,9,NA,17.782505118404515,18.355713133583777,"[95, 0, 159]",159,l,0.04082784921047278,colour,0.5
059,67,1,2,Practice,10,NA,18.86475558404345,19.691832633689046,"[80, 0, 174]",174,l,0.29352884300169535,colour,0.5
059,67,1,2,1,1,1,4.86890612237039,5.647895890724612,"[42, 0, 212]",212,a,0.24555223845527507,colour,0.5
059,67,1,2,1,2,2,6.152537577174371,6.76788006874267,"[32, 0, 222]",222,a,0.08222704706713557,colour,0.5
059,67,1,2,1,3,3,7.269729813997401,9.079900269018253,"[87, 0, 167]",167,l,1.2775541786686517,colour,0.5
059,67,1,2,1,4,4,9.585572051204508,10.239902270841412,"[84, 0, 170]",170,l,0.12092444917652756,colour,0.5
059,67,1,2,1,5,5,10.752718958712649,11.472060056723421,"[75, 0, 179]",179,l,0.18641492677852511,colour,0.5
059,67,1,2,1,6,6,11.985615551966475,13.903971081599593,"[28, 0, 226]",226,a,1.3850174484250601,colour,0.5
059,67,1,2,1,7,7,14.419746848609066,15.287860910466406,"[83, 0, 171]",171,l,0.33555296348640695,colour,0.5
059,67,1,2,1,8,8,15.803038060606923,16.583900992758572,"[14, 0, 240]",240,a,0.24828515204717405,colour,0.5
059,67,1,2,1,9,9,17.085795650316868,17.823897900234442,"[97, 0, 157]",157,l,0.20495729162939824,colour,0.5
059,67,1,2,1,10,10,18.33554045218625,19.152002158371033,"[64, 0, 190]",190,a,0.28306235175114125,colour,0.5
059,67,1,2,1,11,11,19.6697136455914,20.383968104579253,"[29, 0, 225]",225,a,0.1816699420742225,colour,0.5
059,67,1,2,1,12,12,20.885545167984674,21.66391771295457,"[57, 0, 197]",197,a,0.2449690201319754,colour,0.5
059,67,1,2,1,13,13,22.169553565297974,22.9679772076488,"[53, 0, 201]",201,a,0.26561456389026716,colour,0.5
059,67,1,2,1,14,14,23.46937558427453,24.207988551206654,"[79, 0, 175]",175,a,0.20573299122042954,colour,0.5
059,67,1,2,1,15,15,24.71972221098258,25.34391370936646,"[85, 0, 169]",169,l,0.09164162806700915,colour,0.5
059,67,1,2,1,16,16,25.85257729247678,26.5039843628183,"[68, 0, 186]",186,a,0.1183792048250325,colour,0.5
059,67,1,2,1,17,17,27.019869202544214,27.584003328636754,"[12, 0, 242]",242,a,0.031722200714284554,colour,0.5
059,67,1,2,1,18,18,28.086865204706555,28.751967319258256,"[61, 0, 193]",193,a,0.13305301641230471,colour,0.5
059,67,1,2,1,19,19,29.269144991674693,29.86396865634015,"[31, 0, 223]",223,a,0.06170725775882602,colour,0.5
059,67,1,2,1,20,20,30.369864679232705,30.919954086799407,"[0, 0, 254]",254,a,0.01770025913720019,colour,0.5
059,67,1,2,1,21,21,31.436314996914007,31.991891083831433,"[63, 0, 191]",191,l,0.02297873789211735,colour,0.5
059,67,1,2,1,22,22,32.50241275303415,33.143983708374435,"[9, 0, 245]",245,a,0.10840867369552143,colour,0.5
059,67,1,2,1,23,23,33.65297130169347,35.4078412388626,"[15, 0, 239]",239,a,1.222232167085167,colour,0.5
059,67,1,2,1,24,24,35.91957746507251,36.57583795126993,"[3, 0, 251]",251,a,0.12360988403088413,colour,0.5
059,67,1,2,1,25,25,37.08629225206096,37.66400047991192,"[7, 0, 247]",247,a,0.04510382120497525,colour,0.5
059,67,1,2,1,26,26,38.16935049754102,39.735844123526476,"[72, 0, 182]",182,l,1.0336059510300402,colour,0.5
059,67,1,2,1,27,27,40.25386935524875,40.94403253446217,"[36, 0, 218]",218,a,0.1584692090691533,colour,0.5
059,67,1,2,1,28,28,41.4524471751065,42.17588844554848,"[22, 0, 232]",232,a,0.19033865802339278,colour,0.5
059,67,1,2,1,29,29,42.68680373902316,43.3758652836259,"[11, 0, 243]",243,a,0.1569729878101498,colour,0.5
059,67,1,2,1,30,30,43.886437318782555,44.535993039869936,"[60, 0, 194]",194,l,0.11711428192211315,colour,0.5
059,67,1,2,1,31,31,45.05293973474181,45.67988147001597,"[34, 0, 220]",220,a,0.09434791505918838,colour,0.5
059,67,1,2,1,32,32,46.18627313224715,46.743892408092506,"[76, 0, 178]",178,l,0.024998508277349174,colour,0.5
059,67,1,2,1,33,33,47.252143760444596,47.87996770165046,"[95, 0, 159]",159,l,0.09441367952967994,colour,0.5
059,67,1,2,1,34,34,48.385713268304244,48.97601298094378,"[23, 0, 231]",231,a,0.057146413455484435,colour,0.5
059,67,1,2,1,35,35,49.485686128464295,51.359873616776895,"[88, 0, 166]",166,l,1.3410014673427213,colour,0.5
059,67,1,2,1,36,36,51.86900172143942,52.599868599441834,"[40, 0, 214]",214,a,0.19768053622101434,colour,0.5
059,67,1,2,1,37,37,53.1027622349211,53.687876180629246,"[59, 0, 195]",195,l,0.05236453647376038,colour,0.5
059,67,1,2,1,38,38,54.2029907743854,54.77595562150236,"[24, 0, 230]",230,a,0.04042973372270353,colour,0.5
059,67,1,2,1,39,39,55.28619658885873,55.87202046974562,"[96, 0, 158]",158,l,0.05316269226022996,colour,0.5
059,67,1,2,1,40,40,56.385839022754226,56.95200222253334,"[10, 0, 244]",244,a,0.03314752472215332,colour,0.5
059,67,1,2,1,41,41,57.469127283402486,58.01587970688706,"[37, 0, 217]",217,a,0.013694081775611266,colour,0.5
059,67,1,2,1,42,42,58.51935912712361,60.00784938724246,"[89, 0, 165]",165,l,0.955681181687396,colour,0.5
059,67,1,2,1,43,43,60.519942666229326,61.319867021084065,"[19, 0, 235]",235,a,0.26770876039518043,colour,0.5
059,67,1,2,1,44,44,61.835744803160196,62.41588952342863,"[46, 0, 208]",208,a,0.04704948628204875,colour,0.5
059,67,1,2,1,45,45,62.91879278299166,64.26380491891177,"[78, 0, 176]",176,l,0.8116185559483711,colour,0.5
059,67,1,2,1,46,46,64.76930699674995,65.4078778102994,"[74, 0, 180]",180,l,0.10567255210480653,colour,0.5
059,67,1,2,1,47,47,65.91857720393455,66.58391863686848,"[54, 0, 200]",200,a,0.13171880022855476,colour,0.5
059,67,1,2,1,48,48,67.08566829186748,68.35993649400189,"[99, 0, 155]",155,l,0.7411264518741518,colour,0.5
059,67,1,2,1,49,49,68.86966995231342,69.6719762631983,"[8, 0, 246]",246,a,0.26978691678959876,colour,0.5
059,67,1,2,1,50,50,70.1862343151879,70.81601867839345,"[48, 0, 206]",206,a,0.09714723471552134,colour,0.5
059,67,1,2,2,1,51,75.26902437006356,76.52786423396901,"[61, 0, 193]",193,l,0.7257016424555331,colour,0.5
059,67,1,2,2,2,52,77.03590000726399,77.60787742535467,"[95, 0, 159]",159,l,0.03903135712607764,colour,0.5
059,67,1,2,2,3,53,78.12043009305489,78.75189802597743,"[6, 0, 248]",248,a,0.09976145150722004,colour,0.5
059,67,1,2,2,4,54,79.26909590893774,79.88789985582116,"[62, 0, 192]",192,l,0.0857703069341369,colour,0.5
059,67,1,2,2,5,55,80.40208187769167,81.00791322687292,"[96, 0, 158]",158,l,0.07245413010241464,colour,0.5
059,67,1,2,2,6,56,81.51903575853794,82.83994506584713,"[57, 0, 197]",197,a,0.7878410207340494,colour,0.5
059,67,1,2,2,7,57,83.35219457550556,84.02400017195032,"[63, 0, 191]",191,l,0.13855252781650051,colour,0.5
059,67,1,2,2,8,58,84.53636420797557,85.68000562046655,"[3, 0, 251]",251,a,0.611243281600764,colour,0.5
059,67,1,2,2,9,59,86.18575920717558,86.76792754748021,"[83, 0, 171]",171,l,0.049170950980624184,colour,0.5
059,67,1,2,2,10,60,87.26947317228769,88.05603066354524,"[75, 0, 179]",179,l,0.2539434605278075,colour,0.5
059,67,1,2,2,11,61,88.5694132464414,89.50388298934558,"[48, 0, 206]",206,a,0.40176845400128514,colour,0.5
059,67,1,2,2,12,62,90.01951118733268,90.87995101991692,"[84, 0, 170]",170,l,0.32786429810221307,colour,0.5
059,67,1,2,2,13,63,91.38566450637882,92.31191176915308,"[37, 0, 217]",217,a,0.3931642192765139,colour,0.5
059,67,1,2,2,14,64,92.81901849937276,93.70397146657342,"[92, 0, 162]",162,l,0.3518766605411656,colour,0.5
059,67,1,2,2,15,65,94.21938087750459,95.17591571371304,"[68, 0, 186]",186,l,0.4238364345219452,colour,0.5
059,67,1,2,2,16,66,95.68613999933586,96.6398844984069,"[85, 0, 169]",169,l,0.4211420172068756,colour,0.5
059,67,1,2,2,17,67,97.1523402838211,98.19196929538157,"[34, 0, 220]",220,a,0.5065703490108717,colour,0.5
059,67,1,2,2,18,68,98.70180316478945,99.6000469654391,"[4, 0, 250]",250,a,0.3646455488924403,colour,0.5
059,67,1,2,2,19,69,100.10256782881333,101.17600040551042,"[49, 0, 205]",205,a,0.5405612626345828,colour,0.5
059,67,1,2,2,20,70,101.68637835534173,102.68801508797333,"[5, 0, 249]",249,a,0.46921774960355833,colour,0.5
059,67,1,2,2,21,71,103.20203606714495,104.1120350213314,"[29, 0, 225]",225,a,0.37665028651827015,colour,0.5
059,67,1,2,2,22,72,104.6202148347802,105.74404350589612,"[26, 0, 228]",228,a,0.5919896983832587,colour,0.5
059,67,1,2,2,23,73,106.25240136455977,107.29595442811842,"[23, 0, 231]",231,a,0.5105069123092107,colour,0.5
059,67,1,2,2,24,74,107.80287765953108,108.70402471974376,"[81, 0, 173]",173,l,0.36864274382242,colour,0.5
059,67,1,2,2,25,75,109.21942322337418,110.20800908256206,"[45, 0, 209]",209,a,0.4559740740514826,colour,0.5
059,67,1,2,2,26,76,110.71908606030047,111.63999357112334,"[56, 0, 198]",198,a,0.38792038717656396,colour,0.5
059,67,1,2,2,27,77,112.15273198328214,113.18392710605985,"[2, 0, 252]",252,a,0.4985541446658317,colour,0.5
059,67,1,2,2,28,78,113.68563537756563,114.64789685313008,"[60, 0, 194]",194,l,0.429192868177779,colour,0.5
059,67,1,2,2,29,79,115.15195147160557,116.14391345271724,"[54, 0, 200]",200,l,0.45854369935113937,colour,0.5
059,67,1,2,2,30,80,116.65279229407315,117.67992413669708,"[97, 0, 157]",157,l,0.49457363146939315,colour,0.5
059,67,1,2,2,31,81,118.185561593069,119.1119265902089,"[44, 0, 210]",210,a,0.3932312669348903,colour,0.5
059,67,1,2,2,32,82,119.61879303961177,120.52791909113876,"[18, 0, 236]",236,a,0.3758957598474808,colour,0.5
059,67,1,2,2,33,83,121.0360613707453,121.94392987777246,"[17, 0, 237]",237,a,0.37525928832474165,colour,0.5
059,67,1,2,2,34,84,122.45198778642225,123.34401957405498,"[42, 0, 212]",212,a,0.3586844031524379,colour,0.5
059,67,1,2,2,35,85,123.85367988949292,124.7599074934842,"[12, 0, 242]",242,a,0.37455127798602916,colour,0.5
059,67,1,2,2,36,86,125.2688504952821,126.12805235234555,"[78, 0, 176]",176,l,0.32605689874617383,colour,0.5
059,67,1,2,2,37,87,126.63529606509837,127.55198246109649,"[67, 0, 187]",187,l,0.38329345762031153,colour,0.5
059,67,1,2,2,38,88,128.06962465506513,128.9599029381061,"[35, 0, 219]",219,a,0.3578827185847331,colour,0.5
059,67,1,2,2,39,89,129.46888988980209,130.34403850138187,"[87, 0, 167]",167,l,0.3420569064328447,colour,0.5
059,67,1,2,2,40,90,130.85241400418454,131.768028279359,"[33, 0, 221]",221,a,0.3826977280259598,colour,0.5
059,67,1,2,2,41,91,132.2854767088138,133.18406440937542,"[32, 0, 222]",222,a,0.36540200040326454,colour,0.5
059,67,1,2,2,42,92,133.68613647052553,134.45593269058736,"[71, 0, 183]",183,l,0.23728484602179378,colour,0.5
059,67,1,2,2,43,93,134.96843370911665,135.88008479442215,"[1, 0, 253]",253,a,0.37810544509557076,colour,0.5
059,67,1,2,2,44,94,136.38604337372817,137.2399195941398,"[58, 0, 196]",196,l,0.3212868914415594,colour,0.5
059,67,1,2,2,45,95,137.7521524220938,138.55206266164896,"[59, 0, 195]",195,l,0.26674956193892285,colour,0.5
059,67,1,2,2,46,96,139.07041062036296,139.94393661463982,"[11, 0, 243]",243,a,0.34194013447267935,colour,0.5
059,67,1,2,2,47,97,140.45243947586277,141.31992219906533,"[31, 0, 223]",223,a,0.33463450690032914,colour,0.5
059,67,1,2,2,48,98,141.83599759527715,142.62389796439675,"[79, 0, 175]",175,l,0.25524463411420584,colour,0.5
059,67,1,2,2,49,99,143.13598546895082,144.15995067346375,"[25, 0, 229]",229,a,0.49130690307356417,colour,0.5
059,67,1,2,2,50,100,144.6689090737491,145.2640204979689,"[89, 0, 165]",165,l,0.06207842586445622,colour,0.5
059,67,1,2,3,1,101,149.70204440801172,150.79205507787992,"[36, 0, 218]",218,a,0.5567781325953547,colour,0.5
059,67,1,2,3,2,102,151.3021571378922,152.16808525382658,"[24, 0, 230]",230,a,0.3328274283267092,colour,0.5
059,67,1,2,3,3,103,152.68604889154085,153.44001737463987,"[17, 0, 237]",237,a,0.22141155516146682,colour,0.5
059,67,1,2,3,4,104,153.9524734808947,156.6879005616065,"[94, 0, 160]",160,l,2.2026471952558495,colour,0.5
059,67,1,2,3,5,105,157.20277647854527,158.15195949166082,"[5, 0, 249]",249,a,0.4166989072691649,colour,0.5
059,67,1,2,3,6,106,158.66875733435154,159.49596527125686,"[84, 0, 170]",170,l,0.2939927229308523,colour,0.5
059,67,1,2,3,7,107,160.00181156978942,160.8720377930731,"[11, 0, 243]",243,a,0.3367498763545882,colour,0.5
059,67,1,2,3,8,108,161.38520640091156,162.04795799803105,"[2, 0, 252]",252,a,0.1293965133954771,colour,0.5
059,67,1,2,3,9,109,162.55268982987036,163.36002696020296,"[68, 0, 186]",186,l,0.2747773151786532,colour,0.5
059,67,1,2,3,10,110,163.86923109498457,164.71995030133985,"[93, 0, 161]",161,l,0.31806122572743334,colour,0.5
059,67,1,2,3,11,111,165.2361681337061,166.07208713243017,"[54, 0, 200]",200,a,0.3034791635873262,colour,0.5
059,67,1,2,3,12,112,166.58601668299525,167.45591697125928,"[13, 0, 241]",241,a,0.3373654956521932,colour,0.5
059,67,1,2,3,13,113,167.9693017997779,168.8159445730853,"[79, 0, 175]",175,l,0.31404895312152803,colour,0.5
059,67,1,2,3,14,114,169.31896075498662,170.23191365547245,"[52, 0, 202]",202,a,0.3800232004141435,colour,0.5
059,67,1,2,3,15,115,170.73601414865698,171.63202677029767,"[41, 0, 213]",213,a,0.3634778290288523,colour,0.5
059,67,1,2,3,16,116,172.134982641408,173.09600421661162,"[37, 0, 217]",217,a,0.4274563660728745,colour,0.5
059,67,1,2,3,17,117,173.6026480293367,174.5439656151575,"[21, 0, 233]",233,a,0.4087500713940244,colour,0.5
059,67,1,2,3,18,118,175.05275238628383,175.98395155117032,"[66, 0, 188]",188,l,0.3987413647992071,colour,0.5
059,67,1,2,3,19,119,176.4856450657826,177.38394661081838,"[27, 0, 227]",227,a,0.3654167572967708,colour,0.5
059,67,1,2,3,20,120,177.8851980600448,178.75993925289367,"[62, 0, 192]",192,l,0.3413726354483515,colour,0.5
059,67,1,2,3,21,121,179.2694382048503,180.20802512267255,"[49, 0, 205]",205,l,0.4061753132555168,colour,0.5
059,67,1,2,3,22,122,180.71931992509053,181.56797637356794,"[82, 0, 172]",172,l,0.31608155561843887,colour,0.5
059,67,1,2,3,23,123,182.08568208635552,182.98411644349108,"[30, 0, 224]",224,a,0.3655896696727723,colour,0.5
059,67,1,2,3,24,124,183.48585230397293,184.40002874386846,"[96, 0, 158]",158,l,0.3815200632670894,colour,0.5
059,67,1,2,3,25,125,184.90254415362142,185.7839599561994,"[28, 0, 226]",226,a,0.3487494811124634,colour,0.5
059,67,1,2,3,26,126,186.28510425749118,187.1519739277719,"[48, 0, 206]",206,a,0.33342155392165296,colour,0.5
059,67,1,2,3,27,127,187.66896008129697,188.536052709067,"[12, 0, 242]",242,a,0.3342020655691158,colour,0.5
059,67,1,2,3,28,128,189.0522772783006,189.91200845892308,"[38, 0, 216]",216,a,0.32684992169379257,colour,0.5
059,67,1,2,3,29,129,190.41876326917554,191.26392650295747,"[32, 0, 222]",222,a,0.31210168404504657,colour,0.5
059,67,1,2,3,30,130,191.76955786405597,192.63996341571328,"[97, 0, 157]",157,l,0.33812579678487964,colour,0.5
059,67,1,2,3,31,131,193.15217924115132,193.984056774294,"[78, 0, 176]",176,l,0.298909978417214,colour,0.5
059,67,1,2,3,32,132,194.4857303991448,195.3440741104423,"[92, 0, 162]",162,l,0.3255959060625173,colour,0.5
059,67,1,2,3,33,133,195.85257985888165,196.77595401750295,"[25, 0, 229]",229,a,0.3907758471905254,colour,0.5
059,67,1,2,3,34,134,197.28591973657603,198.09597277801367,"[77, 0, 177]",177,l,0.277479431766551,colour,0.5
059,67,1,2,3,35,135,198.60273464591592,199.44004368042806,"[20, 0, 234]",234,a,0.3048993547563441,colour,0.5
059,67,1,2,3,36,136,199.9524381926458,200.76803694100818,"[56, 0, 198]",198,a,0.28288719375268556,colour,0.5
059,67,1,2,3,37,137,201.28586167140747,202.12009068435873,"[3, 0, 251]",251,a,0.30162171908887103,colour,0.5
059,67,1,2,3,38,138,202.6360130579269,203.4320152855944,"[88, 0, 166]",166,l,0.26352132981992327,colour,0.5
059,67,1,2,3,39,139,203.93654404967674,204.76795930688968,"[42, 0, 212]",212,a,0.2995018584188074,colour,0.5
059,67,1,2,3,40,140,205.2860114859941,206.11208955768961,"[91, 0, 163]",163,l,0.293635670124786,colour,0.5
059,67,1,2,3,41,141,206.61926911002956,207.43206853873562,"[50, 0, 204]",204,a,0.28026367371785454,colour,0.5
059,67,1,2,3,42,142,207.93649143810035,208.4880526859779,"[71, 0, 183]",183,l,0.01955609963624738,colour,0.5
059,67,1,2,3,43,143,209.0022391990642,209.89613837609068,"[39, 0, 215]",215,a,0.3610355622076895,colour,0.5
059,67,1,2,3,44,144,210.40251624383382,211.24801214941544,"[75, 0, 179]",179,l,0.31292229593964294,colour,0.5
059,67,1,2,3,45,145,211.7526111691841,212.53598469903227,"[10, 0, 244]",244,a,0.2508352084259968,colour,0.5
059,67,1,2,3,46,146,213.0522448772681,213.85604997584596,"[95, 0, 159]",159,l,0.27095271184225567,colour,0.5
059,67,1,2,3,47,147,214.36876432783902,215.2481302046217,"[59, 0, 195]",195,a,0.3463348032673821,colour,0.5
059,67,1,2,3,48,148,215.7525454047427,216.5360568795004,"[70, 0, 184]",184,l,0.2509372234926559,colour,0.5
059,67,1,2,3,49,149,217.0522756742721,217.83994057460222,"[86, 0, 168]",168,l,0.25479390705004334,colour,0.5
059,67,1,2,3,50,150,218.35243902672664,219.09599330933997,"[7, 0, 247]",247,a,0.21089726439095102,colour,0.5
059,67,1,2,4,1,151,223.48485717567382,224.63196678028908,"[56, 0, 198]",198,a,0.613565889216261,colour,0.5
059,67,1,2,4,2,152,225.1355292882654,225.93599932760117,"[83, 0, 171]",171,l,0.267595196433831,colour,0.5
059,67,1,2,4,3,153,226.45255592704052,227.2720816146466,"[6, 0, 248]",248,a,0.28701335116056725,colour,0.5
059,67,1,2,4,4,154,227.7853153453034,228.56015906654648,"[86, 0, 168]",168,l,0.2417577905289363,colour,0.5
059,67,1,2,4,5,155,229.06894968732377,229.86410884690122,"[55, 0, 199]",199,a,0.2623824821494054,colour,0.5
059,67,1,2,4,6,156,230.3690042878443,231.13606470706873,"[41, 0, 213]",213,a,0.23433827815460972,colour,0.5
059,67,1,2,4,7,157,231.65240861469647,232.37596665709862,"[36, 0, 218]",218,a,0.19090487380162813,colour,0.5
059,67,1,2,4,8,158,232.88577903274563,233.7120203927625,"[66, 0, 188]",188,l,0.2936408029636368,colour,0.5
059,67,1,2,4,9,159,234.21869756889646,235.0159855716047,"[87, 0, 167]",167,l,0.26427649808465503,colour,0.5
059,67,1,2,4,10,160,235.51917819469236,236.17595068115043,"[88, 0, 166]",166,l,0.12425116755184717,colour,0.5
059,67,1,2,4,11,161,236.68519940742408,237.49603424369707,"[28, 0, 226]",226,a,0.2776648554136045,colour,0.5
059,67,1,2,4,12,162,238.00195111872745,238.62396052081021,"[27, 0, 227]",227,a,0.08892764180200174,colour,0.5
059,67,1,2,4,13,163,239.13548790480127,239.87210740713635,"[51, 0, 203]",203,a,0.20371610805159435,colour,0.5
059,67,1,2,4,14,164,240.38573540365906,241.24800348776625,"[15, 0, 239]",239,a,0.3296299932117108,colour,0.5
059,67,1,2,4,15,165,241.75248028189526,242.5280782089976,"[7, 0, 247]",247,a,0.24304003675933927,colour,0.5
059,67,1,2,4,16,166,243.03535400197143,243.8160016758775,"[44, 0, 210]",210,a,0.24764932217658497,colour,0.5
059,67,1,2,4,17,167,244.31886996797402,245.04009289148962,"[0, 0, 254]",254,a,0.18840999543317594,colour,0.5
059,67,1,2,4,18,168,245.55246366435313,246.303988597414,"[29, 0, 225]",225,a,0.21894971939036623,colour,0.5
059,67,1,2,4,19,169,246.81913591295597,247.47998643649044,"[49, 0, 205]",205,a,0.1282891043520067,colour,0.5
059,67,1,2,4,20,170,247.98592865487444,248.7519827177457,"[59, 0, 195]",195,l,0.23364630792639218,colour,0.5
059,67,1,2,4,21,171,249.2687054927228,250.1439628562366,"[9, 0, 245]",245,a,0.3422586910019163,colour,0.5
059,67,1,2,4,22,172,250.65220939656137,251.47201835244778,"[3, 0, 251]",251,a,0.2870277872425504,colour,0.5
059,67,1,2,4,23,173,251.98670531690004,252.67207667429466,"[69, 0, 185]",185,l,0.15371524190413766,colour,0.5
059,67,1,2,4,24,174,253.18561709183268,253.93608851061435,"[24, 0, 230]",230,a,0.21776403463445604,colour,0.5
059,67,1,2,4,25,175,254.45203783156467,255.3120558093069,"[60, 0, 194]",194,l,0.3270077563356608,colour,0.5
059,67,1,2,4,26,176,255.81903903072816,256.59995938645443,"[97, 0, 157]",157,l,0.24828226483077742,colour,0.5
059,67,1,2,4,27,177,257.10240421970957,257.8719614421425,"[40, 0, 214]",214,a,0.23698521679034457,colour,0.5
059,67,1,2,4,28,178,258.38521377934376,259.14397504672525,"[46, 0, 208]",208,a,0.22564935169066302,colour,0.5
059,67,1,2,4,29,179,259.65212534638704,260.46396750144777,"[62, 0, 192]",192,l,0.27897693624254316,colour,0.5
059,67,1,2,4,30,180,260.96893480210565,261.77600951626664,"[32, 0, 222]",222,a,0.2743705380416941,colour,0.5
059,67,1,2,4,31,181,262.2852277663187,263.1439859539969,"[8, 0, 246]",246,a,0.3256260614434723,colour,0.5
059,67,1,2,4,32,182,263.6522007348831,264.41610670651426,"[26, 0, 228]",228,a,0.2311061964428518,colour,0.5
059,67,1,2,4,33,183,264.91888228678727,265.62413664118503,"[25, 0, 229]",229,a,0.1725094363791868,colour,0.5
059,67,1,2,4,34,184,266.136495223589,266.96808371396037,"[80, 0, 174]",174,l,0.2997937883774284,colour,0.5
059,67,1,2,4,35,185,267.4849399426312,268.2559962735686,"[79, 0, 175]",175,l,0.2376826406980399,colour,0.5
059,67,1,2,4,36,186,268.76837378327036,269.5360806188546,"[72, 0, 182]",182,l,0.23444446368375793,colour,0.5
059,67,1,2,4,37,187,270.052168847149,270.8081298324978,"[96, 0, 158]",158,l,0.2231734006491024,colour,0.5
059,67,1,2,4,38,188,271.31910351195256,272.12802315934096,"[13, 0, 241]",241,a,0.27638228837167844,colour,0.5
059,67,1,2,4,39,189,272.6356749324477,273.3439698497241,"[75, 0, 179]",179,l,0.17569564344012178,colour,0.5
059,67,1,2,4,40,190,273.85285703194677,274.399998267676,"[82, 0, 172]",172,l,0.015041450853459537,colour,0.5
059,67,1,2,4,41,191,274.90152753156144,275.6240214732243,"[18, 0, 236]",236,a,0.18907277268590406,colour,0.5
059,67,1,2,4,42,192,276.13577502273256,276.90414206916466,"[94, 0, 160]",160,l,0.235873958125012,colour,0.5
059,67,1,2,4,43,193,277.4188415449171,278.1199889900745,"[78, 0, 176]",176,l,0.16836948454147205,colour,0.5
059,67,1,2,4,44,194,278.63586420574575,279.3920272964169,"[45, 0, 209]",209,a,0.22377041343133897,colour,0.5
059,67,1,2,4,45,195,279.9018861883669,280.72002793545835,"[17, 0, 237]",237,a,0.2851045783027075,colour,0.5
059,67,1,2,4,46,196,281.23541296541225,281.99211436213227,"[58, 0, 196]",196,l,0.22384387714555487,colour,0.5
059,67,1,2,4,47,197,282.50235725427046,283.2239834260836,"[63, 0, 191]",191,l,0.189060261414852,colour,0.5
059,67,1,2,4,48,198,283.73559325622045,284.4240629208507,"[35, 0, 219]",219,a,0.1558010975131765,colour,0.5
059,67,1,2,4,49,199,284.9351395778067,285.7440123881097,"[90, 0, 164]",164,l,0.2757278519857209,colour,0.5
059,67,1,2,4,50,200,286.2522255649965,286.96005339431576,"[74, 0, 180]",180,l,0.17511338752228767,colour,0.5
059,67,1,2,5,1,201,291.4511399063049,292.160021570744,"[12, 0, 242]",242,a,0.17513006922672503,colour,0.4
059,67,1,2,5,2,202,292.6685064670455,293.4480993434554,"[91, 0, 163]",163,l,0.24654544194345362,colour,0.4
059,67,1,2,5,3,203,293.9532180626993,294.7600098293915,"[62, 0, 192]",192,l,0.27510742060258053,colour,0.4
059,67,1,2,5,4,204,295.26819894611253,296.0160089901765,"[4, 0, 250]",250,a,0.21444244906888343,colour,0.4
059,67,1,2,5,5,205,296.51881600904744,297.28809766244376,"[60, 0, 194]",194,l,0.23655085067730397,colour,0.4
059,67,1,2,5,6,206,297.80164770406554,298.44010944486945,"[77, 0, 177]",177,l,0.1051919904712122,colour,0.4
059,67,1,2,5,7,207,298.9520968591678,299.76812612402136,"[29, 0, 225]",225,a,0.2832506626145914,colour,0.4
059,67,1,2,5,8,208,300.2850782725145,300.94408065479365,"[75, 0, 179]",179,l,0.12586865204502828,colour,0.4
059,67,1,2,5,9,209,301.452275866759,302.20001533435425,"[28, 0, 226]",226,a,0.2151494970312342,colour,0.4
059,67,1,2,5,10,210,302.7022359269031,303.4321076766064,"[17, 0, 237]",237,a,0.19724135808064602,colour,0.4
059,67,1,2,5,11,211,303.93512129210285,304.7200535996235,"[47, 0, 207]",207,a,0.2518377151573077,colour,0.4
059,67,1,2,5,12,212,305.23474633853766,305.9841501277115,"[43, 0, 211]",211,a,0.21595984327723272,colour,0.4
059,67,1,2,5,13,213,306.50223984068725,307.25600750165177,"[66, 0, 188]",188,l,0.2211436853685882,colour,0.4
059,67,1,2,5,14,214,307.76818451000145,308.48000728862826,"[15, 0, 239]",239,a,0.17844395554857329,colour,0.4
059,67,1,2,5,15,215,308.98502142637153,309.9440270808409,"[8, 0, 246]",246,a,0.42581770865945145,colour,0.4
059,67,1,2,5,16,216,310.45242022772436,311.22407710031257,"[52, 0, 202]",202,a,0.23923179431585595,colour,0.4
059,67,1,2,5,17,217,311.7348688849597,312.3681281771569,"[68, 0, 186]",186,l,0.09993019344983622,colour,0.4
059,67,1,2,5,18,218,312.8848214383179,313.61599243676756,"[59, 0, 195]",195,a,0.1978056490770541,colour,0.4
059,67,1,2,5,19,219,314.11820661326055,314.6879708172637,"[99, 0, 155]",155,l,0.036455315770581365,colour,0.4
059,67,1,2,5,20,220,315.2022343228746,315.86405238570296,"[2, 0, 252]",252,a,0.1292271298589185,colour,0.4
059,67,1,2,5,21,221,316.36831327999244,317.2720007725002,"[78, 0, 176]",176,a,0.3705078875645995,colour,0.4
059,67,1,2,5,22,222,317.7848553150252,318.3759955292917,"[50, 0, 204]",204,a,0.05782041879137978,colour,0.4
059,67,1,2,5,23,223,318.8848990724364,319.6881129326357,"[41, 0, 213]",213,a,0.2699457138660364,colour,0.4
059,67,1,2,5,24,224,320.20147209696006,320.8001845254039,"[96, 0, 158]",158,l,0.06536568558658473,colour,0.4
059,67,1,2,5,25,225,321.301943483646,322.08003340192954,"[37, 0, 217]",217,a,0.24521732100402005,colour,0.4
059,67,1,2,5,26,226,322.58479282277403,323.21603619417874,"[73, 0, 181]",181,l,0.09786615235498175,colour,0.4
059,67,1,2,5,27,227,323.7194033336418,324.4481051178882,"[82, 0, 172]",172,l,0.19661611467017792,colour,0.4
059,67,1,2,5,28,228,324.9520166586153,325.6240147363569,"[71, 0, 183]",183,l,0.13919028249802068,colour,0.4
059,67,1,2,5,29,229,326.1356082056009,326.848093440698,"[51, 0, 203]",203,a,0.1799122670199722,colour,0.4
059,67,1,2,5,30,230,327.35221125721,328.0400133325311,"[16, 0, 238]",238,a,0.15519831026904285,colour,0.4
059,67,1,2,5,31,231,328.55225001010695,329.20000795589294,"[89, 0, 165]",165,l,0.11516765441047028,colour,0.4
059,67,1,2,5,32,232,329.70268408750417,330.3439993635402,"[58, 0, 196]",196,a,0.10918116531684063,colour,0.4
059,67,1,2,5,33,233,330.8527858138841,331.52000907229376,"[84, 0, 170]",170,l,0.13520271168090403,colour,0.4
059,67,1,2,5,34,234,332.0354765483935,332.6240044707083,"[64, 0, 190]",190,a,0.055886623391415924,colour,0.4
059,67,1,2,5,35,235,333.1351048670185,333.7440287490026,"[83, 0, 171]",171,l,0.0759098109556362,colour,0.4
059,67,1,2,5,36,236,334.2520693343249,334.9361420845671,"[81, 0, 173]",173,l,0.1513541380118113,colour,0.4
059,67,1,2,5,37,237,335.4521626236092,336.12016286485596,"[94, 0, 160]",160,l,0.13537305762292817,colour,0.4
059,67,1,2,5,38,238,336.6357124663191,337.3121055336378,"[86, 0, 168]",168,l,0.1439949364576023,colour,0.4
059,67,1,2,5,39,239,337.819230228808,338.4001496862911,"[46, 0, 208]",208,a,0.048707391862990335,colour,0.4
059,67,1,2,5,40,240,338.90172835372505,339.77613591233967,"[5, 0, 249]",249,a,0.34136236979975365,colour,0.4
059,67,1,2,5,41,241,340.28467598662246,340.8960129424522,"[85, 0, 169]",169,l,0.07790231317630969,colour,0.4
059,67,1,2,5,42,242,341.4018553913629,341.9440825796046,"[76, 0, 178]",178,l,0.009301658603362739,colour,0.4
059,67,1,2,5,43,243,342.4514950343,343.2400190428307,"[57, 0, 197]",197,a,0.25526452384656295,colour,0.4
059,67,1,2,5,44,244,343.7527574549604,344.4240148005192,"[69, 0, 185]",185,l,0.13925829256186262,colour,0.4
059,67,1,2,5,45,245,344.93590084134485,345.61614738422213,"[30, 0, 224]",224,a,0.14806014142232016,colour,0.4
059,67,1,2,5,46,246,346.1181908939616,346.72816091179266,"[7, 0, 247]",247,a,0.07672881887992844,colour,0.4
059,67,1,2,5,47,247,347.2351951407618,347.98404715021024,"[42, 0, 212]",212,a,0.21596946733188815,colour,0.4
059,67,1,2,5,48,248,348.50179168005707,349.10401304252446,"[70, 0, 184]",184,l,0.0692403340653982,colour,0.4
059,67,1,2,5,49,249,349.6186384129687,350.2001420512097,"[34, 0, 220]",220,a,0.048734980868175626,colour,0.4
059,67,1,2,5,50,250,350.70215315994574,351.4560459337372,"[32, 0, 222]",222,a,0.22130344485049136,colour,0.4
059,67,1,2,6,1,251,356.03567801215104,359.6399679069582,"[96, 0, 158]",158,l,3.0719042752170935,colour,0.28
059,67,1,2,6,2,252,360.151846248511,360.9360375030665,"[20, 0, 234]",234,a,0.2513189780875109,colour,0.28
059,67,1,2,6,3,253,361.45154828747036,362.02403128976584,"[64, 0, 190]",190,l,0.03932328708469868,colour,0.28
059,67,1,2,6,4,254,362.5356382326863,364.05604862846667,"[87, 0, 167]",167,l,0.9879866007249802,colour,0.28
059,67,1,2,6,5,255,364.5685534966469,365.24802401909255,"[98, 0, 156]",156,l,0.14666368960752152,colour,0.28
059,67,1,2,6,6,256,365.7522493043507,366.36001220330945,"[50, 0, 204]",204,a,0.07529996606172062,colour,0.28
059,67,1,2,6,7,257,366.86802648287266,367.416082325537,"[77, 0, 177]",177,l,0.014682152424938977,colour,0.28
059,67,1,2,6,8,258,367.91816978517454,368.56819066940807,"[67, 0, 187]",187,a,0.11680117901414633,colour,0.28
059,67,1,2,6,9,259,369.08530771022197,372.7440547339793,"[95, 0, 159]",159,l,3.1260261659044772,colour,0.28
059,67,1,2,6,10,260,373.25158043185365,374.0080421893217,"[19, 0, 235]",235,a,0.22336588191683404,colour,0.28
059,67,1,2,6,11,261,374.51791519660037,375.5361746138951,"[32, 0, 222]",222,a,0.48483407791354693,colour,0.28
059,67,1,2,6,12,262,376.0521171980072,376.65601731819334,"[13, 0, 241]",241,a,0.07133870100369677,colour,0.28
059,67,1,2,6,13,263,377.16836627651355,378.0321738901839,"[78, 0, 176]",176,l,0.33083781335153617,colour,0.28
059,67,1,2,6,14,264,378.5353315458342,379.3600523035857,"[84, 0, 170]",170,l,0.2920537946629338,colour,0.28
059,67,1,2,6,15,265,379.868654292688,380.4720318261534,"[94, 0, 160]",160,l,0.07069196386146359,colour,0.28
059,67,1,2,6,16,266,380.9856639931095,381.7600419095834,"[51, 0, 203]",203,a,0.2420359259704128,colour,0.28
059,67,1,2,6,17,267,382.26844853017246,382.8801929047622,"[44, 0, 210]",210,a,0.07886985249933787,colour,0.28
059,67,1,2,6,18,268,383.38565648632357,384.0401304253319,"[88, 0, 166]",166,l,0.1221502342086751,colour,0.28
059,67,1,2,6,19,269,384.55175308755133,385.2240600977966,"[70, 0, 184]",184,l,0.13939463350106962,colour,0.28
059,67,1,2,6,20,270,385.7345904286776,386.39211680021253,"[41, 0, 213]",213,a,0.12413824518444017,colour,0.28
059,67,1,2,6,21,271,386.90232055450906,387.68812801034073,"[53, 0, 201]",201,a,0.2534856758720707,colour,0.28
059,67,1,2,6,22,272,388.2014313550899,388.8001126657182,"[59, 0, 195]",195,a,0.06547379592666402,colour,0.28
059,67,1,2,6,23,273,389.3021266616706,390.0320401156787,"[1, 0, 253]",253,a,0.19737962380168028,colour,0.28
059,67,1,2,6,24,274,390.535007856437,391.2321587483166,"[79, 0, 175]",175,l,0.16418205393711105,colour,0.28
059,67,1,2,6,25,275,391.73501998276333,392.3200915826019,"[71, 0, 183]",183,l,0.052078060136409476,colour,0.28
059,67,1,2,6,26,276,392.83477854705416,393.5761228236079,"[68, 0, 186]",186,l,0.20816370920510963,colour,0.28
059,67,1,2,6,27,277,394.08534813130973,394.69613042019773,"[46, 0, 208]",208,a,0.07811949623282999,colour,0.28
059,67,1,2,6,28,278,395.2013084878563,395.89604245623923,"[58, 0, 196]",196,a,0.16141673931269906,colour,0.28
059,67,1,2,6,29,279,396.40137226332445,397.0400415631302,"[90, 0, 164]",164,l,0.10536843165755272,colour,0.28
059,67,1,2,6,30,280,397.5522907519771,398.1360833136132,"[12, 0, 242]",242,a,0.0514682152424939,colour,0.28
059,67,1,2,6,31,281,398.6516980379238,399.2962293555902,"[29, 0, 225]",225,a,0.11162118654465303,colour,0.28
059,67,1,2,6,32,282,399.8020855989889,400.4801352887007,"[55, 0, 199]",199,a,0.14550816026167013,colour,0.28
059,67,1,2,6,33,283,400.98462010288495,401.56808961671777,"[56, 0, 198]",198,a,0.05011892135371454,colour,0.28
059,67,1,2,6,34,284,402.08475176009233,402.7201886573457,"[65, 0, 189]",189,a,0.1022220040904358,colour,0.28
059,67,1,2,6,35,285,403.2344791103387,404.9440870708495,"[93, 0, 161]",161,l,1.176153107342543,colour,0.28
059,67,1,2,6,36,286,405.45196436787955,406.35204059045645,"[85, 0, 169]",169,l,0.3674143923271913,colour,0.28
059,67,1,2,6,37,287,406.869123305456,407.6881408424233,"[57, 0, 197]",197,a,0.28685712048900314,colour,0.28
059,67,1,2,6,38,288,408.2020145734132,408.8081972009386,"[10, 0, 244]",244,a,0.07360356423305348,colour,0.28
059,67,1,2,6,39,289,409.31851002795156,410.05609097436536,"[63, 0, 191]",191,l,0.20482608352904208,colour,0.28
059,67,1,2,6,40,290,410.56801134100533,411.80004882608773,"[92, 0, 162]",162,l,0.6988049477804452,colour,0.28
059,67,1,2,6,41,291,412.30195856135106,412.9840522830491,"[75, 0, 179]",179,l,0.14947584134642966,colour,0.28
059,67,1,2,6,42,292,413.501796171302,414.1520518827019,"[39, 0, 215]",215,a,0.11747646756703034,colour,0.28
059,67,1,2,6,43,293,414.66809680269216,415.34417163429316,"[25, 0, 229]",229,a,0.14292249485151842,colour,0.28
059,67,1,2,6,44,294,415.852882696141,416.5121680259181,"[21, 0, 233]",233,a,0.12758109398419037,colour,0.28
059,67,1,2,6,45,295,417.0181426453346,417.8161877411185,"[89, 0, 165]",165,l,0.26495884428732097,colour,0.28
059,67,1,2,6,46,296,418.31795151138795,419.00814965806785,"[91, 0, 163]",163,l,0.15687450155382976,colour,0.28
059,67,1,2,6,47,297,419.5188121594256,420.2960407239152,"[62, 0, 192]",192,a,0.24482113035628572,colour,0.28
059,67,1,2,6,48,298,420.80181484197965,421.48005829617614,"[69, 0, 185]",185,l,0.1455030274228193,colour,0.28
059,67,1,2,6,49,299,421.9849239025207,422.6721623284684,"[97, 0, 157]",157,l,0.15427953290054575,colour,0.28
059,67,1,2,6,50,300,423.1848725100281,423.8161232598941,"[66, 0, 188]",188,a,0.09824437811039388,colour,0.28
059,67,1,2,7,1,301,444.51808040970354,447.7600614785333,"[76, 0, 178]",178,l,2.708890967682237,colour,0.14
059,67,1,2,7,2,302,448.2678775023378,449.27211016602814,"[59, 0, 195]",195,a,0.47091575543163344,colour,0.14
059,67,1,2,7,3,303,449.7847760768782,450.38406755324104,"[34, 0, 220]",220,a,0.06622575619257987,colour,0.14
059,67,1,2,7,4,304,450.90223714592867,451.9440565946279,"[80, 0, 174]",174,l,0.5095830021018628,colour,0.14
059,67,1,2,7,5,305,452.45136350541725,453.3042291990423,"[62, 0, 192]",192,a,0.3197335673903581,colour,0.14
059,67,1,2,7,6,306,453.8177911103121,454.68007010169094,"[22, 0, 232]",232,a,0.32892487006029114,colour,0.14
059,67,1,2,7,7,307,455.1852051818569,455.92817817095784,"[84, 0, 170]",170,l,0.2103538255323656,colour,0.14
059,67,1,2,7,8,308,456.4353108861542,457.0320754038985,"[92, 0, 162]",162,l,0.06428554470767267,colour,0.14
059,67,1,2,7,9,309,457.536147666513,458.20810275679105,"[49, 0, 205]",205,a,0.14031116527621634,colour,0.14
059,67,1,2,7,10,310,458.71800431542215,459.36822409697925,"[55, 0, 199]",199,a,0.11711043227114715,colour,0.14
059,67,1,2,7,11,311,459.8846148417215,460.4961208603054,"[67, 0, 187]",187,a,0.07832737604621798,colour,0.14
059,67,1,2,7,12,312,461.00143366484554,461.6401526890113,"[70, 0, 184]",184,l,0.10566581526654772,colour,0.14
059,67,1,2,7,13,313,462.1519251658465,463.68806513311574,"[71, 0, 183]",183,l,1.0036257060128264,colour,0.14
059,67,1,2,7,14,314,464.20181631765445,464.8560769232281,"[1, 0, 253]",253,a,0.12164432922145352,colour,0.14
059,67,1,2,7,15,315,465.3693109746964,466.2640750343562,"[95, 0, 159]",159,l,0.36294658068800345,colour,0.14
059,67,1,2,7,16,316,466.7680167304643,467.5680828798795,"[56, 0, 198]",198,a,0.26698342672898434,colour,0.14
059,67,1,2,7,17,317,468.0850051938032,468.9361436885665,"[65, 0, 189]",189,a,0.3183730454184115,colour,0.14
059,67,1,2,7,18,318,469.451884808921,470.2960872402182,"[91, 0, 163]",163,l,0.31163331287098117,colour,0.14
059,67,1,2,7,19,319,470.80198326311074,471.66410474063014,"[66, 0, 188]",188,a,0.3296777927316725,colour,0.14
059,67,1,2,7,20,320,472.1683768629737,472.8880685977638,"[82, 0, 172]",172,l,0.18697600977611728,colour,0.14
059,67,1,2,7,21,321,473.4020196420897,474.3042044972535,"[83, 0, 171]",171,l,0.369792177923955,colour,0.14
059,67,1,2,7,22,322,474.8192741787061,475.68019328970695,"[73, 0, 181]",181,l,0.3290997072181199,colour,0.14
059,67,1,2,7,23,323,476.1852610014321,477.01613025338156,"[53, 0, 201]",201,a,0.2983739180199336,colour,0.14
059,67,1,2,7,24,324,477.5178163895325,478.36020115579595,"[93, 0, 161]",161,l,0.30913201844668947,colour,0.14
059,67,1,2,7,25,325,478.8688522276061,479.8881526479381,"[72, 0, 182]",182,l,0.4870581993018277,colour,0.14
059,67,1,2,7,26,326,480.40200071476283,481.2880983040377,"[20, 0, 234]",234,a,0.35366417016484775,colour,0.14
059,67,1,2,7,27,327,481.8010802050412,482.8321213427698,"[64, 0, 190]",190,l,0.49770626454846933,colour,0.14
059,67,1,2,7,28,328,483.3351041612623,484.1521192511427,"[78, 0, 176]",176,l,0.28439560552942567,colour,0.14
059,67,1,2,7,29,329,484.66742279735627,485.56007084593875,"[86, 0, 168]",168,l,0.35902862387592904,colour,0.14
059,67,1,2,7,30,330,486.06836775218835,486.71214293918456,"[75, 0, 179]",179,l,0.11106716122594662,colour,0.14
059,67,1,2,7,31,331,487.21858657134,487.92012475355295,"[63, 0, 191]",191,l,0.16906209639273584,colour,0.14
059,67,1,2,7,32,332,488.43516235475545,489.120191095426,"[44, 0, 210]",210,a,0.15245865980978124,colour,0.14
059,67,1,2,7,33,333,489.63503781936015,490.3360675301519,"[74, 0, 180]",180,l,0.16835857726982795,colour,0.14
059,67,1,2,7,34,334,490.85137364277034,491.6642070765083,"[97, 0, 157]",157,l,0.2798354028200265,colour,0.14
059,67,1,2,7,35,335,492.1684403818217,493.0001652131032,"[52, 0, 202]",202,a,0.2991355023405049,colour,0.14
059,67,1,2,7,36,336,493.50142532400787,494.35215158801293,"[79, 0, 175]",175,l,0.3177802030404564,colour,0.14
059,67,1,2,7,37,337,494.8678773098509,495.7281955584185,"[54, 0, 200]",200,a,0.3271591749507934,colour,0.14
059,67,1,2,7,38,338,496.2343363533728,497.0241275303997,"[77, 0, 177]",177,l,0.25640657951589674,colour,0.14
059,67,1,2,7,39,339,497.53487087393296,498.24822740766103,"[57, 0, 197]",197,a,0.1805288487521466,colour,0.14
059,67,1,2,7,40,340,498.75204655737616,499.4242387204431,"[85, 0, 169]",169,l,0.13988417759537697,colour,0.14
059,67,1,2,7,41,341,499.9351280289411,500.6881318599626,"[90, 0, 164]",164,l,0.2204077652131673,colour,0.14
059,67,1,2,7,42,342,501.2017800670292,501.8800985889102,"[61, 0, 193]",193,a,0.14574779945542105,colour,0.14
059,67,1,2,7,43,343,502.3850283556967,503.1760879844951,"[60, 0, 194]",194,a,0.25842346271383576,colour,0.14
059,67,1,2,7,44,344,503.6844731113233,504.39222683536354,"[88, 0, 166]",166,l,0.17456064542056993,colour,0.14
059,67,1,2,7,45,345,504.90172578729107,505.5680969951791,"[50, 0, 204]",204,a,0.13375942275160924,colour,0.14
059,67,1,2,7,46,346,506.08442839150666,506.91211047398974,"[69, 0, 185]",185,a,0.29445114920963533,colour,0.14
059,67,1,2,7,47,347,507.4181146072224,508.2481067860499,"[94, 0, 160]",160,l,0.2971182983601466,colour,0.14
059,67,1,2,7,48,348,508.751458206214,509.3120542053075,"[87, 0, 167]",167,l,0.027727893058909103,colour,0.14
059,67,1,2,7,49,349,509.8181192909251,510.544135640288,"[96, 0, 158]",158,l,0.1931373360566795,colour,0.14
059,67,1,2,7,50,350,511.0510213378293,511.8801261779154,"[26, 0, 228]",228,a,0.29580140550388023,colour,0.14
059,67,1,2,8,1,351,516.3340923512587,517.5041104380798,"[71, 0, 183]",183,a,0.6364807874779217,colour,0.06
059,67,1,2,8,2,352,518.0185163798451,518.8081144339812,"[91, 0, 163]",163,l,0.257102078612661,colour,0.06
059,67,1,2,8,3,353,519.3180763034325,520.2961404933885,"[60, 0, 194]",194,a,0.44518421421526,colour,0.06
059,67,1,2,8,4,354,520.8017927066248,521.6081048740889,"[9, 0, 245]",245,a,0.2738030390464701,colour,0.06
059,67,1,2,8,5,355,522.1184247587516,522.912088338664,"[97, 0, 157]",157,l,0.26111723843496293,colour,0.06
059,67,1,2,8,6,356,523.4185306876025,524.3041310335684,"[51, 0, 203]",203,a,0.3531181649013888,colour,0.06
059,67,1,2,8,7,357,524.8178690652421,525.6081266886322,"[89, 0, 165]",165,l,0.2571758631092962,colour,0.06
059,67,1,2,8,8,358,526.1185036760871,526.8800966640993,"[83, 0, 171]",171,l,0.22912043103133328,colour,0.06
059,67,1,2,8,9,359,527.3848381200223,528.1601223026228,"[55, 0, 199]",199,a,0.24252514928230084,colour,0.06
059,67,1,2,8,10,360,528.6675925017043,529.4723978614202,"[81, 0, 173]",173,l,0.27146246648044325,colour,0.06
059,67,1,2,8,11,361,529.9852758224879,530.6562332180329,"[96, 0, 158]",158,l,0.1386259915016126,colour,0.06
059,67,1,2,8,12,362,531.1684583467431,532.0482435119338,"[74, 0, 180]",180,l,0.34732062826515175,colour,0.06
059,67,1,2,8,13,363,532.5521133483853,533.2960756913526,"[56, 0, 198]",198,a,0.21178620719001628,colour,0.06
059,67,1,2,8,14,364,533.8013891375158,534.5921199440781,"[79, 0, 175]",175,l,0.2578562844719272,colour,0.06
059,67,1,2,8,15,365,535.1017651818111,535.9362017537642,"[62, 0, 192]",192,a,0.30192231069668196,colour,0.06
059,67,1,2,8,16,366,536.4516185431276,537.2722362412896,"[68, 0, 186]",186,a,0.2879391861788463,colour,0.06
059,67,1,2,8,17,367,537.7852319367521,538.5920824102359,"[92, 0, 162]",162,l,0.2744962924916763,colour,0.06
059,67,1,2,8,18,368,539.1015617932426,539.8561125322594,"[85, 0, 169]",169,l,0.22187832230702043,colour,0.06
059,67,1,2,8,19,369,540.3689269745373,541.0961039860849,"[88, 0, 166]",166,l,0.19520137712243013,colour,0.06
059,67,1,2,8,20,370,541.6016240288445,542.3441305716115,"[61, 0, 193]",193,a,0.20987967992550693,colour,0.06
059,67,1,2,8,21,371,542.8515106253035,543.6401257416292,"[59, 0, 195]",195,a,0.25585961184697226,colour,0.06
059,67,1,2,8,22,372,544.1514308097248,544.8642730975989,"[75, 0, 179]",179,a,0.18004572071367875,colour,0.06
059,67,1,2,8,23,373,545.368999475817,546.1521378576872,"[82, 0, 172]",172,l,0.25121952942572534,colour,0.06
059,67,1,2,8,24,374,546.6680589480384,547.4161830574158,"[90, 0, 164]",164,l,0.2152989908354357,colour,0.06
059,67,1,2,8,25,375,547.917656501726,548.6722543986689,"[69, 0, 185]",185,a,0.22136375564150512,colour,0.06
059,67,1,2,8,26,376,549.184638645238,550.0321934591047,"[76, 0, 178]",178,l,0.3146456451504491,colour,0.06
059,67,1,2,8,27,377,550.5349385631853,551.2961254156835,"[94, 0, 160]",160,l,0.22858052101219073,colour,0.06
059,67,1,2,8,28,378,551.8017304710229,552.6002105745429,"[70, 0, 184]",184,a,0.2659036066615954,colour,0.06
059,67,1,2,8,29,379,553.1182698112971,553.8962057445315,"[73, 0, 181]",181,a,0.24533601780422032,colour,0.06
059,67,1,2,8,30,380,554.402072253637,555.1921572854626,"[39, 0, 215]",215,a,0.25793071059160866,colour,0.06
059,67,1,2,8,31,381,555.7008487783605,556.480122456589,"[86, 0, 168]",168,l,0.2459288601821754,colour,0.06
059,67,1,2,8,32,382,556.9848247746413,557.7441179320158,"[78, 0, 176]",176,l,0.2265953972528223,colour,0.06
059,67,1,2,8,33,383,558.2518450936186,559.0321482259897,"[65, 0, 189]",189,a,0.2479515178129077,colour,0.06
059,67,1,2,8,34,384,559.5346360467374,560.3042535799905,"[98, 0, 156]",156,l,0.23674397356808186,colour,0.06
059,67,1,2,8,35,385,560.8181276317919,561.5601080589986,"[53, 0, 201]",201,a,0.20926309819333255,colour,0.06
059,67,1,2,8,36,386,562.0676587794151,562.8003012973932,"[52, 0, 202]",202,a,0.19944494811352342,colour,0.06
059,67,1,2,8,37,387,563.3174808946205,564.1201333510398,"[25, 0, 229]",229,a,0.26929416466737166,colour,0.06
059,67,1,2,8,38,388,564.634216245031,565.3602111006621,"[58, 0, 196]",196,a,0.1927055363485124,colour,0.06
059,67,1,2,8,39,389,565.8679790041351,566.6242546963913,"[80, 0, 174]",174,l,0.2234101526264567,colour,0.06
059,67,1,2,8,40,390,567.1357060502633,567.9441213966638,"[99, 0, 155]",155,l,0.2766305892437231,colour,0.06
059,67,1,2,8,41,391,568.4515364177932,569.2642559667584,"[67, 0, 187]",187,a,0.2800670219876338,colour,0.06
059,67,1,2,8,42,392,569.7681723195128,570.4961243891157,"[66, 0, 188]",188,a,0.19528671051375568,colour,0.06
059,67,1,2,8,43,393,571.0018391587946,571.7441589946975,"[50, 0, 204]",204,a,0.20999196069897152,colour,0.06
059,67,1,2,8,44,394,572.2513844217174,572.9681719345681,"[77, 0, 177]",177,l,0.18401211863965727,colour,0.06
059,67,1,2,8,45,395,573.485820223752,574.2482197084173,"[87, 0, 167]",167,l,0.23070006089983508,colour,0.06
059,67,1,2,8,46,396,574.7515801110421,575.5601667657902,"[57, 0, 197]",197,a,0.2760249147831928,colour,0.06
059,67,1,2,8,47,397,576.0680113410053,577.0001697043481,"[64, 0, 190]",190,a,0.39935762574896216,colour,0.06
059,67,1,2,8,48,398,577.5183184448979,578.3042121965264,"[72, 0, 182]",182,a,0.25341285378090106,colour,0.06
059,67,1,2,8,49,399,578.8181978874491,579.6321643944248,"[84, 0, 170]",170,l,0.2813396441633813,colour,0.06
059,67,1,2,8,50,400,580.1349290674261,580.8962785666226,"[93, 0, 161]",161,l,0.22881919782957993,colour,0.06
059,67,1,2,9,1,401,585.7835563870904,586.6481416251627,"[89, 0, 165]",165,l,0.3306677881919313,colour,0.06
059,67,1,2,9,2,402,587.1512546893209,587.8562331538706,"[99, 0, 155]",155,l,0.17212415300309658,colour,0.06
059,67,1,2,9,3,403,588.3677268536412,588.9921615200292,"[97, 0, 157]",157,l,0.09138979835552163,colour,0.06
059,67,1,2,9,4,404,589.5012370131153,590.2642408890533,"[62, 0, 192]",192,a,0.23014058190165088,colour,0.06
059,67,1,2,9,5,405,590.7676301638712,591.4801275894279,"[59, 0, 195]",195,a,0.17930819655884989,colour,0.06
059,67,1,2,9,6,406,591.9840500374266,592.7601330174075,"[74, 0, 180]",180,a,0.2426935704133939,colour,0.06
059,67,1,2,9,7,407,593.2676628856861,593.9281377498701,"[64, 0, 190]",190,a,0.12737513898173347,colour,0.06
059,67,1,2,9,8,408,594.434319607506,595.2802030421153,"[72, 0, 182]",182,a,0.3127561204310041,colour,0.06
059,67,1,2,9,9,409,595.7848947736784,596.448141047731,"[11, 0, 243]",243,a,0.1306777972204145,colour,0.06
059,67,1,2,9,10,410,596.9508993047057,597.7281888215803,"[78, 0, 176]",176,l,0.2440810397383757,colour,0.06
059,67,1,2,9,11,411,598.2342686641205,598.8961428673065,"[85, 0, 169]",169,l,0.12873373611364514,colour,0.06
059,67,1,2,9,12,412,599.4019044740999,600.1602519066946,"[63, 0, 191]",191,l,0.22617675043875352,colour,0.06
059,67,1,2,9,13,413,600.6676011633535,601.3121520499699,"[61, 0, 193]",193,a,0.11141298594884574,colour,0.06
059,67,1,2,9,14,414,601.8177384987648,602.5681701380818,"[98, 0, 156]",156,l,0.21740858582779765,colour,0.06
059,67,1,2,9,15,415,603.0848762313253,603.7121724529716,"[45, 0, 209]",209,a,0.09476303306291811,colour,0.06
059,67,1,2,9,16,416,604.2178304406698,604.9362999192381,"[86, 0, 168]",168,l,0.1855542146076914,colour,0.06
059,67,1,2,9,17,417,605.4511642872822,606.2001324271259,"[80, 0, 174]",174,l,0.2160795024537947,colour,0.06
059,67,1,2,9,18,418,606.7180007866118,607.3441527069663,"[55, 0, 199]",199,a,0.09342817528522573,colour,0.06
059,67,1,2,9,19,419,607.8522481494583,608.6642856730323,"[92, 0, 162]",162,l,0.28020945814205334,colour,0.06
059,67,1,2,9,20,420,609.1676303563581,609.8882546630339,"[65, 0, 189]",189,a,0.18754094239557162,colour,0.06
059,67,1,2,9,21,421,610.4014072307618,611.2321395001782,"[75, 0, 179]",179,l,0.29802681008004583,colour,0.06
059,67,1,2,9,22,422,611.7339430499123,612.464257185813,"[54, 0, 200]",200,a,0.1968352225376293,colour,0.06
059,67,1,2,9,23,423,612.968097187666,613.6961548011459,"[87, 0, 167]",167,l,0.19545288602239452,colour,0.06
059,67,1,2,9,24,424,614.2008738009317,614.9121473662381,"[77, 0, 177]",177,l,0.17807727865874767,colour,0.06
059,67,1,2,9,25,425,615.417938166036,616.1521846948017,"[91, 0, 163]",163,l,0.2014720969600603,colour,0.06
059,67,1,2,9,26,426,616.6677820957848,617.2323043924989,"[66, 0, 188]",188,a,0.0316095991875045,colour,0.06
059,67,1,2,9,27,427,617.7347630202421,618.4401514699566,"[68, 0, 186]",186,a,0.17279110068921,colour,0.06
059,67,1,2,9,28,428,618.9511219413835,619.7363163442933,"[71, 0, 183]",183,a,0.2522919710318092,colour,0.06
059,67,1,2,9,29,429,620.250884291163,621.0321661909111,"[93, 0, 161]",161,l,0.24811320207663812,colour,0.06
059,67,1,2,9,30,430,621.5347496106988,622.224144147971,"[69, 0, 185]",185,a,0.15675772956456058,colour,0.06
059,67,1,2,9,31,431,622.735407511791,623.5121638554847,"[26, 0, 228]",228,a,0.24481375189498067,colour,0.06
059,67,1,2,9,32,432,624.0180823345145,624.7121961923258,"[57, 0, 197]",197,a,0.16150816791923717,colour,0.06
059,67,1,2,9,33,433,625.2177938692039,625.9922263220651,"[94, 0, 160]",160,l,0.2415126976557076,colour,0.06
059,67,1,2,9,34,434,626.5015363215352,627.232158427505,"[67, 0, 187]",187,a,0.19814473696169443,colour,0.06
059,67,1,2,9,35,435,627.7347193911555,628.4401957406371,"[58, 0, 196]",196,a,0.17285782753606327,colour,0.06
059,67,1,2,9,36,436,628.951310252276,629.7281666862254,"[53, 0, 201]",201,a,0.24416669391212054,colour,0.06
059,67,1,2,9,37,437,630.23471842875,630.9443122739613,"[52, 0, 202]",202,a,0.17697949369903654,colour,0.06
059,67,1,2,9,38,438,631.4515778012574,632.0881699071033,"[56, 0, 198]",198,a,0.10417761406279169,colour,0.06
059,67,1,2,9,39,439,632.6007363692916,633.3523084602493,"[83, 0, 171]",171,l,0.21830715265241452,colour,0.06
059,67,1,2,9,40,440,633.8683476058359,634.6481669685454,"[60, 0, 194]",194,a,0.24751362286042422,colour,0.06
059,67,1,2,9,41,441,635.1511690351472,635.7681726403243,"[51, 0, 203]",203,a,0.08417207057937048,colour,0.06
059,67,1,2,9,42,442,636.2844786932983,637.0082475027302,"[76, 0, 178]",178,l,0.1909295755904168,colour,0.06
059,67,1,2,9,43,443,637.5173294118431,638.2882192464604,"[50, 0, 204]",204,a,0.2375745303579606,colour,0.06
059,67,1,2,9,44,444,638.8013759846217,639.5842423262657,"[82, 0, 172]",172,l,0.2502693134301808,colour,0.06
059,67,1,2,9,45,445,640.1016381441441,640.760302400944,"[84, 0, 170]",170,l,0.12632868232321925,colour,0.06
059,67,1,2,9,46,446,641.2691870167619,641.8483026036993,"[79, 0, 175]",175,l,0.04766670966637321,colour,0.06
059,67,1,2,9,47,447,642.3518423347268,643.2322023774032,"[95, 0, 159]",159,l,0.3482307440135628,colour,0.06
059,67,1,2,9,48,448,643.7338573957386,645.2881258930429,"[88, 0, 166]",166,l,1.020805303240195,colour,0.06
059,67,1,2,9,49,449,645.8013474332402,646.6563313835068,"[70, 0, 184]",184,l,0.32237088194233365,colour,0.06
059,67,1,2,9,50,450,647.167353183293,647.8481364281906,"[96, 0, 158]",158,l,0.14751926899771206,colour,0.06
059,67,1,2,10,1,451,653.6673172534502,654.4723051495967,"[88, 0, 166]",166,l,0.27168863199767657,colour,0.06
059,67,1,2,10,2,452,654.9840044835291,655.9042594827479,"[62, 0, 192]",192,a,0.3869579806923866,colour,0.06
059,67,1,2,10,3,453,656.4178836296487,657.2321770340204,"[86, 0, 168]",168,l,0.2815879450063221,colour,0.06
059,67,1,2,10,4,454,657.7350273612246,658.600255807658,"[74, 0, 180]",180,l,0.3329968118923716,colour,0.06
059,67,1,2,10,5,455,659.1175457608188,659.8968123814266,"[73, 0, 181]",181,l,0.24621597814257257,colour,0.06
059,67,1,2,10,6,456,660.4010325338459,661.1603022726194,"[85, 0, 169]",169,l,0.2263785349787213,colour,0.06
059,67,1,2,10,7,457,661.6680413039285,662.3921764694096,"[83, 0, 171]",171,l,0.19160069368081167,colour,0.06
059,67,1,2,10,8,458,662.9021585494047,663.5442585075216,"[82, 0, 172]",172,l,0.1103527348022908,colour,0.06
059,67,1,2,10,9,459,664.0509360044671,664.7122642023896,"[70, 0, 184]",184,l,0.128321826166939,colour,0.06
059,67,1,2,10,10,460,665.2175061096787,665.864160496043,"[91, 0, 163]",163,l,0.1135941198153887,colour,0.06
059,67,1,2,10,11,461,666.3680874352867,666.9842867894331,"[55, 0, 199]",199,a,0.08370273702894337,colour,0.06
059,67,1,2,10,12,462,667.5010551183077,668.3441956944589,"[77, 0, 177]",177,l,0.31025450519518927,colour,0.06
059,67,1,2,10,13,463,668.8513303344662,670.3842417488049,"[72, 0, 182]",182,l,1.0003198397462256,colour,0.06
059,67,1,2,10,14,464,670.9008432605478,671.7121650745394,"[87, 0, 167]",167,l,0.2782804747694172,colour,0.06
059,67,1,2,10,15,465,672.2173040043272,672.9681703305396,"[52, 0, 202]",202,a,0.2176074831513688,colour,0.06
059,67,1,2,10,16,466,673.4849588699581,674.2803185308876,"[61, 0, 193]",193,a,0.2631081366271246,colour,0.06
059,67,1,2,10,17,467,674.7836782918894,675.4163023958099,"[56, 0, 198]",198,a,0.09903708021738566,colour,0.06
059,67,1,2,10,18,468,675.9182564017829,676.7762013559695,"[80, 0, 174]",174,l,0.32566359531483613,colour,0.06
059,67,1,2,10,19,469,677.2840478559956,677.9601589382219,"[99, 0, 155]",155,l,0.1429574622598011,colour,0.06
059,67,1,2,10,20,470,678.4679303705343,679.11220119684,"[16, 0, 238]",238,a,0.11162728175986558,colour,0.06
059,67,1,2,10,21,471,679.6183198564395,680.4002173755434,"[84, 0, 170]",170,l,0.24966203491203487,colour,0.06
059,67,1,2,10,22,472,680.9178666271328,681.6722714011848,"[97, 0, 157]",157,l,0.2217455102072563,colour,0.06
059,67,1,2,10,23,473,682.1843771914719,682.928219554422,"[79, 0, 175]",175,l,0.2110233396233525,colour,0.06
059,67,1,2,10,24,474,683.4345643795386,684.1041894837108,"[66, 0, 188]",188,l,0.13700369498110376,colour,0.06
059,67,1,2,10,25,475,684.6176519463479,685.3442627421173,"[68, 0, 186]",186,l,0.19373531127348542,colour,0.06
059,67,1,2,10,26,476,685.8509806601214,686.5601808810898,"[96, 0, 158]",158,l,0.1763189620396588,colour,0.06
059,67,1,2,10,27,477,687.0680254563049,687.7523141063866,"[89, 0, 165]",165,l,0.15177278482588008,colour,0.06
059,67,1,2,10,28,478,688.2679923495161,689.0803410511871,"[51, 0, 203]",203,a,0.27980845543788746,colour,0.06
059,67,1,2,10,29,479,689.5848595496209,690.3602030806069,"[95, 0, 159]",159,l,0.24303105429862626,colour,0.06
059,67,1,2,10,30,480,690.8678449088475,691.5682442433608,"[58, 0, 196]",196,a,0.16771825612522662,colour,0.06
059,67,1,2,10,31,481,692.08379320323,692.8169413053838,"[81, 0, 173]",173,l,0.1997622214257717,colour,0.06
059,67,1,2,10,32,482,693.3354185473581,694.0962576503225,"[93, 0, 161]",161,l,0.22909444608376361,colour,0.06
059,67,1,2,10,33,483,694.6012855825829,695.4801664064871,"[69, 0, 185]",185,l,0.3463639962428715,colour,0.06
059,67,1,2,10,34,484,695.9851446144166,696.760258451046,"[92, 0, 162]",162,l,0.24310130995581858,colour,0.06
059,67,1,2,10,35,485,697.2679554572678,698.0002046717855,"[94, 0, 160]",160,l,0.1997153843403794,colour,0.06
059,67,1,2,10,36,486,698.5170743741328,699.4162921301613,"[71, 0, 183]",183,l,0.36575809080386534,colour,0.06
059,67,1,2,10,37,487,699.9173944063659,700.672218468826,"[37, 0, 217]",217,a,0.2217111843638122,colour,0.06
059,67,1,2,10,38,488,701.1842937829206,701.8402793417044,"[59, 0, 195]",195,a,0.12312836002092808,colour,0.06
059,67,1,2,10,39,489,702.3510461037513,703.0962910137605,"[64, 0, 190]",190,a,0.21247849822975695,colour,0.06
059,67,1,2,10,40,490,703.6016609210928,704.4162058343645,"[76, 0, 178]",178,a,0.28239957449841313,colour,0.06
059,67,1,2,10,41,491,704.9172356092895,705.6482664172072,"[41, 0, 213]",213,a,0.1978011578321457,colour,0.06
059,67,1,2,10,42,492,706.1508543282398,706.8881937106198,"[60, 0, 194]",194,a,0.20432370735215954,colour,0.06
059,67,1,2,10,43,493,707.400901646557,708.0962881265441,"[67, 0, 187]",187,a,0.16250586265232414,colour,0.06
059,67,1,2,10,44,494,708.6010154671676,709.3122088319506,"[63, 0, 191]",191,a,0.17840642170631327,colour,0.06
059,67,1,2,10,45,495,709.8175014259759,710.7442456112767,"[75, 0, 179]",179,l,0.3937798386323266,colour,0.06
059,67,1,2,10,46,496,711.2508749878907,711.9441961435659,"[98, 0, 156]",156,l,0.16042449822998606,colour,0.06
059,67,1,2,10,47,497,712.4513898112054,713.3202224698907,"[57, 0, 197]",197,a,0.3364483223122079,colour,0.06
059,67,1,2,10,48,498,713.8340830479865,714.6803193649685,"[53, 0, 201]",201,a,0.3131799000839237,colour,0.06
059,67,1,2,10,49,499,715.1841914470424,716.0083530466363,"[78, 0, 176]",176,l,0.29126013015047647,colour,0.06
059,67,1,2,10,50,500,716.5170114969078,717.4402242920478,"[65, 0, 189]",189,a,0.38979194697458297,colour,0.06
059,67,1,2,11,1,501,721.8675626029435,722.6963123150344,"[55, 0, 199]",199,a,0.29586877397377975,colour,0.06
059,67,1,2,11,2,502,723.2011192145874,724.0482335670677,"[88, 0, 166]",166,l,0.31447209118050523,colour,0.06
059,67,1,2,11,3,503,724.55103032029,725.2004516252782,"[57, 0, 197]",197,a,0.11668569024186581,colour,0.06
059,67,1,2,11,4,504,725.7178785609722,726.4722268738551,"[68, 0, 186]",186,a,0.22180100900004618,colour,0.06
059,67,1,2,11,5,505,726.9847108898975,727.7842024826386,"[73, 0, 181]",181,l,0.26708319620229304,colour,0.06
059,67,1,2,11,6,506,728.3009907012456,729.0403665357153,"[52, 0, 202]",202,a,0.20663348288508132,colour,0.06
059,67,1,2,11,7,507,729.5538617201673,730.360228744772,"[72, 0, 182]",182,a,0.2764997019839939,colour,0.06
059,67,1,2,11,8,508,730.8674551342265,731.6962879340572,"[79, 0, 175]",175,l,0.29588256843271665,colour,0.06
059,67,1,2,11,9,509,732.2011054200702,732.9042658988037,"[91, 0, 163]",163,l,0.1705480520031415,colour,0.06
059,67,1,2,11,10,510,733.4186695949466,734.0323484065593,"[95, 0, 159]",159,l,0.08196463092463091,colour,0.06
059,67,1,2,11,11,511,734.5338414197904,735.3843187413295,"[3, 0, 251]",251,a,0.3172540875093546,colour,0.06
059,67,1,2,11,12,512,735.9011698371614,736.8483398167591,"[69, 0, 185]",185,a,0.41457166816690005,colour,0.06
059,67,1,2,11,13,513,737.352194896288,738.1683390083199,"[53, 0, 201]",201,a,0.28456883868784644,colour,0.06
059,67,1,2,11,14,514,738.6841741237149,739.4643604840967,"[17, 0, 237]",237,a,0.24731697113020346,colour,0.06
059,67,1,2,11,15,515,739.9669884954055,740.776340584096,"[80, 0, 174]",174,l,0.27596364155760966,colour,0.06
059,67,1,2,11,16,516,741.2852463728632,742.2322367032466,"[56, 0, 198]",198,a,0.41520108201075345,colour,0.06
059,67,1,2,11,17,517,742.7345079825318,743.4883959442959,"[50, 0, 204]",204,a,0.22132429698831402,colour,0.06
059,67,1,2,11,18,518,744.000998336327,744.6883631583187,"[61, 0, 193]",193,a,0.15466353308875114,colour,0.06
059,67,1,2,11,19,519,745.2009985929762,745.8084054015344,"[85, 0, 169]",169,l,0.07470808606012724,colour,0.06
059,67,1,2,11,20,520,746.317170678929,747.6643950665893,"[92, 0, 162]",162,l,0.8140390082844533,colour,0.06
059,67,1,2,11,21,521,748.1672874188516,749.008221196942,"[84, 0, 170]",170,l,0.3078645291097928,colour,0.06
059,67,1,2,11,22,522,749.5170256122074,750.2723475596285,"[64, 0, 190]",190,a,0.22199060305138119,colour,0.06
059,67,1,2,11,23,523,750.7844767684583,751.6242973630724,"[93, 0, 161]",161,l,0.30729735086788423,colour,0.06
059,67,1,2,11,24,524,752.1341469517793,752.8803356617282,"[77, 0, 177]",177,l,0.21333054878050461,colour,0.06
059,67,1,2,11,25,525,753.3841917036625,754.1122858886083,"[81, 0, 173]",173,l,0.19528606889070943,colour,0.06
059,67,1,2,11,26,526,754.6174565778347,755.7923428374343,"[86, 0, 168]",168,l,0.6419915269943886,colour,0.06
059,67,1,2,11,27,527,756.3010340095207,757.1362132384675,"[82, 0, 172]",172,l,0.30252124831895344,colour,0.06
059,67,1,2,11,28,528,757.6506079521787,758.4163550073572,"[65, 0, 189]",189,a,0.23269865833572112,colour,0.06
059,67,1,2,11,29,529,758.9351767908665,759.7042383739608,"[90, 0, 164]",164,l,0.2372489161498379,colour,0.06
059,67,1,2,11,30,530,760.2168513524812,761.0243062172085,"[70, 0, 184]",184,a,0.2739778762042988,colour,0.06
059,67,1,2,11,31,531,761.5341118560173,762.2642277361592,"[63, 0, 191]",191,a,0.19724199967458844,colour,0.06
059,67,1,2,11,32,532,762.7675987252733,763.552371273312,"[67, 0, 187]",187,a,0.2520600310526788,colour,0.06
059,67,1,2,11,33,533,764.0678114812472,764.7202319656208,"[71, 0, 183]",183,a,0.11986548121785745,colour,0.06
059,67,1,2,11,34,534,765.2339837917825,766.0003076492867,"[54, 0, 200]",200,a,0.23328572630998679,colour,0.06
059,67,1,2,11,35,535,766.51689504573,767.2562307799526,"[74, 0, 180]",180,l,0.2059270765457768,colour,0.06
059,67,1,2,11,36,536,767.767309682531,768.3283297820599,"[96, 0, 158]",158,l,0.028030088666127995,colour,0.06
059,67,1,2,11,37,537,768.8343650330789,769.6323514221003,"[83, 0, 171]",171,l,0.2653851903742179,colour,0.06
059,67,1,2,11,38,538,770.1335877936217,771.3282460526971,"[94, 0, 160]",160,l,0.6612832856480964,colour,0.06
059,67,1,2,11,39,539,771.8334526717372,772.6648836482782,"[98, 0, 156]",156,l,0.2978927147923969,colour,0.06
059,67,1,2,11,40,540,773.1676425468468,773.920246016758,"[62, 0, 192]",192,a,0.21996185020543635,colour,0.06
059,67,1,2,11,41,541,774.4342862440681,775.1844089509104,"[66, 0, 188]",188,a,0.21745446053682826,colour,0.06
059,67,1,2,11,42,542,775.7010656406055,776.4642315216479,"[58, 0, 196]",196,a,0.23058874256093986,colour,0.06
059,67,1,2,11,43,543,776.9675316134526,777.800274991605,"[89, 0, 165]",165,l,0.29997247515711933,colour,0.06
059,67,1,2,11,44,544,778.3173153607058,779.2242487294716,"[99, 0, 155]",155,l,0.3739500947413035,colour,0.06
059,67,1,2,11,45,545,779.7340110599762,780.5602350966656,"[78, 0, 176]",176,l,0.29330428148387,colour,0.06
059,67,1,2,11,46,546,781.0676741779316,781.8883467332344,"[97, 0, 157]",157,l,0.2880787351168692,colour,0.06
059,67,1,2,11,47,547,782.4019500279974,783.2403574890923,"[75, 0, 179]",179,l,0.3067574408487417,colour,0.06
059,67,1,2,11,48,548,783.7507338349533,784.504336603597,"[48, 0, 206]",206,a,0.22074941950268112,colour,0.06
059,67,1,2,11,49,549,785.0173149757611,785.8402440534555,"[60, 0, 194]",194,a,0.28999007437960245,colour,0.06
059,67,1,2,11,50,550,786.3507070158958,787.1682267275755,"[59, 0, 195]",195,a,0.2846445479954127,colour,0.06
059,67,1,2,12,1,551,791.5334417003032,792.320306520036,"[60, 0, 194]",194,a,0.253396492858883,colour,0.06
059,67,1,2,12,2,552,792.8337269575859,793.6562357844668,"[64, 0, 190]",190,a,0.2893439788313117,colour,0.06
059,67,1,2,12,3,553,794.1673185366672,795.0242564928776,"[80, 0, 174]",174,l,0.3240156346000731,colour,0.06
059,67,1,2,12,4,554,795.5342889387975,796.3522779840569,"[33, 0, 221]",221,a,0.2853730897186324,colour,0.06
059,67,1,2,12,5,555,796.8669418507488,797.6882425367075,"[69, 0, 185]",185,l,0.28800815864815377,colour,0.06
059,67,1,2,12,6,556,798.2002216101391,799.1683605020808,"[66, 0, 188]",188,l,0.4347809210012201,colour,0.06
059,67,1,2,12,7,557,799.6840586349426,800.5363305237552,"[55, 0, 199]",199,a,0.31942271010484546,colour,0.06
059,67,1,2,12,8,558,801.0511121248419,801.9042354225821,"[96, 0, 158]",158,l,0.3206632520304993,colour,0.06
059,67,1,2,12,9,559,802.4179365620075,803.2562817875005,"[67, 0, 187]",187,a,0.3060715658357367,colour,0.06
059,67,1,2,12,10,560,803.7675637578359,804.552308396087,"[87, 0, 167]",167,l,0.25209981051739305,colour,0.06
059,67,1,2,12,11,561,805.0671855962428,805.8723890714173,"[97, 0, 157]",157,l,0.2721781760628801,colour,0.06
059,67,1,2,12,12,562,806.3842157638283,807.2002892993914,"[83, 0, 171]",171,l,0.2834232541790698,colour,0.06
059,67,1,2,12,13,563,807.7175882350421,808.4802687423944,"[78, 0, 176]",176,l,0.2300709678675048,colour,0.06
059,67,1,2,12,14,564,808.9841494861175,809.7522874797869,"[95, 0, 159]",159,l,0.23543349673855118,colour,0.06
059,67,1,2,12,15,565,810.2674258128973,811.096354853391,"[70, 0, 184]",184,l,0.29617289439192973,colour,0.06
059,67,1,2,12,16,566,811.6016346153338,812.3922807301278,"[93, 0, 161]",161,l,0.258751643326832,colour,0.06
059,67,1,2,12,17,567,812.9009253859113,813.7043371810287,"[71, 0, 183]",183,l,0.2708038596319966,colour,0.06
059,67,1,2,12,18,568,814.217666831566,814.9843124535982,"[92, 0, 162]",162,l,0.2341249447199516,colour,0.06
059,67,1,2,12,19,569,815.5006518699811,816.288355266588,"[88, 0, 166]",166,l,0.2548506890598219,colour,0.06
059,67,1,2,12,20,570,816.8004318638705,817.6564189624914,"[54, 0, 200]",200,a,0.32291367920697667,colour,0.06
059,67,1,2,12,21,571,818.1673275191279,818.9763655425049,"[94, 0, 160]",160,l,0.2762003935640678,colour,0.06
059,67,1,2,12,22,572,819.484009616368,820.3844300596684,"[79, 0, 175]",175,l,0.36757575580850244,colour,0.06
059,67,1,2,12,23,573,820.9003171450167,821.7203073541459,"[86, 0, 168]",168,l,0.28681830342975445,colour,0.06
059,67,1,2,12,24,574,822.2338407140342,822.7762873309548,"[99, 0, 155]",155,l,0.00945019003120251,colour,0.06
059,67,1,2,12,25,575,823.2842759463238,824.1763744608033,"[53, 0, 201]",201,a,0.35955602262401953,colour,0.06
059,67,1,2,12,26,576,824.6844647704856,825.5122681161738,"[77, 0, 177]",177,a,0.295440823858371,colour,0.06
059,67,1,2,12,27,577,826.0171664443624,826.8164033201756,"[65, 0, 189]",189,a,0.26624943138449453,colour,0.06
059,67,1,2,12,28,578,827.3352482014161,828.2722429781279,"[76, 0, 178]",178,l,0.4054461299383547,colour,0.06
059,67,1,2,12,29,579,828.784956046904,829.6404321076698,"[50, 0, 204]",204,a,0.32363420084584504,colour,0.06
059,67,1,2,12,30,580,830.1501697364147,831.048252173583,"[74, 0, 180]",180,l,0.3647767569636926,colour,0.06
059,67,1,2,12,31,581,831.5502305605041,832.360338779923,"[17, 0, 237]",237,a,0.2768776069278829,colour,0.06
059,67,1,2,12,32,582,832.8669973495416,833.6082976761681,"[59, 0, 195]",195,a,0.2081746164476499,colour,0.06
059,67,1,2,12,33,583,834.116852828156,834.9604261664208,"[98, 0, 156]",156,l,0.3102865853870753,colour,0.06
059,67,1,2,12,34,584,835.4666988110403,836.3844239644241,"[75, 0, 179]",179,l,0.3842725458089262,colour,0.06
059,67,1,2,12,35,585,836.8999126135022,837.744252348115,"[73, 0, 181]",181,l,0.31078222472569905,colour,0.06
059,67,1,2,12,36,586,838.2509657749033,839.0082722044899,"[72, 0, 182]",182,l,0.22481398287345655,colour,0.06
059,67,1,2,12,37,587,839.5175748254987,840.3683800068393,"[81, 0, 173]",173,l,0.3182549902412575,colour,0.06
059,67,1,2,12,38,588,840.8839363451407,841.6722659475636,"[52, 0, 202]",202,a,0.2554964637965895,colour,0.06
059,67,1,2,12,39,589,842.1837978227704,842.8564198607346,"[34, 0, 220]",220,a,0.13963395191240124,colour,0.06
059,67,1,2,12,40,590,843.3668866727967,844.2242628447711,"[56, 0, 198]",198,a,0.3241632036224473,colour,0.06
059,67,1,2,12,41,591,844.7336780673359,845.496380710043,"[68, 0, 186]",186,a,0.2296237696427852,colour,0.06
059,67,1,2,12,42,592,846.0007747372147,846.8963594087691,"[91, 0, 163]",163,l,0.3629260493326001,colour,0.06
059,67,1,2,12,43,593,847.4005285536405,848.2562593313341,"[90, 0, 164]",164,l,0.32283989471034147,colour,0.06
059,67,1,2,12,44,594,848.7668778828229,849.53630485959,"[58, 0, 196]",196,a,0.23622716130921617,colour,0.06
059,67,1,2,12,45,595,850.0506989316782,850.7042447900167,"[62, 0, 192]",192,a,0.12083237894694321,colour,0.06
059,67,1,2,12,46,596,851.2174271923432,851.7604249473661,"[61, 0, 193]",193,a,0.010318280634237453,colour,0.06
059,67,1,2,12,47,597,852.2675095422601,852.9682486062811,"[63, 0, 191]",191,a,0.16812599569675513,colour,0.06
059,67,1,2,12,48,598,853.4835704381985,854.0643448931223,"[84, 0, 170]",170,l,0.047601907630451024,colour,0.06
059,67,1,2,12,49,599,854.5668619068747,855.312255027442,"[85, 0, 169]",169,l,0.21219555073184893,colour,0.06
059,67,1,2,12,50,600,855.8173913908249,856.3523155178991,"[82, 0, 172]",172,l,0.0022491439303848892,colour,0.06
059,67,1,2,13,1,601,860.7667903038091,861.3284080577723,"[62, 0, 192]",192,a,0.02835859009064734,colour,0.06
059,67,1,2,13,2,602,861.8333317293145,862.5363289197267,"[69, 0, 185]",185,a,0.16959655276150443,colour,0.06
059,67,1,2,13,3,603,863.0508663904038,863.688414486649,"[53, 0, 201]",201,a,0.10502389012253843,colour,0.06
059,67,1,2,13,4,604,864.2001622617245,865.7283540347125,"[98, 0, 156]",156,l,0.9949618020909838,colour,0.06
059,67,1,2,13,5,605,866.2336312302214,867.0162752559409,"[66, 0, 188]",188,a,0.24955937822232954,colour,0.06
059,67,1,2,13,6,606,867.5338953145547,868.1202809200331,"[84, 0, 170]",170,l,0.05355471247457899,colour,0.06
059,67,1,2,13,7,607,868.6340369166282,869.3603179277852,"[78, 0, 176]",176,l,0.19354700041003525,colour,0.06
059,67,1,2,13,8,608,869.8669575700769,870.5764131495671,"[64, 0, 190]",190,a,0.17639050094294362,colour,0.06
059,67,1,2,13,9,609,871.0843847624201,871.7043894717935,"[61, 0, 193]",193,a,0.08770506476867013,colour,0.06
059,67,1,2,13,10,610,872.217419813911,872.8802708596922,"[87, 0, 167]",167,l,0.13023797745699994,colour,0.06
059,67,1,2,13,11,611,873.3838378588844,874.0563572401588,"[91, 0, 163]",163,l,0.13967758099897765,colour,0.06
059,67,1,2,13,12,612,874.5674034209223,875.200271976064,"[85, 0, 169]",169,l,0.10023399308556691,colour,0.06
059,67,1,2,13,13,613,875.7174502901034,876.4164108269615,"[99, 0, 155]",155,l,0.166358054993907,colour,0.06
059,67,1,2,13,14,614,876.9344642892829,877.5603550766537,"[51, 0, 203]",203,a,0.09368032577913254,colour,0.06
059,67,1,2,13,15,615,878.0668920622556,878.760444516316,"[90, 0, 164]",164,l,0.1604139117989689,colour,0.06
059,67,1,2,13,16,616,879.2676134821668,880.0403334930888,"[50, 0, 204]",204,a,0.24033759935991839,colour,0.06
059,67,1,2,13,17,617,880.5508609367535,881.2403546018759,"[76, 0, 178]",178,l,0.15698036627145484,colour,0.06
059,67,1,2,13,18,618,881.7506764113496,882.3842815282696,"[58, 0, 196]",196,a,0.10093462499207817,colour,0.06
059,67,1,2,13,19,619,882.9018117622763,883.5922636634496,"[77, 0, 177]",177,l,0.158941750676604,colour,0.06
059,67,1,2,13,20,620,884.1004072262731,884.7924086018756,"[65, 0, 189]",189,a,0.15906718431506306,colour,0.06
059,67,1,2,13,21,621,885.3004969867179,886.0403684605262,"[82, 0, 172]",172,l,0.2070370519941207,colour,0.06
059,67,1,2,13,22,622,886.5514210573165,887.1524499981606,"[54, 0, 200]",200,a,0.06912837410345674,colour,0.06
059,67,1,2,13,23,623,887.666684310796,888.2964186288591,"[55, 0, 199]",199,a,0.09643312910338864,colour,0.06
059,67,1,2,13,24,624,888.8008832324995,889.4322815513879,"[79, 0, 175]",175,l,0.0989700325881131,colour,0.06
059,67,1,2,13,25,625,889.9340206198685,890.6962751019746,"[68, 0, 186]",186,l,0.22959201023331843,colour,0.06
059,67,1,2,13,26,626,891.2005090488819,891.8244625120133,"[52, 0, 202]",202,a,0.09114245988894254,colour,0.06
059,67,1,2,13,27,627,892.3348613140115,892.912241040467,"[95, 0, 159]",159,l,0.04559529011021368,colour,0.06
059,67,1,2,13,28,628,893.4171185165178,894.0323676546686,"[56, 0, 198]",198,a,0.08240220506559126,colour,0.06
059,67,1,2,13,29,629,894.5331741512928,895.1843556977401,"[32, 0, 222]",222,a,0.11769685865147039,colour,0.06
059,67,1,2,13,30,630,895.7002036452177,896.4563401093183,"[70, 0, 184]",184,l,0.22303256846498698,colour,0.06
059,67,1,2,13,31,631,896.9675928866782,897.7442834659305,"[97, 0, 157]",157,l,0.2443328694498632,colour,0.06
059,67,1,2,13,32,632,898.250397634285,898.8643378996348,"[10, 0, 244]",244,a,0.08101633974001743,colour,0.06
059,67,1,2,13,33,633,899.3675542620767,899.9442859681731,"[60, 0, 194]",194,a,0.044309835851890966,colour,0.06
059,67,1,2,13,34,634,900.4507238259248,901.0402747862972,"[94, 0, 160]",160,l,0.05699820286827162,colour,0.06
059,67,1,2,13,35,635,901.5505398137902,902.2243106442911,"[74, 0, 180]",180,l,0.14103906537638977,colour,0.06
059,67,1,2,13,36,636,902.733940804319,904.4882393928419,"[92, 0, 162]",162,l,1.2216085277032107,colour,0.06
059,67,1,2,13,37,637,905.000188631675,905.9602975247544,"[73, 0, 181]",181,l,0.4270303408266045,colour,0.06
059,67,1,2,13,38,638,906.4672011872171,907.2404001557734,"[72, 0, 182]",182,l,0.2404094590456225,colour,0.06
059,67,1,2,13,39,639,907.750509594247,908.5924118740368,"[59, 0, 195]",195,a,0.3091426048777066,colour,0.06
059,67,1,2,13,40,640,909.1005259230733,909.792427849985,"[88, 0, 166]",166,l,0.15917561543756165,colour,0.06
059,67,1,2,13,41,641,910.299868856091,910.9602930335386,"[80, 0, 174]",174,l,0.12702642704243772,colour,0.06
059,67,1,2,13,42,642,911.467347793805,912.280306340399,"[63, 0, 191]",191,a,0.2803688968124334,colour,0.06
059,67,1,2,13,43,643,912.7838553746988,913.5122738906066,"[96, 0, 158]",158,l,0.19565563299693167,colour,0.06
059,67,1,2,13,44,644,914.0165671859286,914.6322846952244,"[38, 0, 216]",216,a,0.08235921757295728,colour,0.06
059,67,1,2,13,45,645,915.1340555231436,915.8884221217595,"[93, 0, 161]",161,l,0.22183758043684065,colour,0.06
059,67,1,2,13,46,646,916.4005676915112,917.0403270770621,"[86, 0, 168]",168,l,0.10706419189227745,colour,0.06
059,67,1,2,13,47,647,917.5506700594851,918.3523004401941,"[75, 0, 179]",179,a,0.2690712071489543,colour,0.06
059,67,1,2,13,48,648,918.867345419887,919.4484150127682,"[81, 0, 173]",173,l,0.04848635915550403,colour,0.06
059,67,1,2,13,49,649,919.9505845977692,920.6489965629298,"[57, 0, 197]",197,a,0.16575558853219263,colour,0.06
059,67,1,2,13,50,650,921.1500202426105,921.9363207713759,"[67, 0, 187]",187,a,0.25308467316790484,colour,0.06
059,67,1,2,14,1,651,926.2502683509956,927.1843046901922,"[96, 0, 158]",158,l,0.40106589725473896,colour,0.06
059,67,1,2,14,2,652,927.701345700887,928.4802834992879,"[59, 0, 195]",195,a,0.24707989834132604,colour,0.06
059,67,1,2,14,3,653,928.9841732254717,929.7523115399526,"[98, 0, 156]",156,l,0.23574210843071342,colour,0.06
059,67,1,2,14,4,654,930.2669317775872,931.0164029352018,"[28, 0, 226]",226,a,0.21653247511130758,colour,0.06
059,67,1,2,14,5,655,931.5339296403981,932.3202994624153,"[68, 0, 186]",186,l,0.2537718313978985,colour,0.06
059,67,1,2,14,6,656,932.8332014836487,933.5842978250294,"[83, 0, 171]",171,l,0.21777943312190473,colour,0.06
059,67,1,2,14,7,657,934.1005907251092,934.8643173683085,"[93, 0, 161]",161,l,0.23108566508744843,colour,0.06
059,67,1,2,14,8,658,935.3673069236102,936.2165254174906,"[72, 0, 182]",182,l,0.3166660571587272,colour,0.06
059,67,1,2,14,9,659,936.7330890745798,937.4803094842646,"[53, 0, 201]",201,a,0.2137928246811498,colour,0.06
059,67,1,2,14,10,660,937.9835749294434,938.760413077689,"[99, 0, 155]",155,l,0.2438940120919142,colour,0.06
059,67,1,2,14,11,661,939.2669853515399,940.0884316816519,"[87, 0, 167]",167,l,0.2885602591559291,colour,0.06
059,67,1,2,14,12,662,940.6004402688995,941.2963323330623,"[51, 0, 203]",203,a,0.16315580782247707,colour,0.06
059,67,1,2,14,13,663,941.7999150515825,942.5843921408523,"[55, 0, 199]",199,a,0.25121824617963284,colour,0.06
059,67,1,2,14,14,664,943.1005888002983,943.8723008508387,"[86, 0, 168]",168,l,0.23913555368199013,colour,0.06
059,67,1,2,14,15,665,944.3835529865755,945.2163031015953,"[76, 0, 178]",178,l,0.2998059788660612,colour,0.06
059,67,1,2,14,16,666,945.7332828390645,946.4964259431581,"[57, 0, 197]",197,a,0.2298884314368479,colour,0.06
059,67,1,2,14,17,667,947.0005594789691,947.6964236333733,"[66, 0, 188]",188,a,0.16327225902932696,colour,0.06
059,67,1,2,14,18,668,948.1997628630488,949.0004577846848,"[94, 0, 160]",160,l,0.2672946048260201,colour,0.06
059,67,1,2,14,19,669,949.5169261635456,950.2163505803037,"[79, 0, 175]",175,l,0.16653513777418993,colour,0.06
059,67,1,2,14,20,670,950.7343026691524,951.6242976838839,"[56, 0, 198]",198,a,0.35781214211601764,colour,0.06
059,67,1,2,14,21,671,952.1338085054886,952.9123282986693,"[25, 0, 229]",229,a,0.24579540648846887,colour,0.06
059,67,1,2,14,22,672,953.4170736042142,954.192392112629,"[73, 0, 181]",181,l,0.2425870641018264,colour,0.06
059,67,1,2,14,23,673,954.7004788934719,955.5364671854768,"[89, 0, 165]",165,l,0.3033190832938999,colour,0.06
059,67,1,2,14,24,674,956.0503165354894,956.8083155769273,"[77, 0, 177]",177,l,0.2251755268953275,colour,0.06
059,67,1,2,14,25,675,957.316734388005,958.056431345467,"[78, 0, 176]",176,l,0.20663733253604732,colour,0.06
059,67,1,2,14,26,676,958.5666277212731,959.248307287402,"[92, 0, 162]",162,l,0.14852177572902292,colour,0.06
059,67,1,2,14,27,677,959.7497845813632,960.5364514661778,"[63, 0, 191]",191,a,0.2533332948514726,colour,0.06
059,67,1,2,14,28,678,961.0498632420495,961.7843240666552,"[85, 0, 169]",169,l,0.20121353041031398,colour,0.06
059,67,1,2,14,29,679,962.2999827408348,963.1283089940844,"[67, 0, 187]",187,a,0.2951735956885386,colour,0.06
059,67,1,2,14,30,680,963.6342736686347,964.4724283376127,"[70, 0, 184]",184,a,0.30598013720009476,colour,0.06
059,67,1,2,14,31,681,964.984570378554,965.7524562217295,"[50, 0, 204]",204,a,0.23602056468371302,colour,0.06
059,67,1,2,14,32,682,966.2672573917662,967.0803073669667,"[81, 0, 173]",173,l,0.280508124968037,colour,0.06
059,67,1,2,14,33,683,967.5836883009179,968.3523074978439,"[88, 0, 166]",166,l,0.2358806949632708,colour,0.06
059,67,1,2,14,34,684,968.8661671135342,969.5443560313724,"[82, 0, 172]",172,l,0.1445919492689427,colour,0.06
059,67,1,2,14,35,685,970.0500785002951,970.8403361236851,"[97, 0, 157]",157,l,0.25723168268450536,colour,0.06
059,67,1,2,14,36,686,971.3504304844246,972.0804956778302,"[40, 0, 214]",214,a,0.19737224534037523,colour,0.06
059,67,1,2,14,37,687,972.5833325313288,973.360448815045,"[58, 0, 196]",196,a,0.24401752091944218,colour,0.06
059,67,1,2,14,38,688,973.8665321863955,974.6963671721751,"[80, 0, 174]",174,l,0.2966223382099997,colour,0.06
059,67,1,2,14,39,689,975.2005244473694,975.7683247005625,"[90, 0, 164]",164,l,0.03520162095082924,colour,0.06
059,67,1,2,14,40,690,976.2838059711503,977.032370541885,"[69, 0, 185]",185,l,0.21595567284384742,colour,0.06
059,67,1,2,14,41,691,977.5503575981711,978.1124639338232,"[74, 0, 180]",180,l,0.029396385070867836,colour,0.06
059,67,1,2,14,42,692,978.616588807985,979.2403257296828,"[75, 0, 179]",179,l,0.0905788105155807,colour,0.06
059,67,1,2,14,43,693,979.7497374234372,980.38446053589,"[54, 0, 200]",200,a,0.10138021921738982,colour,0.06
059,67,1,2,14,44,694,980.8998285633279,981.6163087477034,"[65, 0, 189]",189,a,0.1832531007239595,colour,0.06
059,67,1,2,14,45,695,982.1336962247442,982.744471776794,"[62, 0, 192]",192,a,0.07803127565421164,colour,0.06
059,67,1,2,14,46,696,983.2499716090097,983.8404108705872,"[64, 0, 190]",190,a,0.05733857396990061,colour,0.06
059,67,1,2,14,47,697,984.3504282388021,985.2723356899514,"[95, 0, 159]",159,l,0.38926198179251514,colour,0.06
059,67,1,2,14,48,698,985.7841482670628,986.6963450368494,"[71, 0, 183]",183,l,0.37996321040554903,colour,0.06
059,67,1,2,14,49,699,987.2002989234461,987.784362562903,"[52, 0, 202]",202,a,0.05130011492292397,colour,0.06
059,67,1,2,14,50,700,988.3004677937133,988.8404451964016,"[61, 0, 193]",193,a,0.007387432124232873,colour,0.06
059,67,1,2,15,1,701,993.2329761522124,993.856330356939,"[69, 0, 185]",185,a,0.0899519630766008,colour,0.06
059,67,1,2,15,2,702,994.3662691286299,994.944353336643,"[72, 0, 182]",182,a,0.04465983103727922,colour,0.06
059,67,1,2,15,3,703,995.4503821716062,997.3364598711778,"[3, 0, 251]",251,a,1.3534222853486426,colour,0.06
059,67,1,2,15,4,704,997.850072469213,998.7363368756196,"[52, 0, 202]",202,a,0.3532901148428209,colour,0.06
059,67,1,2,15,5,705,999.250816922693,999.9364102751715,"[89, 0, 165]",165,l,0.15335241463617422,colour,0.06
059,67,1,2,15,6,706,1000.4496674244001,1001.1763366061496,"[71, 0, 183]",183,l,0.19330960680963472,colour,0.06
059,67,1,2,15,7,707,1001.6837317375466,1002.368453149742,"[79, 0, 175]",175,l,0.15209069976117462,colour,0.06
059,67,1,2,15,8,708,1002.8837823601207,1003.4563686606998,"[74, 0, 180]",180,l,0.0400296934240032,colour,0.06
059,67,1,2,15,9,709,1003.9666417082481,1004.6163629632792,"[51, 0, 203]",203,a,0.11667606618721038,colour,0.06
059,67,1,2,15,10,710,1005.1337632724026,1005.7204693592212,"[85, 0, 169]",169,l,0.05411034182179719,colour,0.06
059,67,1,2,15,11,711,1006.2335596913472,1006.7923476494616,"[13, 0, 241]",241,a,0.02600358144263737,colour,0.06
059,67,1,2,15,12,712,1007.2999779288075,1007.8645557243144,"[55, 0, 199]",199,a,0.03154640115099028,colour,0.06
059,67,1,2,15,13,713,1008.366970081348,1008.9443440333707,"[92, 0, 162]",162,l,0.04464892373653129,colour,0.06
059,67,1,2,15,14,714,1009.4508521467797,1010.2244870854774,"[84, 0, 170]",170,l,0.24148542949114926,colour,0.06
059,67,1,2,15,15,715,1010.7335959419725,1012.0082542395685,"[61, 0, 193]",193,a,0.7419220412266441,colour,0.06
059,67,1,2,15,16,716,1012.5169678678212,1013.1364339503634,"[66, 0, 188]",188,a,0.08676864326116629,colour,0.06
059,67,1,2,15,17,717,1013.6497148389753,1014.4403394600085,"[88, 0, 166]",166,l,0.2573657779721543,colour,0.06
059,67,1,2,15,18,718,1014.9503982117167,1015.6003382538038,"[63, 0, 191]",191,a,0.11736129957716912,colour,0.06
059,67,1,2,15,19,719,1016.1167010887293,1016.896330536576,"[97, 0, 157]",157,l,0.24667793323169462,colour,0.06
059,67,1,2,15,20,720,1017.4004364834109,1018.136340596946,"[91, 0, 163]",163,l,0.20338151141186245,colour,0.06
059,67,1,2,15,21,721,1018.6496503577218,1019.304345008597,"[77, 0, 177]",177,l,0.12138993307598867,colour,0.06
059,67,1,2,15,22,722,1019.8166304480983,1020.6323928055645,"[93, 0, 161]",161,l,0.28277330900891684,colour,0.06
059,67,1,2,15,23,723,1021.1501880221476,1022.6562903208251,"[76, 0, 178]",178,l,0.9733313956821803,colour,0.06
059,67,1,2,15,24,724,1023.1669281204231,1024.024429726036,"[80, 0, 174]",174,l,0.32481282798107713,colour,0.06
059,67,1,2,15,25,725,1024.5333967879997,1025.3604112812027,"[96, 0, 158]",158,l,0.2941293846524786,colour,0.06
059,67,1,2,15,26,726,1025.8670849285263,1026.6403750049067,"[75, 0, 179]",179,l,0.24076651185168885,colour,0.06
059,67,1,2,15,27,727,1027.1499037914327,1027.9524211901298,"[78, 0, 176]",176,l,0.2694866459642071,colour,0.06
059,67,1,2,15,28,728,1028.4660138984327,1029.2483554077335,"[70, 0, 184]",184,a,0.24874454076052643,colour,0.06
059,67,1,2,15,29,729,1029.7495673982776,1030.592441387853,"[99, 0, 155]",155,l,0.30948714644182473,colour,0.06
059,67,1,2,15,30,730,1031.099831386382,1031.7844867133535,"[73, 0, 181]",181,a,0.15153924084734172,colour,0.06
059,67,1,2,15,31,731,1032.29958526697,1033.0963625526347,"[87, 0, 167]",167,l,0.2634199563181028,colour,0.06
059,67,1,2,15,32,732,1033.6011123494245,1034.3123932931921,"[94, 0, 160]",160,l,0.17946827685227618,colour,0.06
059,67,1,2,15,33,733,1034.8170279219921,1035.6083496461215,"[11, 0, 243]",243,a,0.25873624481027946,colour,0.06
059,67,1,2,15,34,734,1036.1170664824022,1036.9043733675207,"[95, 0, 159]",159,l,0.2547749797522556,colour,0.06
059,67,1,2,15,35,735,1037.4170052733389,1038.2965193607379,"[54, 0, 200]",200,a,0.3469414401333779,colour,0.06
059,67,1,2,15,36,736,1038.800289427716,1039.616431614937,"[57, 0, 197]",197,a,0.2835076251649298,colour,0.06
059,67,1,2,15,37,737,1040.1332865603908,1040.832477112359,"[81, 0, 173]",173,l,0.16622460127109662,colour,0.06
059,67,1,2,15,38,738,1041.3510881288385,1042.1363409177284,"[82, 0, 172]",172,l,0.25344172594486736,colour,0.06
059,67,1,2,15,39,739,1042.6503532352508,1043.4803688326501,"[53, 0, 201]",201,a,0.29746572708245367,colour,0.06
059,67,1,2,15,40,740,1043.9836878518108,1044.7203679857485,"[65, 0, 189]",189,a,0.20409850424039178,colour,0.06
059,67,1,2,15,41,741,1045.2342340174655,1046.00037726335,"[98, 0, 156]",156,l,0.23414034326560795,colour,0.06
059,67,1,2,15,42,742,1046.5166566897242,1047.2723488428455,"[86, 0, 168]",168,l,0.22279196686577052,colour,0.06
059,67,1,2,15,43,743,1047.783721279382,1048.4803556797851,"[58, 0, 196]",196,a,0.16410538222407922,colour,0.06
059,67,1,2,15,44,744,1048.9834658566979,1049.6404186339932,"[59, 0, 195]",195,a,0.12420400965493172,colour,0.06
059,67,1,2,15,45,745,1050.1500786286197,1050.9604855148355,"[90, 0, 164]",164,l,0.27757984286290593,colour,0.06
059,67,1,2,15,46,746,1051.4666911117965,1052.2723523716559,"[67, 0, 187]",187,a,0.2727796801191289,colour,0.06
059,67,1,2,15,47,747,1052.7831104720826,1053.4883545608027,"[62, 0, 192]",192,a,0.17213249384076335,colour,0.06
059,67,1,2,15,48,748,1053.9995848819963,1054.7444313557062,"[50, 0, 204]",204,a,0.21154079350526445,colour,0.06
059,67,1,2,15,49,749,1055.250491308514,1056.8164793502947,"[64, 0, 190]",190,a,1.033562642725883,colour,0.06
059,67,1,2,15,50,750,1057.3332444711414,1058.24058205061,"[56, 0, 198]",198,a,0.3743725911772344,colour,0.06
059,67,1,2,16,1,751,1062.816826137423,1063.8483991651447,"[97, 0, 157]",157,l,0.4988710971956607,colour,0.06
059,67,1,2,16,2,752,1064.3511109057872,1065.1764411876502,"[74, 0, 180]",180,l,0.2935737552761566,colour,0.06
059,67,1,2,16,3,753,1065.682828037854,1066.4244183696574,"[73, 0, 181]",181,l,0.2082220951851923,colour,0.06
059,67,1,2,16,4,754,1066.933025170787,1067.488373808941,"[96, 0, 158]",158,l,0.022204642271390185,colour,0.06
059,67,1,2,16,5,755,1068.00010811034,1068.600397281407,"[87, 0, 167]",167,l,0.06754714029375464,colour,0.06
059,67,1,2,16,6,756,1069.1161785020377,1069.816345896601,"[78, 0, 176]",176,l,0.1668206517060753,colour,0.06
059,67,1,2,16,7,757,1070.3328412228147,1070.9605307479214,"[56, 0, 198]",198,a,0.09435818073689006,colour,0.06
059,67,1,2,16,8,758,1071.46711136261,1072.2563834817847,"[99, 0, 155]",155,l,0.2568983692617621,colour,0.06
059,67,1,2,16,9,759,1072.7671146348002,1073.5284676628362,"[69, 0, 185]",185,a,0.22898376933881082,colour,0.06
059,67,1,2,16,10,760,1074.0332501814119,1074.7524372944026,"[65, 0, 189]",189,a,0.18624105202616192,colour,0.06
059,67,1,2,16,11,761,1075.266823667247,1076.0643731237215,"[95, 0, 159]",159,l,0.264876718953019,colour,0.06
059,67,1,2,16,12,762,1076.5662847837666,1077.2725406825193,"[98, 0, 156]",156,l,0.1730624993215315,colour,0.06
059,67,1,2,16,13,763,1077.7863319673634,1078.336454738339,"[90, 0, 164]",164,l,0.02028111252002418,colour,0.06
059,67,1,2,16,14,764,1078.8504048202594,1079.6884841007122,"[54, 0, 200]",200,a,0.3056099314999301,colour,0.06
059,67,1,2,16,15,765,1080.1997015898232,1081.6083313603885,"[63, 0, 191]",191,a,0.8755242709012236,colour,0.06
059,67,1,2,16,16,766,1082.116539083654,1082.9764502342732,"[50, 0, 204]",204,a,0.32695642800536007,colour,0.06
059,67,1,2,16,17,767,1083.483460082265,1084.2004740814446,"[57, 0, 197]",197,a,0.18435473533463664,colour,0.06
059,67,1,2,16,18,768,1084.7160660287773,1086.136339313729,"[66, 0, 188]",188,a,0.8868867626006249,colour,0.06
059,67,1,2,16,19,769,1086.6497016860812,1087.5444971843099,"[89, 0, 165]",165,l,0.36167941213352606,colour,0.06
059,67,1,2,16,20,770,1088.0509571774164,1088.968468676554,"[88, 0, 166]",166,l,0.3856612983508967,colour,0.06
059,67,1,2,16,21,771,1089.4831139367307,1090.1443481396418,"[52, 0, 202]",202,a,0.12824419204844162,colour,0.06
059,67,1,2,16,22,772,1090.650909506192,1091.432371375995,"[67, 0, 187]",187,a,0.24955456622410566,colour,0.06
059,67,1,2,16,23,773,1091.9495564268436,1092.7285269470594,"[64, 0, 190]",190,a,0.245743757346645,colour,0.06
059,67,1,2,16,24,774,1093.23333352583,1093.8403884144209,"[39, 0, 215]",215,a,0.07427756956894882,colour,0.06
059,67,1,2,16,25,775,1094.3499232962204,1095.048452674935,"[62, 0, 192]",192,a,0.16567955841310322,colour,0.06
059,67,1,2,16,26,776,1095.5499482546002,1096.42447900126,"[79, 0, 175]",175,l,0.3416719438682776,colour,0.06
059,67,1,2,16,27,777,1096.9326880077133,1097.5845320106018,"[82, 0, 172]",172,l,0.11842507953406312,colour,0.06
059,67,1,2,16,28,778,1098.0994791456033,1099.7043763188994,"[75, 0, 179]",179,l,1.0716113828239031,colour,0.06
059,67,1,2,16,29,779,1100.2169119840837,1101.080407778034,"[72, 0, 182]",182,l,0.3309674173942767,colour,0.06
059,67,1,2,16,30,780,1101.5835384863312,1102.3764000608353,"[60, 0, 194]",194,a,0.26032261148793623,colour,0.06
059,67,1,2,16,31,781,1102.8833101393539,1103.720415464457,"[92, 0, 162]",162,l,0.3043260812701192,colour,0.06
059,67,1,2,16,32,782,1104.234253907227,1105.0805187755905,"[71, 0, 183]",183,l,0.3144361613376532,colour,0.06
059,67,1,2,16,33,783,1105.5833508170617,1106.2725432489533,"[86, 0, 168]",168,l,0.15647766928304918,colour,0.06
059,67,1,2,16,34,784,1106.7833016701625,1107.7764461280312,"[68, 0, 186]",186,a,0.4603745172789786,colour,0.06
059,67,1,2,16,35,785,1108.2844231945055,1109.14451078634,"[91, 0, 163]",163,l,0.328437571588438,colour,0.06
059,67,1,2,16,36,786,1109.649582989281,1110.5123941914353,"[77, 0, 177]",177,l,0.3296688102709595,colour,0.06
059,67,1,2,16,37,787,1111.0161196669214,1111.7843747533916,"[93, 0, 161]",161,l,0.2349927145987749,colour,0.06
059,67,1,2,16,38,788,1112.3002425906016,1112.9765445501253,"[76, 0, 178]",178,l,0.1437886606727261,colour,0.06
059,67,1,2,16,39,789,1113.482978558226,1114.200459966145,"[81, 0, 173]",173,l,0.1843864947441034,colour,0.06
059,67,1,2,16,40,790,1114.7168154226383,1115.5525396944722,"[61, 0, 193]",193,a,0.3031240355921909,colour,0.06
059,67,1,2,16,41,791,1116.0668009544606,1116.8083771709644,"[55, 0, 199]",199,a,0.20899202037253417,colour,0.06
059,67,1,2,16,42,792,1117.318622950319,1118.096446602809,"[47, 0, 207]",207,a,0.24707765274797566,colour,0.06
059,67,1,2,16,43,793,1118.601003918273,1119.3764414442994,"[51, 0, 203]",203,a,0.24371468368917704,colour,0.06
059,67,1,2,16,44,794,1119.8834259489086,1120.7125262977497,"[84, 0, 170]",170,l,0.2964824684604537,colour,0.06
059,67,1,2,16,45,795,1121.216789758444,1122.0244050242763,"[83, 0, 171]",171,l,0.27500508472439833,colour,0.06
059,67,1,2,16,46,796,1122.5334853293898,1123.3123968220025,"[59, 0, 195]",195,a,0.24634686540230177,colour,0.06
059,67,1,2,16,47,797,1123.8168040020682,1124.5365332707297,"[58, 0, 196]",196,a,0.18716881188447587,colour,0.06
059,67,1,2,16,48,798,1125.0499059087306,1125.800400104461,"[85, 0, 169]",169,l,0.21771238546352834,colour,0.06
059,67,1,2,16,49,799,1126.316935530951,1127.120380368695,"[32, 0, 222]",222,a,0.2710345163650345,colour,0.06
059,67,1,2,16,50,800,1127.6334440742503,1128.392442735203,"[80, 0, 174]",174,l,0.22642954252660275,colour,0.06
