id,age,condition,counterbalance,block,trialinblock,trial,tstart,tend,trialstim,trialintensity,response,RT,trialtype,colourfreq
027,62,1,2,Practice,1,NA,6.3015613704919815e-06,1.3328632125630975,"[33, 0, 221]",221,a,0.7985328452195972,colour,0.5
027,62,1,2,Practice,2,NA,1.8447215193882585,4.340911060106009,"[68, 0, 186]",186,a,1.9790741784963757,colour,0.5
027,62,1,2,Practice,3,NA,4.860846359166317,5.596858527394943,"[86, 0, 168]",168,a,0.21252910525072366,colour,0.5
027,62,1,2,Practice,4,NA,6.110890076030046,8.716861016466282,"[27, 0, 227]",227,a,2.083261784631759,colour,0.5
027,62,1,2,Practice,5,NA,9.225730032776482,9.84487236244604,"[52, 0, 202]",202,a,0.09651115536689758,colour,0.5
027,62,1,2,Practice,6,NA,10.365998257650062,11.460867075365968,"[35, 0, 219]",219,a,0.5720210281433538,colour,0.5
027,62,1,2,Practice,7,NA,11.974943128647283,13.108920846367255,"[42, 0, 212]",212,a,0.6109097682638094,colour,0.5
027,62,1,2,Practice,8,NA,13.603487741900608,14.484878285788,"[58, 0, 196]",196,a,0.362942407024093,colour,0.5
027,62,1,2,Practice,9,NA,15.004712366382591,17.740908066858537,"[97, 0, 157]",157,l,2.2129138925811276,colour,0.5
027,62,1,2,Practice,10,NA,18.25471945561003,19.012913813930936,"[10, 0, 244]",244,a,0.23893253575079143,colour,0.5
027,62,1,2,1,1,1,4.423490703688003,5.2959334620973095,"[33, 0, 221]",221,a,0.35438295372296125,colour,0.5
027,62,1,2,1,2,2,5.8182302612112835,6.959950595977716,"[93, 0, 161]",161,l,0.6238763575674966,colour,0.5
027,62,1,2,1,3,3,7.475946254213341,8.103931606281549,"[18, 0, 236]",236,a,0.11069394077640027,colour,0.5
027,62,1,2,1,4,4,8.620026119868271,9.327949590864591,"[30, 0, 224]",224,a,0.18997866928111762,colour,0.5
027,62,1,2,1,5,5,9.852020272053778,17.07235816027969,"[69, 0, 185]",185,a,6.707010929938406,colour,0.5
027,62,1,2,1,6,6,17.59143920755014,18.23192837985698,"[32, 0, 222]",222,a,0.11744800442829728,colour,0.5
027,62,1,2,1,7,7,18.74780509667471,19.50391049613245,"[26, 0, 228]",228,a,0.2328196532325819,colour,0.5
027,62,1,2,1,8,8,20.01337382593192,27.768020420102403,"[65, 0, 189]",189,a,7.240673334687017,colour,0.5
027,62,1,2,1,9,9,28.27653103659395,34.67993559828028,"[74, 0, 180]",180,l,5.880032956949435,colour,0.5
027,62,1,2,1,10,10,35.19798122451175,35.832299619098194,"[40, 0, 214]",214,a,0.11527082428801805,colour,0.5
027,62,1,2,1,11,11,36.34993013169151,37.175952240708284,"[3, 0, 251]",251,a,0.30313847947400063,colour,0.5
027,62,1,2,1,12,12,37.69371351017617,38.51989827747457,"[90, 0, 164]",164,l,0.30287263344507664,colour,0.5
027,62,1,2,1,13,13,39.0374299348332,39.71286269265693,"[44, 0, 210]",210,a,0.15207296854350716,colour,0.5
027,62,1,2,1,14,14,40.21748683764599,41.501453291391954,"[4, 0, 250]",250,a,0.7633813089923933,colour,0.5
027,62,1,2,1,15,15,42.01486374507658,42.87193706026301,"[53, 0, 201]",201,a,0.33376551361288875,colour,0.5
027,62,1,2,1,16,16,43.38981924043037,44.18388154054992,"[85, 0, 169]",169,l,0.2711006890749559,colour,0.5
027,62,1,2,1,17,17,44.70230447128415,45.79989949055016,"[77, 0, 177]",177,l,0.57455818366725,colour,0.5
027,62,1,2,1,18,18,46.3153551860014,47.09592038637493,"[5, 0, 249]",249,a,0.2572510972386226,colour,0.5
027,62,1,2,1,19,19,47.61223505984526,48.27199432544876,"[8, 0, 246]",246,a,0.13646485470235348,colour,0.5
027,62,1,2,1,20,20,48.784085789113306,49.50389316689689,"[41, 0, 213]",213,a,0.19672446220647544,colour,0.5
027,62,1,2,1,21,21,50.01839142292738,50.91195535042789,"[21, 0, 233]",233,a,0.36769455194007605,colour,0.5
027,62,1,2,1,22,22,51.42316381155979,52.383887920877896,"[1, 0, 253]",253,a,0.43194342486094683,colour,0.5
027,62,1,2,1,23,23,52.90288980503101,53.51204577751923,"[92, 0, 162]",162,l,0.07663611473981291,colour,0.5
027,62,1,2,1,24,24,54.02944431488868,55.39991705608554,"[36, 0, 218]",218,a,0.8533554098103195,colour,0.5
027,62,1,2,1,25,25,55.91956996754743,56.903946493635885,"[55, 0, 199]",199,a,0.46669363195542246,colour,0.5
027,62,1,2,1,26,26,57.421517141745426,58.28790176217444,"[20, 0, 234]",234,a,0.34787425596732646,colour,0.5
027,62,1,2,1,27,27,58.79931108467281,59.66404903540388,"[29, 0, 225]",225,a,0.33161905338056386,colour,0.5
027,62,1,2,1,28,28,60.17799472564366,60.86392111424357,"[81, 0, 173]",173,l,0.16358154034242034,colour,0.5
027,62,1,2,1,29,29,61.387857493944466,62.15238174377009,"[47, 0, 207]",207,a,0.24131687893532217,colour,0.5
027,62,1,2,1,30,30,62.67619327432476,63.55195694160648,"[63, 0, 191]",191,a,0.3571950135519728,colour,0.5
027,62,1,2,1,31,31,64.0665965883527,64.94393603305798,"[38, 0, 216]",216,a,0.35927767073735595,colour,0.5
027,62,1,2,1,32,32,65.4595437530661,66.37591372255702,"[78, 0, 176]",176,l,0.3989757642848417,colour,0.5
027,62,1,2,1,33,33,66.89836924162228,67.55190810468048,"[9, 0, 245]",245,a,0.11971143691334873,colour,0.5
027,62,1,2,1,34,34,68.07492761116009,68.97589269117452,"[23, 0, 231]",231,a,0.3831817551981658,colour,0.5
027,62,1,2,1,35,35,69.4988097975729,70.27988857310265,"[28, 0, 226]",226,a,0.26236715575214475,colour,0.5
027,62,1,2,1,36,36,70.79136681859381,71.80790795350913,"[52, 0, 202]",202,a,0.4943936032941565,colour,0.5
027,62,1,2,1,37,37,72.32884283340536,73.05591430538334,"[17, 0, 237]",237,a,0.20394247642252594,colour,0.5
027,62,1,2,1,38,38,73.5632457472384,74.4079310328234,"[79, 0, 175]",175,l,0.32141174853313714,colour,0.5
027,62,1,2,1,39,39,74.92261282110121,75.52789098653011,"[37, 0, 217]",217,a,0.0820609483635053,colour,0.5
027,62,1,2,1,40,40,76.03553908050526,76.93593938555568,"[88, 0, 166]",166,l,0.3769790758378804,colour,0.5
027,62,1,2,1,41,41,77.44176988059189,78.08788514195476,"[84, 0, 170]",170,l,0.12270427215844393,colour,0.5
027,62,1,2,1,42,42,78.59809638513252,79.44790481845848,"[59, 0, 195]",195,a,0.32680901302956045,colour,0.5
027,62,1,2,1,43,43,79.95749299740419,80.63188560819253,"[50, 0, 204]",204,a,0.15384921373333782,colour,0.5
027,62,1,2,1,44,44,81.13579413515981,81.87197644484695,"[99, 0, 155]",155,l,0.21884284913539886,colour,0.5
027,62,1,2,1,45,45,82.38236925099045,82.95993405440822,"[61, 0, 193]",193,a,0.05424006644170731,colour,0.5
027,62,1,2,1,46,46,83.47601005726028,84.11990757228341,"[98, 0, 156]",156,l,0.12891994847450405,colour,0.5
027,62,1,2,1,47,47,84.63968336360995,85.44788000616245,"[96, 0, 158]",158,l,0.2850030562840402,colour,0.5
027,62,1,2,1,48,48,85.95561474619899,86.66388755850494,"[95, 0, 159]",159,l,0.18564754561521113,colour,0.5
027,62,1,2,1,49,49,87.17360806977376,87.89589313231409,"[94, 0, 160]",160,l,0.19883783953264356,colour,0.5
027,62,1,2,1,50,50,88.40799404820427,89.10391860932577,"[10, 0, 244]",244,a,0.17288299940992147,colour,0.5
027,62,1,2,2,1,51,94.35416594462004,96.19190851435997,"[76, 0, 178]",178,l,1.3179955291561782,colour,0.5
027,62,1,2,2,2,52,96.70904435648117,97.63185134367086,"[10, 0, 244]",244,a,0.40427220426499844,colour,0.5
027,62,1,2,2,3,53,98.14899703196716,98.80795797193423,"[1, 0, 253]",253,a,0.12540132901631296,colour,0.5
027,62,1,2,2,4,54,99.32431242382154,99.94388404546771,"[87, 0, 167]",167,l,0.10158901079557836,colour,0.5
027,62,1,2,2,5,55,100.46834896632936,101.25597070413642,"[75, 0, 179]",179,l,0.26853557059075683,colour,0.5
027,62,1,2,2,6,56,101.77919579809532,102.39193773770239,"[19, 0, 235]",235,a,0.0904482911573723,colour,0.5
027,62,1,2,2,7,57,102.91019328380935,103.575871265959,"[40, 0, 214]",214,a,0.1483838139101863,colour,0.5
027,62,1,2,2,8,58,104.09856900025625,104.72789736685809,"[45, 0, 209]",209,a,0.09741030551958829,colour,0.5
027,62,1,2,2,9,59,105.24219712463673,105.89598726143595,"[60, 0, 194]",194,a,0.13720292202197015,colour,0.5
027,62,1,2,2,10,60,106.41668937844224,107.17593333602417,"[34, 0, 220]",220,a,0.24209196772426367,colour,0.5
027,62,1,2,2,11,61,107.68566802563146,108.33588676771615,"[20, 0, 234]",234,a,0.13244762632530183,colour,0.5
027,62,1,2,2,12,62,108.84560727886856,109.56792306143325,"[93, 0, 161]",161,l,0.2042071409523487,colour,0.5
027,62,1,2,2,13,63,110.08420937787741,110.751898337272,"[21, 0, 233]",233,a,0.15084653231315315,colour,0.5
027,62,1,2,2,14,64,111.26331593061332,111.95188738836441,"[37, 0, 217]",217,a,0.16817338985856622,colour,0.5
027,62,1,2,2,15,65,112.46083871845622,113.08789735112805,"[14, 0, 240]",240,a,0.09565808495972306,colour,0.5
027,62,1,2,2,16,66,113.60131646937225,114.27185293473303,"[44, 0, 210]",210,a,0.13858256419189274,colour,0.5
027,62,1,2,2,17,67,114.7903018592624,115.40789164823946,"[46, 0, 208]",208,a,0.10045040224213153,colour,0.5
027,62,1,2,2,18,68,115.91659485537093,116.59186731802765,"[8, 0, 246]",246,a,0.15702873189002275,colour,0.5
027,62,1,2,2,19,69,117.1087180157192,117.8158730934374,"[77, 0, 177]",177,l,0.1901901646051556,colour,0.5
027,62,1,2,2,20,70,118.33008659887128,118.95189290225971,"[33, 0, 221]",221,a,0.10452513210475445,colour,0.5
027,62,1,2,2,21,71,119.47461820580065,120.13592095358763,"[96, 0, 158]",158,l,0.14392350881826133,colour,0.5
027,62,1,2,2,22,72,120.6452598280739,121.7359018913703,"[71, 0, 183]",183,a,0.56448872492183,colour,0.5
027,62,1,2,2,23,73,122.25310665660072,122.86394907732029,"[16, 0, 238]",238,a,0.08216452994383872,colour,0.5
027,62,1,2,2,24,74,123.3834810780827,124.07225182186812,"[99, 0, 155]",155,l,0.16567798203323036,colour,0.5
027,62,1,2,2,25,75,124.58650156122167,125.27188050397672,"[59, 0, 195]",195,a,0.1619577135425061,colour,0.5
027,62,1,2,2,26,76,125.78971699811518,126.35190763208084,"[62, 0, 192]",192,a,0.038987989304587245,colour,0.5
027,62,1,2,2,27,77,126.86156000790652,127.44791348301806,"[47, 0, 207]",207,a,0.06303582736290991,colour,0.5
027,62,1,2,2,28,78,127.95523941109423,128.61588719300926,"[81, 0, 173]",173,l,0.13723206659778953,colour,0.5
027,62,1,2,2,29,79,129.12716260796878,129.68786962435115,"[41, 0, 213]",213,a,0.03749137476552278,colour,0.5
027,62,1,2,2,30,80,130.20526619255543,131.3438538768096,"[57, 0, 197]",197,a,0.6152936671860516,colour,0.5
027,62,1,2,2,31,81,131.8460255432874,132.5278594789561,"[97, 0, 157]",157,l,0.14903287205379456,colour,0.5
027,62,1,2,2,32,82,133.03396527224686,137.2318941153353,"[55, 0, 199]",199,l,3.674840413616039,colour,0.5
027,62,1,2,2,33,83,137.74709459859878,139.09585697716102,"[67, 0, 187]",187,a,0.8256223553325981,colour,0.5
027,62,1,2,2,34,84,139.59403937822208,140.34386884304695,"[39, 0, 215]",215,a,0.22645116469357163,colour,0.5
027,62,1,2,2,35,85,140.8630644993391,141.50391601002775,"[53, 0, 201]",201,a,0.11748660146258771,colour,0.5
027,62,1,2,2,36,86,142.01255817105994,143.21593941701576,"[66, 0, 188]",188,a,0.6858936994103715,colour,0.5
027,62,1,2,2,37,87,143.72637633397244,144.5838667319622,"[17, 0, 237]",237,a,0.3252159063704312,colour,0.5
027,62,1,2,2,38,88,145.10125975555275,146.247963816626,"[64, 0, 190]",190,a,0.6150404243962839,colour,0.5
027,62,1,2,2,39,89,146.7695205792552,147.64788874948863,"[12, 0, 242]",242,a,0.35914730781223625,colour,0.5
027,62,1,2,2,40,90,148.1640494292369,149.09588021412492,"[74, 0, 180]",180,l,0.41341651882976294,colour,0.5
027,62,1,2,2,41,91,149.60502925491892,150.28789034066722,"[50, 0, 204]",204,a,0.1645149551331997,colour,0.5
027,62,1,2,2,42,92,150.79730443970766,151.39984025608283,"[0, 0, 254]",254,a,0.07275003707036376,colour,0.5
027,62,1,2,2,43,93,151.9017838856671,152.48213396745268,"[7, 0, 247]",247,a,0.0626549783628434,colour,0.5
027,62,1,2,2,44,94,153.00139539607335,153.69587690581102,"[35, 0, 219]",219,a,0.17128398502245545,colour,0.5
027,62,1,2,2,45,95,154.2045489992015,154.83187977934722,"[30, 0, 224]",224,a,0.10422147694043815,colour,0.5
027,62,1,2,2,46,96,155.34508937154897,156.06386329769157,"[94, 0, 160]",160,l,0.19531528162769973,colour,0.5
027,62,1,2,2,47,97,156.57947141153272,157.1998720788397,"[61, 0, 193]",193,a,0.09363608004059643,colour,0.5
027,62,1,2,2,48,98,157.7079534032382,158.3039198697079,"[65, 0, 189]",189,a,0.07267678168136626,colour,0.5
027,62,1,2,2,49,99,158.81729172635823,159.41586269589607,"[51, 0, 203]",203,a,0.07552743854466826,colour,0.5
027,62,1,2,2,50,100,159.9300758074969,160.56784311064985,"[25, 0, 229]",229,a,0.12095795932691544,colour,0.5
027,62,1,2,3,1,101,165.7006192045519,167.159929407062,"[42, 0, 212]",212,a,0.940982976462692,colour,0.5
027,62,1,2,3,2,102,167.67965439229738,168.46387960284483,"[94, 0, 160]",160,l,0.2662796211661771,colour,0.5
027,62,1,2,3,3,103,168.97891821549274,169.76784752169624,"[82, 0, 172]",172,l,0.27038310177158564,colour,0.5
027,62,1,2,3,4,104,170.27951835794374,170.91187106748112,"[33, 0, 221]",221,a,0.11003109812736511,colour,0.5
027,62,1,2,3,5,105,171.43428759567905,172.34386569226626,"[59, 0, 195]",195,a,0.39066167699638754,colour,0.5
027,62,1,2,3,6,106,172.87061137484852,173.50387859460898,"[6, 0, 248]",248,a,0.11607820831704885,colour,0.5
027,62,1,2,3,7,107,174.01411307475064,174.57594452123158,"[44, 0, 210]",210,a,0.030564018874429166,colour,0.5
027,62,1,2,3,8,108,175.09509724844247,177.8158207118977,"[35, 0, 219]",219,a,2.2030283600324765,colour,0.5
027,62,1,2,3,9,109,178.33878389827441,179.22384784312453,"[53, 0, 201]",201,a,0.36386282509192824,colour,0.5
027,62,1,2,3,10,110,179.73525125789456,180.35198088746984,"[29, 0, 225]",225,a,0.09866746177431196,colour,0.5
027,62,1,2,3,11,111,180.8641928678844,181.47181559819728,"[2, 0, 252]",252,a,0.085633524809964,colour,0.5
027,62,1,2,3,12,112,181.99044490407687,183.16785083001014,"[64, 0, 190]",190,a,0.6593157950555906,colour,0.5
027,62,1,2,3,13,113,183.67996671213768,184.5680215228349,"[28, 0, 226]",226,a,0.3647733967518434,colour,0.5
027,62,1,2,3,14,114,185.0862006628886,188.5678671352798,"[71, 0, 183]",183,a,2.955611595418304,colour,0.5
027,62,1,2,3,15,115,189.07594609668013,189.94384308543522,"[76, 0, 178]",178,l,0.34442692261654884,colour,0.5
027,62,1,2,3,16,116,190.45107173349243,191.15184532571584,"[25, 0, 229]",229,a,0.1777446335181594,colour,0.5
027,62,1,2,3,17,117,191.6623511656653,192.5838789412519,"[93, 0, 161]",161,l,0.40293037123046815,colour,0.5
027,62,1,2,3,18,118,193.09889668005053,193.7119466071017,"[40, 0, 214]",214,a,0.09553008514922112,colour,0.5
027,62,1,2,3,19,119,194.22635782323778,195.7678557925392,"[74, 0, 180]",180,l,1.023501967662014,colour,0.5
027,62,1,2,3,20,120,196.28783480846323,196.86385731119663,"[36, 0, 218]",218,a,0.04458887211512774,colour,0.5
027,62,1,2,3,21,121,197.3840501854429,198.99982316314708,"[70, 0, 184]",184,l,1.097783671459183,colour,0.5
027,62,1,2,3,22,122,199.52104161214083,200.37588063941803,"[31, 0, 223]",223,a,0.3368178193923086,colour,0.5
027,62,1,2,3,23,123,200.8850481909467,201.79984198894817,"[61, 0, 193]",193,a,0.39665207325015217,colour,0.5
027,62,1,2,3,24,124,202.31303661502898,203.27985588391311,"[97, 0, 157]",157,l,0.4347988077206537,colour,0.5
027,62,1,2,3,25,125,203.80051073932555,204.7838124600239,"[65, 0, 189]",189,a,0.4602050204994157,colour,0.5
027,62,1,2,3,26,126,205.3005390962353,206.19184431748,"[20, 0, 234]",234,a,0.37035891972482204,colour,0.5
027,62,1,2,3,27,127,206.7043867346365,207.7918256490957,"[78, 0, 176]",176,l,0.5765152040403336,colour,0.5
027,62,1,2,3,28,128,208.30153198190965,209.23982577829156,"[46, 0, 208]",208,a,0.4148572072153911,colour,0.5
027,62,1,2,3,29,129,209.75465171411633,210.6718991722446,"[16, 0, 238]",238,a,0.3939250841503963,colour,0.5
027,62,1,2,3,30,130,211.18979001708794,213.63980309281033,"[43, 0, 211]",211,a,1.9267482033465058,colour,0.5
027,62,1,2,3,31,131,214.14616212900728,216.7678313740762,"[72, 0, 182]",182,a,2.0982933080522344,colour,0.5
027,62,1,2,3,32,132,217.28073888644576,218.11979768925812,"[52, 0, 202]",202,a,0.31560173362959176,colour,0.5
027,62,1,2,3,33,133,218.64016700640786,219.6161010514479,"[77, 0, 177]",177,l,0.45270422496832907,colour,0.5
027,62,1,2,3,34,134,220.12471800635103,220.71183908719104,"[17, 0, 237]",237,a,0.06408857752103359,colour,0.5
027,62,1,2,3,35,135,221.21830997557845,221.75983984651975,"[34, 0, 220]",220,a,0.018138180137611926,colour,0.5
027,62,1,2,3,36,136,222.28677181829698,223.4318374802824,"[58, 0, 196]",196,a,0.6277250199345872,colour,0.5
027,62,1,2,3,37,137,223.93794484890532,224.8478360529989,"[79, 0, 175]",175,l,0.3865546516608447,colour,0.5
027,62,1,2,3,38,138,225.3597636766499,226.36780837341212,"[73, 0, 181]",181,l,0.4846975104883313,colour,0.5
027,62,1,2,3,39,139,226.87541432585567,227.79984868434258,"[19, 0, 235]",235,a,0.40460894245188683,colour,0.5
027,62,1,2,3,40,140,228.30930886336137,228.91177024284843,"[22, 0, 232]",232,a,0.07909765164367855,colour,0.5
027,62,1,2,3,41,141,229.41873658949044,230.40781366673764,"[63, 0, 191]",191,a,0.4658007832476869,colour,0.5
027,62,1,2,3,42,142,230.92307086393703,231.8238587132655,"[23, 0, 231]",231,a,0.37757614615838975,colour,0.5
027,62,1,2,3,43,143,232.34452617180068,233.21101831225678,"[56, 0, 198]",198,a,0.34727521636523306,colour,0.5
027,62,1,2,3,44,144,233.7237631662283,234.46383982442785,"[37, 0, 217]",217,a,0.21704297326505184,colour,0.5
027,62,1,2,3,45,145,234.97366785549093,235.5918511702912,"[41, 0, 213]",213,a,0.09472860861569643,colour,0.5
027,62,1,2,3,46,146,236.09875016938895,236.7118343609618,"[30, 0, 224]",224,a,0.08975472848396748,colour,0.5
027,62,1,2,3,47,147,237.22366155404598,237.94376589171588,"[86, 0, 168]",168,l,0.19267730158753693,colour,0.5
027,62,1,2,3,48,148,238.46207303158008,239.0717835391406,"[15, 0, 239]",239,a,0.0863306320970878,colour,0.5
027,62,1,2,3,49,149,239.5871132039465,240.2478204566287,"[92, 0, 162]",162,l,0.13735770341008902,colour,0.5
027,62,1,2,3,50,150,240.75896550854668,241.39177311002277,"[98, 0, 156]",156,l,0.10948207683395594,colour,0.5
027,62,1,2,4,1,151,246.43664948968217,248.1038000617409,"[23, 0, 231]",231,a,1.148011235636659,colour,0.5
027,62,1,2,4,2,152,248.6211422792403,249.3118030896876,"[96, 0, 158]",158,l,0.17165892629418522,colour,0.5
027,62,1,2,4,3,153,249.8288644949207,250.39178492547944,"[29, 0, 225]",225,a,0.04547463159542531,colour,0.5
027,62,1,2,4,4,154,250.91086991108023,251.65589327400085,"[57, 0, 197]",197,a,0.2271199149545282,colour,0.5
027,62,1,2,4,5,155,252.1777875625994,252.85584412212484,"[87, 0, 167]",167,l,0.1636969371465966,colour,0.5
027,62,1,2,4,6,156,253.39231504208874,254.26380390569102,"[90, 0, 164]",164,l,0.3512057986808941,colour,0.5
027,62,1,2,4,7,157,254.78016780980397,255.53579941263888,"[56, 0, 198]",198,a,0.23260973335709423,colour,0.5
027,62,1,2,4,8,158,256.04587280983105,256.9518082253635,"[4, 0, 250]",250,a,0.38271859230007976,colour,0.5
027,62,1,2,4,9,159,257.46769518218935,259.1522194793215,"[67, 0, 187]",187,a,1.1562827876769006,colour,0.5
027,62,1,2,4,10,160,259.660122785368,260.5197943021776,"[0, 0, 254]",254,a,0.33634756749961525,colour,0.5
027,62,1,2,4,11,161,261.03076448640786,261.767973946291,"[81, 0, 173]",173,l,0.2143274056725204,colour,0.5
027,62,1,2,4,12,162,262.28068886802066,263.023808379774,"[74, 0, 180]",180,l,0.2257453928468749,colour,0.5
027,62,1,2,4,13,163,263.5475557134487,264.39181288855616,"[42, 0, 212]",212,a,0.32677750545553863,colour,0.5
027,62,1,2,4,14,164,264.9014636889333,265.7197975317249,"[95, 0, 159]",159,l,0.29506503185257316,colour,0.5
027,62,1,2,4,15,165,266.22956057824194,267.1357575075235,"[70, 0, 184]",184,a,0.3828359585022554,colour,0.5
027,62,1,2,4,16,166,267.65146762738004,268.2718167009298,"[47, 0, 207]",207,a,0.09152664127759635,colour,0.5
027,62,1,2,4,17,167,268.78821723279543,269.42381247575395,"[66, 0, 188]",188,a,0.11209524457808584,colour,0.5
027,62,1,2,4,18,168,269.9444551219931,270.70379281498026,"[14, 0, 240]",240,a,0.24821193946991116,colour,0.5
027,62,1,2,4,19,169,271.2149504699046,271.9278060734505,"[78, 0, 176]",176,l,0.18952456500846893,colour,0.5
027,62,1,2,4,20,170,272.4492820976302,273.27178637485486,"[79, 0, 175]",175,l,0.30581623781472445,colour,0.5
027,62,1,2,4,21,171,273.78996905940585,274.3597951843403,"[1, 0, 253]",253,a,0.05212550761643797,colour,0.5
027,62,1,2,4,22,172,274.87228876468726,275.4398676047567,"[20, 0, 234]",234,a,0.036122366320341825,colour,0.5
027,62,1,2,4,23,173,275.95920189481694,276.52785238972865,"[3, 0, 251]",251,a,0.03651581844314933,colour,0.5
027,62,1,2,4,24,174,277.04053147137165,277.639781825128,"[44, 0, 210]",210,a,0.08240950212348253,colour,0.5
027,62,1,2,4,25,175,278.15308475878555,280.7437807790702,"[38, 0, 216]",216,a,2.0722561542643234,colour,0.5
027,62,1,2,4,26,176,281.2550538307987,282.0717748744646,"[98, 0, 156]",156,l,0.29893693106714636,colour,0.5
027,62,1,2,4,27,177,282.592002407182,283.22377222473733,"[83, 0, 171]",171,l,0.10784761630930007,colour,0.5
027,62,1,2,4,28,178,283.7424858136801,285.3998032346135,"[54, 0, 200]",200,a,1.1375609280075878,colour,0.5
027,62,1,2,4,29,179,285.9190363063244,286.8158029888291,"[91, 0, 163]",163,l,0.3734470655908808,colour,0.5
027,62,1,2,4,30,180,287.32524859555997,288.00781823531725,"[58, 0, 196]",196,a,0.1592299366602674,colour,0.5
027,62,1,2,4,31,181,288.52381153055467,289.43975890323054,"[28, 0, 226]",226,a,0.39253402035683393,colour,0.5
027,62,1,2,4,32,182,289.96131921058986,290.6559748001164,"[2, 0, 252]",252,a,0.1712737448979169,colour,0.5
027,62,1,2,4,33,183,291.170427370118,291.88775706326123,"[18, 0, 236]",236,a,0.19406048848759383,colour,0.5
027,62,1,2,4,34,184,292.4047743577976,292.9837719727075,"[19, 0, 235]",235,a,0.05698359711095691,colour,0.5
027,62,1,2,4,35,185,293.50815733673517,294.11978469230235,"[16, 0, 238]",238,a,0.0827891695080325,colour,0.5
027,62,1,2,4,36,186,294.6337768563535,295.92777889803983,"[97, 0, 157]",157,l,0.7612970763584599,colour,0.5
027,62,1,2,4,37,187,296.4428612275515,301.42378254351206,"[17, 0, 237]",237,a,4.448996953200549,colour,0.5
027,62,1,2,4,38,188,301.94062378886156,302.81576911802404,"[33, 0, 221]",221,a,0.358368280576542,colour,0.5
027,62,1,2,4,39,189,303.3318132193526,304.2559903964866,"[99, 0, 155]",155,l,0.4064135445514694,colour,0.5
027,62,1,2,4,40,190,304.7759867415298,305.59175073960796,"[49, 0, 205]",205,a,0.2924943994730711,colour,0.5
027,62,1,2,4,41,191,306.1112520204624,306.91982360428665,"[15, 0, 239]",239,a,0.2854110805783421,colour,0.5
027,62,1,2,4,42,192,307.4394524911186,308.35975343664177,"[50, 0, 204]",204,a,0.3969750269316137,colour,0.5
027,62,1,2,4,43,193,308.8738543022191,309.9597839991329,"[94, 0, 160]",160,l,0.5625817229738459,colour,0.5
027,62,1,2,4,44,194,310.4675057422137,311.3837914286414,"[43, 0, 211]",211,a,0.38951085915323347,colour,0.5
027,62,1,2,4,45,195,311.89272542949766,313.2877457991708,"[80, 0, 174]",174,l,0.8723301184363663,colour,0.5
027,62,1,2,4,46,196,313.80864602071233,314.7117662256351,"[21, 0, 233]",233,a,0.3740736743202433,colour,0.5
027,62,1,2,4,47,197,315.22807262837887,316.30377138976473,"[59, 0, 195]",195,a,0.5442493769805878,colour,0.5
027,62,1,2,4,48,198,316.81805342435837,317.7037644580705,"[12, 0, 242]",242,a,0.3544798397924751,colour,0.5
027,62,1,2,4,49,199,318.221908151987,318.9677723759087,"[31, 0, 223]",223,a,0.22766617930028588,colour,0.5
027,62,1,2,4,50,200,319.49020111351274,320.1437836935511,"[92, 0, 162]",162,l,0.13482172961812466,colour,0.5
027,62,1,2,5,1,201,325.23701805074234,326.90373499842826,"[62, 0, 192]",192,a,1.142615546588786,colour,0.4
027,62,1,2,5,2,202,327.42562534858007,328.47977286111563,"[21, 0, 233]",233,a,0.5312642768258229,colour,0.4
027,62,1,2,5,3,203,328.99168394331355,329.81576793652494,"[78, 0, 176]",176,l,0.3008478714618832,colour,0.4
027,62,1,2,5,4,204,330.33550316176843,331.04776996560395,"[64, 0, 190]",190,a,0.18901059601921588,colour,0.4
027,62,1,2,5,5,205,331.5543066263199,332.43973212176934,"[98, 0, 156]",156,l,0.3622141859959811,colour,0.4
027,62,1,2,5,6,206,332.96046889713034,333.51972813601606,"[51, 0, 203]",203,a,0.046269018785096705,colour,0.4
027,62,1,2,5,7,207,334.03742520860396,334.6397719789529,"[39, 0, 215]",215,a,0.0837217967491597,colour,0.4
027,62,1,2,5,8,208,335.1582098758081,336.07976600830443,"[90, 0, 164]",164,l,0.39815853408072144,colour,0.4
027,62,1,2,5,9,209,336.5957340972964,337.7277288008481,"[91, 0, 163]",163,l,0.6086049820296466,colour,0.4
027,62,1,2,5,10,210,338.2363366972422,340.2957377206767,"[73, 0, 181]",181,a,1.5328101221239194,colour,0.4
027,62,1,2,5,11,211,340.80204988922924,341.71973609167617,"[96, 0, 158]",158,l,0.3943508316297084,colour,0.4
027,62,1,2,5,12,212,342.23965445533395,342.91203490737826,"[27, 0, 227]",227,a,0.1494527116883546,colour,0.4
027,62,1,2,5,13,213,343.41858338343445,344.09574591263663,"[43, 0, 211]",211,a,0.15933666890487075,colour,0.4
027,62,1,2,5,14,214,344.60518443014007,345.4878033795394,"[93, 0, 161]",161,l,0.36487107060384005,colour,0.4
027,62,1,2,5,15,215,345.99673541111406,346.8957131446805,"[85, 0, 169]",169,l,0.36721287842374295,colour,0.4
027,62,1,2,5,16,216,347.41694616596214,348.1677389778197,"[19, 0, 235]",235,a,0.2324277765583247,colour,0.4
027,62,1,2,5,17,217,348.6842860203469,349.3757325534243,"[38, 0, 216]",216,a,0.17336270376108587,colour,0.4
027,62,1,2,5,18,218,349.8906274122419,350.52777795284055,"[92, 0, 162]",162,l,0.11938887718133628,colour,0.4
027,62,1,2,5,19,219,351.0437929094769,351.7037624887889,"[10, 0, 244]",244,a,0.1404726308537647,colour,0.4
027,62,1,2,5,20,220,352.22127839236055,352.9678405113518,"[50, 0, 204]",204,a,0.22948732296936214,colour,0.4
027,62,1,2,5,21,221,353.4635381384287,354.5357474250486,"[72, 0, 182]",182,a,0.5543507371330634,colour,0.4
027,62,1,2,5,22,222,355.0552270442713,355.89572259702254,"[88, 0, 166]",166,l,0.3171066188951954,colour,0.4
027,62,1,2,5,23,223,356.4147492934717,357.05574967782013,"[60, 0, 194]",194,a,0.11821876093745232,colour,0.4
027,62,1,2,5,24,224,357.5709387395764,358.55179467704147,"[86, 0, 168]",168,l,0.45754025888163596,colour,0.4
027,62,1,2,5,25,225,359.0642937712837,360.00776664156,"[69, 0, 185]",185,a,0.4202387179248035,colour,0.4
027,62,1,2,5,26,226,360.51720830984414,361.39175499312114,"[55, 0, 199]",199,a,0.3512719647260383,colour,0.4
027,62,1,2,5,27,227,361.9080444604624,362.59171489963774,"[59, 0, 195]",195,a,0.16051151126157492,colour,0.4
027,62,1,2,5,28,228,363.1111263835337,363.79973525670357,"[67, 0, 187]",187,a,0.17393535561859608,colour,0.4
027,62,1,2,5,29,229,364.3142559620319,365.0317707627546,"[9, 0, 245]",245,a,0.19469930650666356,colour,0.4
027,62,1,2,5,30,230,365.55548540723976,366.1117687462829,"[52, 0, 202]",202,a,0.03830821125302464,colour,0.4
027,62,1,2,5,31,231,366.6219595094444,369.22375489550177,"[58, 0, 196]",196,a,2.0691274421988055,colour,0.4
027,62,1,2,5,32,232,369.73476210131776,370.87174840806983,"[28, 0, 226]",226,a,0.61857676692307,colour,0.4
027,62,1,2,5,33,233,371.3920432883315,372.2636873272713,"[41, 0, 213]",213,a,0.35344087425619364,colour,0.4
027,62,1,2,5,34,234,372.7862763600424,373.73587786674034,"[53, 0, 201]",201,a,0.421060674241744,colour,0.4
027,62,1,2,5,35,235,374.24790001357906,375.20778601872735,"[97, 0, 157]",157,l,0.4287398820742965,colour,0.4
027,62,1,2,5,36,236,375.7309792112792,376.3597372890217,"[22, 0, 232]",232,a,0.11162814334966242,colour,0.4
027,62,1,2,5,37,237,376.8738751760684,377.47178763512056,"[14, 0, 240]",240,a,0.08108381670899689,colour,0.4
027,62,1,2,5,38,238,377.98599326366093,378.59971706103534,"[23, 0, 231]",231,a,0.08180613012518734,colour,0.4
027,62,1,2,5,39,239,379.11374860967044,380.79174727376085,"[70, 0, 184]",184,a,1.159849850111641,colour,0.4
027,62,1,2,5,40,240,381.30458980158437,382.2157196509652,"[32, 0, 222]",222,a,0.3929329862585291,colour,0.4
027,62,1,2,5,41,241,382.7269285059301,383.65570186497644,"[40, 0, 214]",214,a,0.40620047389529645,colour,0.4
027,62,1,2,5,42,242,384.16565947129857,385.02372370287776,"[44, 0, 210]",210,a,0.32593664433807135,colour,0.4
027,62,1,2,5,43,243,385.53619916632306,388.5837111627916,"[66, 0, 188]",188,l,2.519635188393295,colour,0.4
027,62,1,2,5,44,244,389.09230527468026,389.93602248700336,"[2, 0, 252]",252,a,0.32649984396994114,colour,0.4
027,62,1,2,5,45,245,390.4535151536111,391.22372456931043,"[18, 0, 236]",236,a,0.2515730205923319,colour,0.4
027,62,1,2,5,46,246,391.73930865863804,392.59177712735254,"[46, 0, 208]",208,a,0.3347824238007888,colour,0.4
027,62,1,2,5,47,247,393.1009521619417,393.99972509557847,"[82, 0, 172]",172,l,0.37495746463537216,colour,0.4
027,62,1,2,5,48,248,394.517633663374,395.14373013051227,"[56, 0, 198]",198,a,0.0954005098901689,colour,0.4
027,62,1,2,5,49,249,395.6583386634011,396.3597258675145,"[45, 0, 209]",209,a,0.18436045723501593,colour,0.4
027,62,1,2,5,50,250,396.8789632715052,398.0876992465928,"[76, 0, 178]",178,l,0.6769620615523309,colour,0.4
027,62,1,2,6,1,251,403.2587181732524,404.75169432512484,"[15, 0, 239]",239,a,0.9665648443624377,colour,0.28
027,62,1,2,6,2,252,405.2712078151526,405.88767593097873,"[97, 0, 157]",157,l,0.09323002491146326,colour,0.28
027,62,1,2,6,3,253,406.3961644921219,407.99169182032347,"[74, 0, 180]",180,a,1.0721781727625057,colour,0.28
027,62,1,2,6,4,254,408.5054835167248,409.9917264786782,"[68, 0, 186]",186,a,0.9727328652516007,colour,0.28
027,62,1,2,6,5,255,410.5012658208143,411.2397407075623,"[50, 0, 204]",204,a,0.215263971243985,colour,0.28
027,62,1,2,6,6,256,411.75127527303994,412.56774307379965,"[89, 0, 165]",165,l,0.2931308544939384,colour,0.28
027,62,1,2,6,7,257,413.0794209992746,413.89586713840254,"[55, 0, 199]",199,a,0.2930371192051098,colour,0.28
027,62,1,2,6,8,258,414.40112301229965,415.3440574952401,"[83, 0, 171]",171,l,0.4257982469862327,colour,0.28
027,62,1,2,6,9,259,415.86109487584326,416.4317130249692,"[19, 0, 235]",235,a,0.04743243975099176,colour,0.28
027,62,1,2,6,10,260,416.9390968482476,417.79974825365935,"[60, 0, 194]",194,a,0.33708799781743437,colour,0.28
027,62,1,2,6,11,261,418.314201217494,419.11172148480546,"[54, 0, 200]",200,a,0.2746744470205158,colour,0.28
027,62,1,2,6,12,262,419.6306638981914,420.63968100049533,"[78, 0, 176]",176,l,0.48566361458506435,colour,0.28
027,62,1,2,6,13,263,421.1596092103282,422.0477274302393,"[29, 0, 225]",225,a,0.36545514408499,colour,0.28
027,62,1,2,6,14,264,422.5659597394988,423.45568406314123,"[90, 0, 164]",164,l,0.36692182638216764,colour,0.28
027,62,1,2,6,15,265,423.97214445949066,424.51972459140234,"[51, 0, 203]",203,a,0.02111171674914658,colour,0.28
027,62,1,2,6,16,266,425.0324387254659,425.79191623372026,"[35, 0, 219]",219,a,0.24062764865811914,colour,0.28
027,62,1,2,6,17,267,426.309287201846,426.8797143356642,"[37, 0, 217]",217,a,0.047135086031630635,colour,0.28
027,62,1,2,6,18,268,427.3875392663758,428.05572329019196,"[81, 0, 173]",173,l,0.1452543141786009,colour,0.28
027,62,1,2,6,19,269,428.57506033719983,429.1277695244644,"[99, 0, 155]",155,l,0.03008155757561326,colour,0.28
027,62,1,2,6,20,270,429.64079479686916,430.21574170643,"[98, 0, 156]",156,l,0.052322036819532514,colour,0.28
027,62,1,2,6,21,271,430.7346896335948,431.35970538749825,"[30, 0, 224]",224,a,0.10180838289670646,colour,0.28
027,62,1,2,6,22,272,431.87525718135294,432.4957366179442,"[94, 0, 160]",160,l,0.09712397959083319,colour,0.28
027,62,1,2,6,23,273,433.01571917836554,433.6157150823856,"[59, 0, 195]",195,a,0.07654986251145601,colour,0.28
027,62,1,2,6,24,274,434.12517644290347,435.4479158461327,"[67, 0, 187]",187,a,0.7993685861583799,colour,0.28
027,62,1,2,6,25,275,435.9695553164929,436.67167980014347,"[63, 0, 191]",191,a,0.1786969528766349,colour,0.28
027,62,1,2,6,26,276,437.18837099021766,437.9196932412451,"[10, 0, 244]",244,a,0.20879977813456208,colour,0.28
027,62,1,2,6,27,277,438.4383914702339,439.0636801592773,"[53, 0, 201]",201,a,0.10185761365573853,colour,0.28
027,62,1,2,6,28,278,439.5746743681375,440.25570643355604,"[56, 0, 198]",198,a,0.15947530267294496,colour,0.28
027,62,1,2,6,29,279,440.7517305589281,441.38367051794194,"[84, 0, 170]",170,l,0.10864948655944318,colour,0.28
027,62,1,2,6,30,280,441.89256395271514,442.5360751048429,"[71, 0, 183]",183,a,0.12038806430064142,colour,0.28
027,62,1,2,6,31,281,443.04883138032164,443.7037254673196,"[40, 0, 214]",214,a,0.13178557134233415,colour,0.28
027,62,1,2,6,32,282,444.2205864050193,446.59977377485484,"[58, 0, 196]",196,a,1.8622551459120587,colour,0.28
027,62,1,2,6,33,283,447.1119975707261,448.19168835447636,"[64, 0, 190]",190,a,0.5564243359258398,colour,0.28
027,62,1,2,6,34,284,448.7055682723876,449.599906894844,"[80, 0, 174]",174,l,0.3707125933142379,colour,0.28
027,62,1,2,6,35,285,450.11537243647035,451.02374339522794,"[86, 0, 168]",168,l,0.38526559399906546,colour,0.28
027,62,1,2,6,36,286,451.5375020086067,452.38381309015676,"[11, 0, 243]",243,a,0.32327660906594247,colour,0.28
027,62,1,2,6,37,287,452.8967847994063,453.86368992668577,"[82, 0, 172]",172,l,0.44362883327994496,colour,0.28
027,62,1,2,6,38,288,454.37270860443823,454.9836723296903,"[9, 0, 245]",245,a,0.09356558171566576,colour,0.28
027,62,1,2,6,39,289,455.4962789437268,456.4636834675912,"[65, 0, 189]",189,a,0.4491962392348796,colour,0.28
027,62,1,2,6,40,290,456.9800572178792,457.8956698216498,"[62, 0, 192]",192,a,0.3836425548652187,colour,0.28
027,62,1,2,6,41,291,458.4173459195299,459.37569947040174,"[76, 0, 178]",178,l,0.4262027267832309,colour,0.28
027,62,1,2,6,42,292,459.8855286829639,461.13568110135384,"[73, 0, 181]",181,a,0.7317995922639966,colour,0.28
027,62,1,2,6,43,293,461.6510426676832,462.53567692660727,"[16, 0, 238]",238,a,0.36686786939390004,colour,0.28
027,62,1,2,6,44,294,463.05866965150926,464.1277171430411,"[69, 0, 185]",185,a,0.5506281055277213,colour,0.28
027,62,1,2,6,45,295,464.63553459069226,465.5356442374177,"[12, 0, 242]",242,a,0.3817965991329402,colour,0.28
027,62,1,2,6,46,296,466.04680858773645,467.06362620240543,"[85, 0, 169]",169,l,0.4934334069257602,colour,0.28
027,62,1,2,6,47,297,467.5780984646408,468.5757200290682,"[95, 0, 159]",159,l,0.47416567674372345,colour,0.28
027,62,1,2,6,48,298,469.0937306031119,469.94368987937924,"[61, 0, 193]",193,a,0.3388634551083669,colour,0.28
027,62,1,2,6,49,299,470.456519410247,471.31975050643086,"[39, 0, 215]",215,a,0.3426825790666044,colour,0.28
027,62,1,2,6,50,300,471.8287876950344,472.7756712710252,"[3, 0, 251]",251,a,0.42348912835586816,colour,0.28
027,62,1,2,7,1,301,477.94725300348364,479.11165689397603,"[85, 0, 169]",169,l,0.645473686279729,colour,0.14
027,62,1,2,7,2,302,479.6357539629098,480.47171083511785,"[24, 0, 230]",230,a,0.3174276031786576,colour,0.14
027,62,1,2,7,3,303,480.982268662774,481.6156717593549,"[97, 0, 157]",157,l,0.09978165186475962,colour,0.14
027,62,1,2,7,4,304,482.127214201726,482.65568217262626,"[54, 0, 200]",200,a,0.009698061970993876,colour,0.14
027,62,1,2,7,5,305,483.18019750586245,484.3437050031498,"[67, 0, 187]",187,a,0.6453397788573056,colour,0.14
027,62,1,2,7,6,306,484.84798650210723,485.6556691756705,"[68, 0, 186]",186,a,0.28971384721808136,colour,0.14
027,62,1,2,7,7,307,486.1748612874653,487.0716326960828,"[99, 0, 155]",155,l,0.37382476369384676,colour,0.14
027,62,1,2,7,8,308,487.5810223767767,488.49563146103173,"[48, 0, 206]",206,a,0.39117091963998973,colour,0.14
027,62,1,2,7,9,309,489.00297944433987,489.89566273242235,"[87, 0, 167]",167,l,0.369457800174132,colour,0.14
027,62,1,2,7,10,310,490.40329704177566,491.31167351431213,"[70, 0, 184]",184,a,0.38560705829877406,colour,0.14
027,62,1,2,7,11,311,491.82516628177837,492.71966126095504,"[53, 0, 201]",201,a,0.3712761867791414,colour,0.14
027,62,1,2,7,12,312,493.23143095255364,494.14368759514764,"[90, 0, 164]",164,l,0.3890287918038666,colour,0.14
027,62,1,2,7,13,313,494.65318046335597,495.71165594877675,"[78, 0, 176]",176,l,0.534922317834571,colour,0.14
027,62,1,2,7,14,314,496.2212543677306,497.09564745111857,"[84, 0, 170]",170,l,0.35106519563123584,colour,0.14
027,62,1,2,7,15,315,497.6118821739219,498.53566117282026,"[69, 0, 185]",185,a,0.4003861265955493,colour,0.14
027,62,1,2,7,16,316,499.0494855584111,500.08773075428326,"[88, 0, 166]",166,l,0.5149381819646806,colour,0.14
027,62,1,2,7,17,317,500.6022597303381,501.5196210099384,"[31, 0, 223]",223,a,0.40330925094895065,colour,0.14
027,62,1,2,7,18,318,502.0306526342174,502.871719263494,"[55, 0, 199]",199,a,0.3177615846507251,colour,0.14
027,62,1,2,7,19,319,503.39000907423906,504.10364488640334,"[64, 0, 190]",190,a,0.1904233213281259,colour,0.14
027,62,1,2,7,20,320,504.62445609876886,505.39166637777817,"[59, 0, 195]",195,a,0.2496486894087866,colour,0.14
027,62,1,2,7,21,321,505.90423400118016,506.59169402578846,"[52, 0, 202]",202,a,0.17008984414860606,colour,0.14
027,62,1,2,7,22,322,507.10952658148017,507.8477462560404,"[56, 0, 198]",198,a,0.206370142637752,colour,0.14
027,62,1,2,7,23,323,508.3594678983791,508.9916599188,"[50, 0, 204]",204,a,0.11530587659217417,colour,0.14
027,62,1,2,7,24,324,509.5032066934509,510.5516458033817,"[77, 0, 177]",177,l,0.5302272806875408,colour,0.14
027,62,1,2,7,25,325,511.0667564898031,511.6876888490515,"[60, 0, 194]",194,a,0.10416555067058653,colour,0.14
027,62,1,2,7,26,326,512.2111053521512,512.7996541245375,"[98, 0, 156]",156,l,0.06993482646066695,colour,0.14
027,62,1,2,7,27,327,513.3088350667385,513.8556542883161,"[91, 0, 163]",163,l,0.029518751776777208,colour,0.14
027,62,1,2,7,28,328,514.3767006266862,515.2876469439361,"[20, 0, 234]",234,a,0.3804185321787372,colour,0.14
027,62,1,2,7,29,329,515.7979499532375,516.5516312309774,"[18, 0, 236]",236,a,0.23534735629800707,colour,0.14
027,62,1,2,7,30,330,517.0639440360246,518.0156667969422,"[63, 0, 191]",191,a,0.4284354392439127,colour,0.14
027,62,1,2,7,31,331,518.5325749961194,519.3436990954215,"[58, 0, 196]",196,a,0.2877402853919193,colour,0.14
027,62,1,2,7,32,332,519.860791220679,520.9596473346464,"[83, 0, 171]",171,l,0.5772918682778254,colour,0.14
027,62,1,2,7,33,333,521.4686065416317,522.2476763090817,"[75, 0, 179]",179,l,0.2555831598583609,colour,0.14
027,62,1,2,7,34,334,522.7656553753186,523.4715946506476,"[28, 0, 226]",226,a,0.1826511659892276,colour,0.14
027,62,1,2,7,35,335,523.98437849537,524.6716286001028,"[61, 0, 193]",193,a,0.16414080141112208,colour,0.14
027,62,1,2,7,36,336,525.1781920423964,525.8248181219678,"[72, 0, 182]",182,a,0.1286166871432215,colour,0.14
027,62,1,2,7,37,337,526.3380316526163,526.9116540583782,"[93, 0, 161]",161,l,0.050503256381489336,colour,0.14
027,62,1,2,7,38,338,527.431894981768,528.0716500253184,"[81, 0, 173]",173,l,0.11666543257888407,colour,0.14
027,62,1,2,7,39,339,528.5881320832996,529.2396221599774,"[94, 0, 160]",160,l,0.12802670593373477,colour,0.14
027,62,1,2,7,40,340,529.7600324371597,530.9196629151702,"[76, 0, 178]",178,a,0.6480088726384565,colour,0.14
027,62,1,2,7,41,341,531.4401224231115,532.2396489414386,"[25, 0, 229]",229,a,0.2761828767834231,colour,0.14
027,62,1,2,7,42,342,532.7527143860934,534.103648037184,"[71, 0, 183]",183,a,0.827684138668701,colour,0.14
027,62,1,2,7,43,343,534.6119637000374,535.4476720555685,"[73, 0, 181]",181,a,0.31086376716848463,colour,0.14
027,62,1,2,7,44,344,535.9684336432256,536.9356113119284,"[95, 0, 159]",159,l,0.4521524467272684,colour,0.14
027,62,1,2,7,45,345,537.4444799342891,538.2956498929998,"[65, 0, 189]",189,a,0.32785270479507744,colour,0.14
027,62,1,2,7,46,346,538.8038667005021,539.5916554288706,"[51, 0, 203]",203,a,0.26444744982291013,colour,0.14
027,62,1,2,7,47,347,540.1008312512422,540.9996250587283,"[82, 0, 172]",172,l,0.37180472805630416,colour,0.14
027,62,1,2,7,48,348,541.5105979999062,542.3916585008847,"[86, 0, 168]",168,l,0.3576581763336435,colour,0.14
027,62,1,2,7,49,349,542.9012789751869,543.751655728207,"[57, 0, 197]",197,a,0.32705752982292324,colour,0.14
027,62,1,2,7,50,350,544.260626750649,545.4477961169323,"[74, 0, 180]",180,l,0.6637816139264032,colour,0.14
027,62,1,2,8,1,351,550.7075205666479,552.1676495748106,"[78, 0, 176]",176,l,0.9310529392678291,colour,0.06
027,62,1,2,8,2,352,552.6823238799116,554.7356395899551,"[67, 0, 187]",187,l,1.530087071354501,colour,0.06
027,62,1,2,8,3,353,555.2450950428611,556.1356381721562,"[55, 0, 199]",199,a,0.37107532541267574,colour,0.06
027,62,1,2,8,4,354,556.6519957748242,557.5756349583389,"[89, 0, 165]",165,l,0.40060156024992466,colour,0.06
027,62,1,2,8,5,355,558.0895302363206,558.7515895621618,"[60, 0, 194]",194,a,0.13904021331109107,colour,0.06
027,62,1,2,8,6,356,559.2613447317854,559.9996423878474,"[2, 0, 252]",252,a,0.21490045147947967,colour,0.06
027,62,1,2,8,7,357,560.5037446869537,561.2396481537726,"[62, 0, 192]",192,a,0.21271224354859442,colour,0.06
027,62,1,2,8,8,358,561.7537182993256,562.5279528204119,"[84, 0, 170]",170,l,0.25087906408589333,colour,0.06
027,62,1,2,8,9,359,563.0349108963273,564.3195780019742,"[72, 0, 182]",182,l,0.7595113790594041,colour,0.06
027,62,1,2,8,10,360,564.8337068305118,566.1036370095098,"[73, 0, 181]",181,l,0.7424271305790171,colour,0.06
027,62,1,2,8,11,361,566.6167505033081,567.4636578676291,"[96, 0, 158]",158,l,0.32366533495951444,colour,0.06
027,62,1,2,8,12,362,567.9762609370518,568.8076425013132,"[59, 0, 195]",195,a,0.30804934410844,colour,0.06
027,62,1,2,8,13,363,569.3199182848912,570.2636286442867,"[93, 0, 161]",161,l,0.4202816471224651,colour,0.06
027,62,1,2,8,14,364,570.7821594886482,571.6396424036939,"[83, 0, 171]",171,l,0.3341542395064607,colour,0.06
027,62,1,2,8,15,365,572.1571618517628,573.0956076727016,"[64, 0, 190]",190,a,0.41564214206300676,colour,0.06
027,62,1,2,8,16,366,573.6102835532511,574.6876148061128,"[98, 0, 156]",156,l,0.55393995589111,colour,0.06
027,62,1,2,8,17,367,575.2040862301365,575.7836123863235,"[56, 0, 198]",198,a,0.05293683032505214,colour,0.06
027,62,1,2,8,18,368,576.2992110478226,577.9916327433893,"[87, 0, 167]",167,l,1.1627599777420983,colour,0.06
027,62,1,2,8,19,369,578.5086697302759,579.4236261866754,"[63, 0, 191]",191,a,0.3918207654496655,colour,0.06
027,62,1,2,8,20,370,579.9305484225042,580.6635996571276,"[66, 0, 188]",188,a,0.21000927896238863,colour,0.06
027,62,1,2,8,21,371,581.1737427650951,582.0957108603325,"[95, 0, 159]",159,l,0.39877529663499445,colour,0.06
027,62,1,2,8,22,372,582.6113233065698,583.5196592130233,"[99, 0, 155]",155,l,0.3852844985667616,colour,0.06
027,62,1,2,8,23,373,584.0332165710861,584.8396791100968,"[88, 0, 166]",166,l,0.28319530352018774,colour,0.06
027,62,1,2,8,24,374,585.361300463439,586.2156294602901,"[85, 0, 169]",169,l,0.33194476389326155,colour,0.06
027,62,1,2,8,25,375,586.7350866303314,587.6877282337518,"[61, 0, 193]",193,a,0.4210902127670124,colour,0.06
027,62,1,2,8,26,376,588.2010989089031,589.0636076916708,"[92, 0, 162]",162,l,0.34526699606794864,colour,0.06
027,62,1,2,8,27,377,589.5764624286676,590.4876013365574,"[68, 0, 186]",186,a,0.3790770929772407,colour,0.06
027,62,1,2,8,28,378,591.0002654521959,591.8075759413186,"[44, 0, 210]",210,a,0.28898168774321675,colour,0.06
027,62,1,2,8,29,379,592.3313146104338,593.4715662937379,"[71, 0, 183]",183,a,0.622299398528412,colour,0.06
027,62,1,2,8,30,380,593.988232671516,595.3276325449115,"[74, 0, 180]",180,a,0.8070592154981568,colour,0.06
027,62,1,2,8,31,381,595.8237815194298,596.6476347189164,"[53, 0, 201]",201,a,0.30659329576883465,colour,0.06
027,62,1,2,8,32,382,597.1565439074766,598.0155872399919,"[23, 0, 231]",231,a,0.3367252657189965,colour,0.06
027,62,1,2,8,33,383,598.531437962898,600.2155806233641,"[69, 0, 185]",185,a,1.1608754249755293,colour,0.06
027,62,1,2,8,34,384,600.7236095663393,601.6795744416304,"[80, 0, 174]",174,l,0.43266810139175504,colour,0.06
027,62,1,2,8,35,385,602.1924118493916,603.0396807641955,"[50, 0, 204]",204,a,0.32401507010217756,colour,0.06
027,62,1,2,8,36,386,603.5517241787165,604.1355940614594,"[70, 0, 184]",184,a,0.06093465944286436,colour,0.06
027,62,1,2,8,37,387,604.645413821796,605.5595814047847,"[77, 0, 177]",177,l,0.39082433527801186,colour,0.06
027,62,1,2,8,38,388,606.0675788400695,606.9595784115372,"[52, 0, 202]",202,a,0.374746757093817,colour,0.06
027,62,1,2,8,39,389,607.4790158893447,608.2956337453797,"[57, 0, 197]",197,a,0.29329626983962953,colour,0.06
027,62,1,2,8,40,390,608.7978810301283,609.511685408419,"[58, 0, 196]",196,a,0.19043946894817054,colour,0.06
027,62,1,2,8,41,391,610.0322272301419,610.855594817549,"[86, 0, 168]",168,l,0.3002094471594319,colour,0.06
027,62,1,2,8,42,392,611.3746412063483,612.2715977226617,"[76, 0, 178]",178,l,0.3743982034502551,colour,0.06
027,62,1,2,8,43,393,612.7808755509323,613.5835914337076,"[97, 0, 157]",157,l,0.2793131642974913,colour,0.06
027,62,1,2,8,44,394,614.0933410894359,615.0075685370248,"[81, 0, 173]",173,l,0.3909799043321982,colour,0.06
027,62,1,2,8,45,395,615.5151425879449,616.311785366619,"[65, 0, 189]",189,a,0.2732644786592573,colour,0.06
027,62,1,2,8,46,396,616.8362530444283,618.6075912226224,"[75, 0, 179]",179,l,1.2534583610249683,colour,0.06
027,62,1,2,8,47,397,619.1277801583055,620.0556279794546,"[90, 0, 164]",164,l,0.3958872245857492,colour,0.06
027,62,1,2,8,48,398,620.5665729575558,621.4715749582974,"[94, 0, 160]",160,l,0.3725774537306279,colour,0.06
027,62,1,2,8,49,399,621.9902968180832,622.8155836166115,"[82, 0, 172]",172,l,0.30822421179618686,colour,0.06
027,62,1,2,8,50,400,623.3357902754797,624.1675995563855,"[54, 0, 200]",200,a,0.3145694633712992,colour,0.06
027,62,1,2,9,1,401,629.1848074723966,631.5035776963923,"[56, 0, 198]",198,a,1.7991964756511152,colour,0.06
027,62,1,2,9,2,402,632.0233196170302,632.8396582362475,"[81, 0, 173]",173,l,0.29777114710304886,colour,0.06
027,62,1,2,9,3,403,633.356137537281,634.1435796812875,"[85, 0, 169]",169,l,0.26818071538582444,colour,0.06
027,62,1,2,9,4,404,634.6565738398349,635.4475633540424,"[88, 0, 166]",166,l,0.2733144969679415,colour,0.06
027,62,1,2,9,5,405,635.9573102529394,636.7276118285954,"[86, 0, 168]",168,l,0.24057290400378406,colour,0.06
027,62,1,2,9,6,406,637.2428359426558,638.0955801035743,"[89, 0, 165]",165,l,0.3220871944213286,colour,0.06
027,62,1,2,9,7,407,638.617159709218,639.3196039957693,"[95, 0, 159]",159,l,0.1702737701125443,colour,0.06
027,62,1,2,9,8,408,639.8380860033212,640.6396388590802,"[90, 0, 164]",164,l,0.28437881055288017,colour,0.06
027,62,1,2,9,9,409,641.1519583594054,641.9755307467422,"[98, 0, 156]",156,l,0.30643024353776127,colour,0.06
027,62,1,2,9,10,410,642.4973868322559,643.3355405771872,"[64, 0, 190]",190,a,0.3058351423824206,colour,0.06
027,62,1,2,9,11,411,643.8537862771191,644.6955551337451,"[78, 0, 176]",176,l,0.3237299256725237,colour,0.06
027,62,1,2,9,12,412,645.2149146299344,646.023605942959,"[60, 0, 194]",194,a,0.2910127511713654,colour,0.06
027,62,1,2,9,13,413,646.5376394608757,647.3836177425692,"[99, 0, 155]",155,l,0.3288337748963386,colour,0.06
027,62,1,2,9,14,414,647.8959277906688,648.8075692459242,"[76, 0, 178]",178,l,0.3946241606026888,colour,0.06
027,62,1,2,9,15,415,649.317975836806,650.2235323725035,"[61, 0, 193]",193,a,0.3873714880319312,colour,0.06
027,62,1,2,9,16,416,650.7412377159344,651.3995783485007,"[97, 0, 157]",157,l,0.13750854646787047,colour,0.06
027,62,1,2,9,17,417,651.919692059746,652.9116146737942,"[6, 0, 248]",248,a,0.47369503101799637,colour,0.06
027,62,1,2,9,18,418,653.4223965996644,654.1995900851907,"[50, 0, 204]",204,a,0.2583018782315776,colour,0.06
027,62,1,2,9,19,419,654.7219211488264,655.6235738839023,"[84, 0, 170]",170,l,0.3831912074238062,colour,0.06
027,62,1,2,9,20,420,656.147168799187,657.0236807736801,"[91, 0, 163]",163,l,0.35794489621184766,colour,0.06
027,62,1,2,9,21,421,657.5410509542562,658.3755891935434,"[83, 0, 171]",171,l,0.3116183759411797,colour,0.06
027,62,1,2,9,22,422,658.8848658403149,659.7195391687565,"[62, 0, 192]",192,a,0.3115037668030709,colour,0.06
027,62,1,2,9,23,423,660.2284999511903,661.0475840703584,"[69, 0, 185]",185,a,0.29567312996368855,colour,0.06
027,62,1,2,9,24,424,661.5624178830767,662.3835488195764,"[68, 0, 186]",186,a,0.29778178106062114,colour,0.06
027,62,1,2,9,25,425,662.8907849506941,663.7756653632969,"[0, 0, 254]",254,a,0.3614501248812303,colour,0.06
027,62,1,2,9,26,426,664.297092550667,665.1836117560742,"[96, 0, 158]",158,l,0.36340360064059496,colour,0.06
027,62,1,2,9,27,427,665.7033217753051,666.5676028646994,"[58, 0, 196]",196,a,0.33871576306410134,colour,0.06
027,62,1,2,9,28,428,667.0776746864431,667.8315595826134,"[66, 0, 188]",188,a,0.23369123425800353,colour,0.06
027,62,1,2,9,29,429,668.348095203517,669.0396583150141,"[72, 0, 182]",182,a,0.17432014318183064,colour,0.06
027,62,1,2,9,30,430,669.5531912547303,670.2475648506079,"[70, 0, 184]",184,a,0.17586520069744438,colour,0.06
027,62,1,2,9,31,431,670.7580777797848,671.4875532872975,"[27, 0, 227]",227,a,0.19967279280535877,colour,0.06
027,62,1,2,9,32,432,672.0081293736584,672.6715451048221,"[63, 0, 191]",191,a,0.1457107816822827,colour,0.06
027,62,1,2,9,33,433,673.1824727536878,673.7755350002553,"[87, 0, 167]",167,l,0.0610654162010178,colour,0.06
027,62,1,2,9,34,434,674.2937838510843,674.8875668356195,"[92, 0, 162]",162,l,0.07624738872982562,colour,0.06
027,62,1,2,9,35,435,675.407123648678,675.9995494402247,"[55, 0, 199]",199,a,0.06611373322084546,colour,0.06
027,62,1,2,9,36,436,676.5176517802756,677.9675561545882,"[73, 0, 181]",181,a,0.9180154576897621,colour,0.06
027,62,1,2,9,37,437,678.4818759984337,679.375573833473,"[54, 0, 200]",200,a,0.37023249513003975,colour,0.06
027,62,1,2,9,38,438,679.8881304292008,680.7275180933066,"[52, 0, 202]",202,a,0.3159715549554676,colour,0.06
027,62,1,2,9,39,439,681.247519952245,682.6315366607159,"[75, 0, 179]",179,l,0.8646713907364756,colour,0.06
027,62,1,2,9,40,440,683.1503967603203,683.8636048559565,"[93, 0, 161]",161,l,0.19012833072338253,colour,0.06
027,62,1,2,9,41,441,684.3691183050396,685.2158350478858,"[65, 0, 189]",189,a,0.3233979135984555,colour,0.06
027,62,1,2,9,42,442,685.7284522957634,686.5915569674689,"[79, 0, 175]",175,l,0.33547992492094636,colour,0.06
027,62,1,2,9,43,443,687.1006969497539,688.591533336672,"[74, 0, 180]",180,l,0.9680327081587166,colour,0.06
027,62,1,2,9,44,444,689.1024956440087,689.9595201223856,"[57, 0, 197]",197,a,0.33021853724494576,colour,0.06
027,62,1,2,9,45,445,690.4726706376532,691.2155428142287,"[59, 0, 195]",195,a,0.22591947275213897,colour,0.06
027,62,1,2,9,46,446,691.7388498281362,692.3755624119658,"[51, 0, 203]",203,a,0.11883276677690446,colour,0.06
027,62,1,2,9,47,447,692.8994125394383,693.7435397453373,"[82, 0, 172]",172,l,0.3251438324805349,colour,0.06
027,62,1,2,9,48,448,694.2625751064625,694.8955099201994,"[53, 0, 201]",201,a,0.11520977807231247,colour,0.06
027,62,1,2,9,49,449,695.4056935941335,697.7115417334717,"[71, 0, 183]",183,l,1.7816939627518877,colour,0.06
027,62,1,2,9,50,450,698.2257591773523,699.1515538797248,"[67, 0, 187]",187,a,0.4024924145778641,colour,0.06
027,62,1,2,10,1,451,705.1396636713762,706.3355472725816,"[90, 0, 164]",164,l,0.671854667714797,colour,0.06
027,62,1,2,10,2,452,706.8312358412659,707.535566649749,"[99, 0, 155]",155,l,0.17149469256401062,colour,0.06
027,62,1,2,10,3,453,708.0589484943775,708.6237499330891,"[65, 0, 189]",189,a,0.047673867316916585,colour,0.06
027,62,1,2,10,4,454,709.1389834993752,709.9196038382361,"[94, 0, 160]",160,l,0.2616582331247628,colour,0.06
027,62,1,2,10,5,455,710.4372831877554,711.2795805855421,"[97, 0, 157]",157,l,0.3189061008160934,colour,0.06
027,62,1,2,10,6,456,711.7994241184788,712.7755263356958,"[83, 0, 171]",171,l,0.45835158159025013,colour,0.06
027,62,1,2,10,7,457,713.2844670319464,714.159565099515,"[71, 0, 183]",183,a,0.35760185634717345,colour,0.06
027,62,1,2,10,8,458,714.6787702082656,715.5195379084907,"[70, 0, 184]",184,a,0.32203363138251007,colour,0.06
027,62,1,2,10,9,459,716.0307306157192,716.8315828194609,"[67, 0, 187]",187,a,0.28271481138654053,colour,0.06
027,62,1,2,10,10,460,717.3438901107293,718.135627144482,"[56, 0, 198]",198,a,0.27074898465070873,colour,0.06
027,62,1,2,10,11,461,718.6544313179329,719.287547300919,"[66, 0, 188]",188,a,0.11005275964271277,colour,0.06
027,62,1,2,10,12,462,719.7948673211504,720.4954825872555,"[73, 0, 181]",181,a,0.17713771690614522,colour,0.06
027,62,1,2,10,13,463,721.001462743734,721.8556877652882,"[82, 0, 172]",172,l,0.3311830658931285,colour,0.06
027,62,1,2,10,14,464,722.3664755988866,723.0475509873359,"[22, 0, 232]",232,a,0.15801374055445194,colour,0.06
027,62,1,2,10,15,465,723.5539635865716,724.3115230652038,"[60, 0, 194]",194,a,0.2341981140198186,colour,0.06
027,62,1,2,10,16,466,724.8196890664985,725.6955374106765,"[86, 0, 168]",168,l,0.35257874557282776,colour,0.06
027,62,1,2,10,17,467,726.2102621280355,726.7515419067349,"[53, 0, 201]",201,a,0.018175989273004234,colour,0.06
027,62,1,2,10,18,468,727.272183765308,727.919530189014,"[55, 0, 199]",199,a,0.08569417695980519,colour,0.06
027,62,1,2,10,19,469,728.4317094803555,728.9994958771858,"[91, 0, 163]",163,l,0.044493167544715106,colour,0.06
027,62,1,2,10,20,470,729.5098091264954,730.1595351672731,"[96, 0, 158]",158,l,0.1263894884614274,colour,0.06
027,62,1,2,10,21,471,730.6660600126488,731.3275596833555,"[80, 0, 174]",174,l,0.13810364762321115,colour,0.06
027,62,1,2,10,22,472,731.8463819738245,735.1355243506841,"[76, 0, 178]",178,a,2.765834969119169,colour,0.06
027,62,1,2,10,23,473,735.6432945368579,736.495563719538,"[84, 0, 170]",170,l,0.3289913133485243,colour,0.06
027,62,1,2,10,24,474,736.9932097024284,737.823495193501,"[64, 0, 190]",190,a,0.31117766234092414,colour,0.06
027,62,1,2,10,25,475,738.3402584574651,739.1994782328838,"[88, 0, 166]",166,l,0.3358765277080238,colour,0.06
027,62,1,2,10,26,476,739.7152513682377,740.4395690695383,"[30, 0, 224]",224,a,0.20176490233279765,colour,0.06
027,62,1,2,10,27,477,740.9496239558794,741.7915460185613,"[78, 0, 176]",176,l,0.31869106099475175,colour,0.06
027,62,1,2,10,28,478,742.3123926769476,742.8874979126267,"[57, 0, 197]",197,a,0.051929766312241554,colour,0.06
027,62,1,2,10,29,479,743.4060295447707,744.0555177025963,"[62, 0, 192]",192,a,0.12658719904720783,colour,0.06
027,62,1,2,10,30,480,744.5622989416588,745.3674771490041,"[54, 0, 200]",200,a,0.2819074272410944,colour,0.06
027,62,1,2,10,31,481,745.8747963816859,746.6478879618226,"[52, 0, 202]",202,a,0.24974636314436793,colour,0.06
027,62,1,2,10,32,482,747.1463870150037,748.3754820673494,"[93, 0, 161]",161,l,0.7110462752170861,colour,0.06
027,62,1,2,10,33,483,748.8948262037011,749.7435795237543,"[95, 0, 159]",159,l,0.32540652772877365,colour,0.06
027,62,1,2,10,34,484,750.2541420775233,751.0795805067755,"[51, 0, 203]",203,a,0.3021054214332253,colour,0.06
027,62,1,2,10,35,485,751.594596670242,752.40753797465,"[98, 0, 156]",156,l,0.2922494274098426,colour,0.06
027,62,1,2,10,36,486,752.9201985455584,753.7755038865143,"[85, 0, 169]",169,l,0.3319231023779139,colour,0.06
027,62,1,2,10,37,487,754.2952308409149,755.1035019203555,"[63, 0, 191]",191,a,0.2850294439122081,colour,0.06
027,62,1,2,10,38,488,755.6233805055963,756.4155295022065,"[58, 0, 196]",196,a,0.28064200037624687,colour,0.06
027,62,1,2,10,39,489,756.9240818663966,759.5354914251948,"[72, 0, 182]",182,a,2.0925218899501488,colour,0.06
027,62,1,2,10,40,490,760.0517525356263,760.9515778254718,"[81, 0, 173]",173,l,0.37663249124307185,colour,0.06
027,62,1,2,10,41,491,761.4712197092595,762.4635215969756,"[68, 0, 186]",186,a,0.4690358337247744,colour,0.06
027,62,1,2,10,42,492,762.9772652442334,764.5835827690316,"[74, 0, 180]",180,a,1.0828844802454114,colour,0.06
027,62,1,2,10,43,493,765.1023318041116,766.7835155001376,"[75, 0, 179]",179,l,1.158636017004028,colour,0.06
027,62,1,2,10,44,494,767.2797991700936,768.0074763770681,"[61, 0, 193]",193,a,0.19587808731012046,colour,0.06
027,62,1,2,10,45,495,768.5167262423784,769.2634939489653,"[50, 0, 204]",204,a,0.2234662064583972,colour,0.06
027,62,1,2,10,46,496,769.7822930024704,770.607486459543,"[89, 0, 165]",165,l,0.3018277601804584,colour,0.06
027,62,1,2,10,47,497,771.1260834700661,771.9915240418632,"[21, 0, 233]",233,a,0.3424387883860618,colour,0.06
027,62,1,2,10,48,498,772.5056765011977,773.3595005875686,"[59, 0, 195]",195,a,0.33050840778741986,colour,0.06
027,62,1,2,10,49,499,773.8806753196986,774.783472964773,"[87, 0, 167]",167,l,0.3794496711343527,colour,0.06
027,62,1,2,10,50,500,775.3026319935452,776.183461700799,"[92, 0, 162]",162,l,0.35768692707642913,colour,0.06
027,62,1,2,11,1,501,781.5414396801498,783.2315550139174,"[89, 0, 165]",165,l,1.172681350260973,colour,0.06
027,62,1,2,11,2,502,783.7413806819823,784.463534199982,"[66, 0, 188]",188,a,0.20442099927458912,colour,0.06
027,62,1,2,11,3,503,784.9788272371516,785.5595561986556,"[95, 0, 159]",159,l,0.062213870929554105,colour,0.06
027,62,1,2,11,4,504,786.0801756080473,786.6154720794875,"[93, 0, 161]",161,l,0.017948740161955357,colour,0.06
027,62,1,2,11,5,505,787.1287761946442,787.7356206853874,"[73, 0, 181]",181,a,0.08170727477408946,colour,0.06
027,62,1,2,11,6,506,788.2483702655882,789.6074884288246,"[78, 0, 176]",176,l,0.8293902792502195,colour,0.06
027,62,1,2,11,7,507,790.1181986747542,791.5114837593865,"[74, 0, 180]",180,l,0.8754781290190294,colour,0.06
027,62,1,2,11,8,508,792.0213850458385,792.8315091702389,"[59, 0, 195]",195,a,0.28901831537950784,colour,0.06
027,62,1,2,11,9,509,793.3413498045411,794.0637853161898,"[86, 0, 168]",168,l,0.20360061817336828,colour,0.06
027,62,1,2,11,10,510,794.5795757806627,795.2074697605567,"[50, 0, 204]",204,a,0.11074514081701636,colour,0.06
027,62,1,2,11,11,511,795.7239589076489,796.3435321047436,"[96, 0, 158]",158,l,0.08724868693388999,colour,0.06
027,62,1,2,11,12,512,796.8616931278957,797.4074682638748,"[62, 0, 192]",192,a,0.023387358523905277,colour,0.06
027,62,1,2,11,13,513,797.922810137854,798.5195260930341,"[60, 0, 194]",194,a,0.06822907971218228,colour,0.06
027,62,1,2,11,14,514,799.0314765598159,801.6714919356164,"[76, 0, 178]",178,l,2.12266685673967,colour,0.06
027,62,1,2,11,15,515,802.1942243282683,802.8874585280428,"[55, 0, 199]",199,a,0.1764532127417624,colour,0.06
027,62,1,2,11,16,516,803.4005507541588,803.9434886241797,"[99, 0, 155]",155,l,0.024515333236195147,colour,0.06
027,62,1,2,11,17,517,804.4667645242298,804.9919631801313,"[94, 0, 160]",160,l,0.007391700288280845,colour,0.06
027,62,1,2,11,18,518,805.518675779691,806.2954628162552,"[70, 0, 184]",184,a,0.2551853754557669,colour,0.06
027,62,1,2,11,19,519,806.8065294927219,807.4077750698198,"[87, 0, 167]",167,l,0.08327123697381467,colour,0.06
027,62,1,2,11,20,520,807.9175715933088,808.5274947775761,"[98, 0, 156]",156,l,0.09255142835900187,colour,0.06
027,62,1,2,11,21,521,809.0336655555293,811.0635324671166,"[82, 0, 172]",172,a,1.5067375221988186,colour,0.06
027,62,1,2,11,22,522,811.581730511738,812.6954641552875,"[90, 0, 164]",164,l,0.5904010296799242,colour,0.06
027,62,1,2,11,23,523,813.2092381287366,814.1354573968565,"[63, 0, 191]",191,a,0.403226149501279,colour,0.06
027,62,1,2,11,24,524,814.6468013409758,815.4635030861245,"[61, 0, 193]",193,a,0.29371020186226815,colour,0.06
027,62,1,2,11,25,525,815.9749435224803,816.8234577780822,"[85, 0, 169]",169,l,0.3253151554381475,colour,0.06
027,62,1,2,11,26,526,817.3342727870913,818.0236988905817,"[68, 0, 186]",186,a,0.1639730230672285,colour,0.06
027,62,1,2,11,27,527,818.5476707164198,819.1994825651636,"[72, 0, 182]",182,a,0.12797314277850091,colour,0.06
027,62,1,2,11,28,528,819.7147291285219,820.6874757785117,"[53, 0, 201]",201,a,0.4414662254275754,colour,0.06
027,62,1,2,11,29,529,821.1986456426093,822.3034385899082,"[71, 0, 183]",183,a,0.5877252403879538,colour,0.06
027,62,1,2,11,30,530,822.8217421852751,823.6154539625859,"[56, 0, 198]",198,a,0.27627936913631856,colour,0.06
027,62,1,2,11,31,531,824.1370300236158,824.9514777886216,"[38, 0, 216]",216,a,0.2952725886134431,colour,0.06
027,62,1,2,11,32,532,825.4684470340144,826.1594579734374,"[51, 0, 203]",203,a,0.1731602669460699,colour,0.06
027,62,1,2,11,33,533,826.67950276169,827.4954369011102,"[81, 0, 173]",173,l,0.2839538506232202,colour,0.06
027,62,1,2,11,34,534,828.0023453524336,828.6715124156326,"[64, 0, 190]",190,a,0.14127095660660416,colour,0.06
027,62,1,2,11,35,535,829.1801474874374,829.959591408493,"[54, 0, 200]",200,a,0.2562034671427682,colour,0.06
027,62,1,2,11,36,536,830.4739474861417,831.255528021371,"[80, 0, 174]",174,l,0.25830069661606103,colour,0.06
027,62,1,2,11,37,537,831.7648590188473,832.5834917906905,"[10, 0, 244]",244,a,0.29536750551778823,colour,0.06
027,62,1,2,11,38,538,833.090110371355,833.9675388253527,"[69, 0, 185]",185,a,0.3540568493772298,colour,0.06
027,62,1,2,11,39,539,834.4807432974922,835.1994967436185,"[67, 0, 187]",187,a,0.19572291197255254,colour,0.06
027,62,1,2,11,40,540,835.7151639343938,836.4874497058336,"[58, 0, 196]",196,a,0.260306553915143,colour,0.06
027,62,1,2,11,41,541,837.000711679575,837.927482725936,"[92, 0, 162]",162,l,0.40346324478741735,colour,0.06
027,62,1,2,11,42,542,838.4460596502759,839.239581593778,"[97, 0, 157]",157,l,0.26520993560552597,colour,0.06
027,62,1,2,11,43,543,839.7548502124846,840.5754128292901,"[83, 0, 171]",171,l,0.3030758579261601,colour,0.06
027,62,1,2,11,44,544,841.097999499063,841.9113972707419,"[45, 0, 209]",209,a,0.29669043386820704,colour,0.06
027,62,1,2,11,45,545,842.4264130403753,843.2235185879981,"[75, 0, 179]",179,l,0.2786857676692307,colour,0.06
027,62,1,2,11,46,546,843.743364483933,844.5678431106498,"[52, 0, 202]",202,a,0.3063432036433369,colour,0.06
027,62,1,2,11,47,547,845.0901832329109,848.2394421723438,"[77, 0, 177]",177,a,2.6293744465801865,colour,0.06
027,62,1,2,11,48,548,848.7505222397158,849.583459889167,"[84, 0, 170]",170,l,0.3117148681776598,colour,0.06
027,62,1,2,11,49,549,850.0921623086324,850.9034337062621,"[91, 0, 163]",163,l,0.2881427959073335,colour,0.06
027,62,1,2,11,50,550,851.4202910993481,852.7354084023973,"[79, 0, 175]",175,l,0.7917031629476696,colour,0.06
027,62,1,2,12,1,551,867.2997139891377,870.031436781399,"[87, 0, 167]",167,l,2.20826296613086,colour,0.06
027,62,1,2,12,2,552,870.5429571684217,871.3754245658638,"[96, 0, 158]",158,l,0.309138328069821,colour,0.06
027,62,1,2,12,3,553,871.8866519315634,872.6396049882751,"[93, 0, 161]",161,l,0.22958735970314592,colour,0.06
027,62,1,2,12,4,554,873.1476548050996,873.9834352344042,"[65, 0, 189]",189,a,0.3124423015397042,colour,0.06
027,62,1,2,12,5,555,874.4913952542702,875.303485851502,"[40, 0, 214]",214,a,0.2886906355852261,colour,0.06
027,62,1,2,12,6,556,875.8195732758613,876.967407280812,"[74, 0, 180]",180,l,0.6338276625610888,colour,0.06
027,62,1,2,12,7,557,877.4696431440534,878.1994345160201,"[94, 0, 160]",160,l,0.206442610360682,colour,0.06
027,62,1,2,12,8,558,878.7225674500223,879.4394245280419,"[81, 0, 173]",173,l,0.1928305075271055,colour,0.06
027,62,1,2,12,9,559,879.9507286937442,880.6474704851862,"[73, 0, 181]",181,a,0.16438537987414747,colour,0.06
027,62,1,2,12,10,560,881.1692899430636,881.8394624948269,"[50, 0, 204]",204,a,0.13959671754855663,colour,0.06
027,62,1,2,12,11,561,882.3578381639672,882.9594511992764,"[61, 0, 193]",193,a,0.07150508998893201,colour,0.06
027,62,1,2,12,12,562,883.4828519485891,884.4074115500553,"[79, 0, 175]",175,l,0.3920275345444679,colour,0.06
027,62,1,2,12,13,563,884.9216297817184,886.4234347775346,"[70, 0, 184]",184,a,0.9836892649764195,colour,0.06
027,62,1,2,12,14,564,886.9441900637466,888.0394609982613,"[76, 0, 178]",178,l,0.5628652921877801,colour,0.06
027,62,1,2,12,15,565,888.5489585925825,890.0554389334284,"[75, 0, 179]",179,a,0.9729380591306835,colour,0.06
027,62,1,2,12,16,566,890.5707544197794,891.6394513883861,"[88, 0, 166]",166,l,0.5453060655854642,colour,0.06
027,62,1,2,12,17,567,892.1488603674807,892.9834214497823,"[71, 0, 183]",183,a,0.31121980387251824,colour,0.06
027,62,1,2,12,18,568,893.4811741649173,894.3434119817102,"[84, 0, 170]",170,l,0.338920169044286,colour,0.06
027,62,1,2,12,19,569,894.856128478772,895.5914573244518,"[72, 0, 182]",182,a,0.21192021947354078,colour,0.06
027,62,1,2,12,20,570,896.1061013034778,896.9754244083306,"[99, 0, 155]",155,l,0.345950712566264,colour,0.06
027,62,1,2,12,21,571,897.4967716449173,898.2794348625466,"[91, 0, 163]",163,l,0.2593955881893635,colour,0.06
027,62,1,2,12,22,572,898.792009575176,899.5513744434575,"[59, 0, 195]",195,a,0.22909032611642033,colour,0.06
027,62,1,2,12,23,573,900.0730005230289,900.8795977572445,"[97, 0, 157]",157,l,0.27466972079128027,colour,0.06
027,62,1,2,12,24,574,901.4001450928627,902.8074223414296,"[86, 0, 168]",168,l,0.8900842987932265,colour,0.06
027,62,1,2,12,25,575,903.3313606904121,904.2395520553691,"[57, 0, 197]",197,a,0.39105985511559993,colour,0.06
027,62,1,2,12,26,576,904.7549073201371,905.5594045679318,"[16, 0, 238]",238,a,0.2864724952960387,colour,0.06
027,62,1,2,12,27,577,906.0704680937342,906.7913924185559,"[64, 0, 190]",190,a,0.2027467602165416,colour,0.06
027,62,1,2,12,28,578,907.3087645682972,907.975431103725,"[54, 0, 200]",200,a,0.14178847009316087,colour,0.06
027,62,1,2,12,29,579,908.4816077892901,909.2634506259346,"[51, 0, 203]",203,a,0.24888974835630506,colour,0.06
027,62,1,2,12,30,580,909.7824280916248,910.6237077915575,"[83, 0, 171]",171,l,0.3178789507364854,colour,0.06
027,62,1,2,12,31,581,911.1418073746609,911.9033958970103,"[89, 0, 165]",165,l,0.23828426538966596,colour,0.06
027,62,1,2,12,32,582,912.4231449068757,913.2153998480644,"[60, 0, 194]",194,a,0.2690582040231675,colour,0.06
027,62,1,2,12,33,583,913.7232074496569,914.3753788797185,"[53, 0, 201]",201,a,0.1289223114727065,colour,0.06
027,62,1,2,12,34,584,914.8950790527742,915.6794184786268,"[58, 0, 196]",196,a,0.2610438334522769,colour,0.06
027,62,1,2,12,35,585,916.1901677153073,917.1274469647324,"[90, 0, 164]",164,l,0.4140691215870902,colour,0.06
027,62,1,2,12,36,586,917.6432492445456,918.4634605507599,"[66, 0, 188]",188,a,0.29706576908938587,colour,0.06
027,62,1,2,12,37,587,918.9872417552397,919.8233876735903,"[7, 0, 247]",247,a,0.30697453871835023,colour,0.06
027,62,1,2,12,38,588,920.343845606083,921.2074063513428,"[95, 0, 159]",159,l,0.3448703931644559,colour,0.06
027,62,1,2,12,39,589,921.7297720734496,922.3994436532957,"[67, 0, 187]",187,a,0.15244712226558477,colour,0.06
027,62,1,2,12,40,590,922.9189953462919,924.5114329531789,"[77, 0, 177]",177,l,1.060929145431146,colour,0.06
027,62,1,2,12,41,591,925.0355965819908,925.7114393335069,"[55, 0, 199]",199,a,0.15773056528996676,colour,0.06
027,62,1,2,12,42,592,926.2258804818848,926.9913826512638,"[82, 0, 172]",172,l,0.2480232873931527,colour,0.06
027,62,1,2,12,43,593,927.5088776808698,928.2394039693754,"[92, 0, 162]",162,l,0.20711687463335693,colour,0.06
027,62,1,2,12,44,594,928.7550522554666,929.4714115122333,"[52, 0, 202]",202,a,0.19884099019691348,colour,0.06
027,62,1,2,12,45,595,929.9876623826567,930.8394034178928,"[85, 0, 169]",169,l,0.32844623050186783,colour,0.06
027,62,1,2,12,46,596,931.3392521811184,932.0314261475578,"[69, 0, 185]",185,a,0.1688307187287137,colour,0.06
027,62,1,2,12,47,597,932.5424211442005,934.3673794752685,"[78, 0, 176]",176,l,1.3020215323194861,colour,0.06
027,62,1,2,12,48,598,934.8878563124454,935.7594771144213,"[68, 0, 186]",186,a,0.3484606926795095,colour,0.06
027,62,1,2,12,49,599,936.2783730539959,937.1034286650829,"[56, 0, 198]",198,a,0.3018411509692669,colour,0.06
027,62,1,2,12,50,600,937.6220426110085,938.9273972613737,"[80, 0, 174]",174,l,0.781970048788935,colour,0.06
027,62,1,2,13,1,601,943.7296464366373,944.5433612543857,"[4, 0, 250]",250,a,0.29568770225159824,colour,0.06
027,62,1,2,13,2,602,945.0598070784472,945.7353934362764,"[80, 0, 174]",174,l,0.15853046625852585,colour,0.06
027,62,1,2,13,3,603,946.250411175075,946.9193809214048,"[52, 0, 202]",202,a,0.15176891954615712,colour,0.06
027,62,1,2,13,4,604,947.4408994810656,948.0794107592665,"[88, 0, 166]",166,l,0.1064939679345116,colour,0.06
027,62,1,2,13,5,605,948.5927247205982,949.2554075045045,"[63, 0, 191]",191,a,0.14768158656079322,colour,0.06
027,62,1,2,13,6,606,949.7769548147917,950.4954215411562,"[99, 0, 155]",155,l,0.20120327803306282,colour,0.06
027,62,1,2,13,7,607,951.01263851556,951.8314595457632,"[75, 0, 179]",179,a,0.28760125779081136,colour,0.06
027,62,1,2,13,8,608,952.3543931937311,953.4794447874883,"[74, 0, 180]",180,a,0.5942213350208476,colour,0.06
027,62,1,2,13,9,609,953.9930974564049,955.3674279183615,"[81, 0, 173]",173,l,0.856845278525725,colour,0.06
027,62,1,2,13,10,610,955.8800215354422,956.7594377298374,"[85, 0, 169]",169,l,0.36071127001196146,colour,0.06
027,62,1,2,13,11,611,957.2740545334527,958.0394015274942,"[89, 0, 165]",165,l,0.24819500418379903,colour,0.06
027,62,1,2,13,12,612,958.5583719039569,959.3754871874116,"[58, 0, 196]",196,a,0.30147093581035733,colour,0.06
027,62,1,2,13,13,613,959.8973133406835,960.6313988146139,"[94, 0, 160]",160,l,0.21628875832539052,colour,0.06
027,62,1,2,13,14,614,961.1489592227153,961.8233731013024,"[97, 0, 157]",157,l,0.14219373755622655,colour,0.06
027,62,1,2,13,15,615,962.33708090859,963.1353983200388,"[93, 0, 161]",161,l,0.28114888013806194,colour,0.06
027,62,1,2,13,16,616,963.6499343852047,964.4314148835838,"[50, 0, 204]",204,a,0.24760541680734605,colour,0.06
027,62,1,2,13,17,617,964.9509803612018,966.327373394277,"[71, 0, 183]",183,a,0.8585502373753116,colour,0.06
027,62,1,2,13,18,618,966.8478451113915,967.9674139762064,"[77, 0, 177]",177,l,0.6016472999472171,colour,0.06
027,62,1,2,13,19,619,968.4813525771024,969.4073690146906,"[82, 0, 172]",172,l,0.4145114105194807,colour,0.06
027,62,1,2,13,20,620,969.9730247051921,970.8153520352207,"[95, 0, 159]",159,l,0.31044865353032947,colour,0.06
027,62,1,2,13,21,621,971.3324650343275,972.1113516634796,"[53, 0, 201]",201,a,0.24606272240635008,colour,0.06
027,62,1,2,13,22,622,972.6303539414657,973.6873595939251,"[60, 0, 194]",194,a,0.5394491828046739,colour,0.06
027,62,1,2,13,23,623,974.2060664874734,975.0314040922094,"[57, 0, 197]",197,a,0.3080064149107784,colour,0.06
027,62,1,2,13,24,624,975.5510152559727,976.3593489569612,"[33, 0, 221]",221,a,0.29111633263528347,colour,0.06
027,62,1,2,13,25,625,976.8820013989462,977.8233471073909,"[65, 0, 189]",189,a,0.4231953191338107,colour,0.06
027,62,1,2,13,26,626,978.3349576852052,979.2073740559863,"[70, 0, 184]",184,a,0.35828045301605016,colour,0.06
027,62,1,2,13,27,627,979.7244957196526,981.1113654481014,"[78, 0, 176]",176,l,0.8571146690519527,colour,0.06
027,62,1,2,13,28,628,981.6216255280888,982.4633786308113,"[56, 0, 198]",198,a,0.324929186492227,colour,0.06
027,62,1,2,13,29,629,982.9795712120831,983.8073939845199,"[90, 0, 164]",164,l,0.3092501803766936,colour,0.06
027,62,1,2,13,30,630,984.3243305407232,985.1833908085246,"[69, 0, 185]",185,a,0.34039945423137397,colour,0.06
027,62,1,2,13,31,631,985.7021449636668,986.5193795823725,"[86, 0, 168]",168,l,0.28995054867118597,colour,0.06
027,62,1,2,13,32,632,987.039277466014,987.8793712959159,"[87, 0, 167]",167,l,0.3216011885087937,colour,0.06
027,62,1,2,13,33,633,988.4004944341723,989.1993880422087,"[67, 0, 187]",187,a,0.2779583343071863,colour,0.06
027,62,1,2,13,34,634,989.7192540243268,990.6233808994293,"[96, 0, 158]",158,l,0.3735983023652807,colour,0.06
027,62,1,2,13,35,635,991.1380792291602,991.847352410201,"[55, 0, 199]",199,a,0.19191520975437015,colour,0.06
027,62,1,2,13,36,636,992.3595632091165,993.20739374822,"[73, 0, 181]",181,a,0.3311334413010627,colour,0.06
027,62,1,2,13,37,637,993.7213122630492,994.5193248378346,"[76, 0, 178]",178,a,0.2657321753213182,colour,0.06
027,62,1,2,13,38,638,995.0350845822832,995.8153540045023,"[68, 0, 186]",186,a,0.26240378350485116,colour,0.06
027,62,1,2,13,39,639,996.3238598947646,997.1513746797573,"[51, 0, 203]",203,a,0.31043486890848726,colour,0.06
027,62,1,2,13,40,640,997.669320663088,998.4553662294056,"[92, 0, 162]",162,l,0.25390064995735884,colour,0.06
027,62,1,2,13,41,641,998.9697077347664,999.7594042528654,"[91, 0, 163]",163,l,0.2685647151665762,colour,0.06
027,62,1,2,13,42,642,1000.282601777697,1000.9833450437291,"[84, 0, 170]",170,l,0.1673199258511886,colour,0.06
027,62,1,2,13,43,643,1001.4936063053319,1002.1673951502889,"[98, 0, 156]",156,l,0.15509534219745547,colour,0.06
027,62,1,2,13,44,644,1002.6827090613078,1003.2715410088422,"[61, 0, 193]",193,a,0.056710268021561205,colour,0.06
027,62,1,2,13,45,645,1003.7944388168398,1004.3993790624663,"[37, 0, 217]",217,a,0.07288473227526993,colour,0.06
027,62,1,2,13,46,646,1004.9223910858855,1005.8153969337,"[83, 0, 171]",171,l,0.37088667321950197,colour,0.06
027,62,1,2,13,47,647,1006.3260433765827,1007.2553716645343,"[59, 0, 195]",195,a,0.40954225650057197,colour,0.06
027,62,1,2,13,48,648,1007.7686257612659,1008.6233663271414,"[54, 0, 200]",200,a,0.3365133765619248,colour,0.06
027,62,1,2,13,49,649,1009.1334795026341,1009.9993982034503,"[79, 0, 175]",175,l,0.3435762155568227,colour,0.06
027,62,1,2,13,50,650,1010.5101305047283,1011.1673597041517,"[64, 0, 190]",190,a,0.12709447252564132,colour,0.06
027,62,1,2,14,1,651,1015.7854587360052,1016.4553650479065,"[64, 0, 190]",190,a,0.15176261810120195,colour,0.06
027,62,1,2,14,2,652,1016.9724189700792,1017.7433061946649,"[60, 0, 194]",194,a,0.25225319247692823,colour,0.06
027,62,1,2,14,3,653,1018.2609000797383,1019.2073476682417,"[94, 0, 160]",160,l,0.40756160533055663,colour,0.06
027,62,1,2,14,4,654,1019.7203619128559,1020.3273320404114,"[52, 0, 202]",202,a,0.08841250161640346,colour,0.06
027,62,1,2,14,5,655,1020.8439531259937,1021.4873685735511,"[91, 0, 163]",163,l,0.11092158360406756,colour,0.06
027,62,1,2,14,6,656,1022.0006270026788,1022.6313700638711,"[55, 0, 199]",199,a,0.09830512339249253,colour,0.06
027,62,1,2,14,7,657,1023.1413524826057,1023.7353509009117,"[56, 0, 198]",198,a,0.06240173545666039,colour,0.06
027,62,1,2,14,8,658,1024.2529306075303,1025.4233737314353,"[83, 0, 171]",171,l,0.6525790606392547,colour,0.06
027,62,1,2,14,9,659,1025.9405647120439,1027.199359685299,"[76, 0, 178]",178,l,0.7402999688638374,colour,0.06
027,62,1,2,14,10,660,1027.7214438075898,1028.5673358371714,"[59, 0, 195]",195,a,0.3129641474224627,colour,0.06
027,62,1,2,14,11,661,1029.0845803808188,1029.9993450342445,"[99, 0, 155]",155,l,0.39493254211265594,colour,0.06
027,62,1,2,14,12,662,1030.5102553538745,1032.7193520918954,"[77, 0, 177]",177,a,1.6913488592253998,colour,0.06
027,62,1,2,14,13,663,1033.2327188287163,1034.0873506929493,"[53, 0, 201]",201,a,0.32203993282746524,colour,0.06
027,62,1,2,14,14,664,1034.6080504469573,1035.4153676314745,"[62, 0, 192]",192,a,0.28930188447702676,colour,0.06
027,62,1,2,14,15,665,1035.937966510537,1036.8553258208558,"[84, 0, 170]",170,l,0.3955193725414574,colour,0.06
027,62,1,2,14,16,666,1037.3660514268558,1038.2153391957982,"[66, 0, 188]",188,a,0.31568089651409537,colour,0.06
027,62,1,2,14,17,667,1038.7272951764753,1039.6072974135168,"[90, 0, 164]",164,l,0.3580059423111379,colour,0.06
027,62,1,2,14,18,668,1040.1173408783507,1040.9993391265161,"[63, 0, 191]",191,a,0.35313091753050685,colour,0.06
027,62,1,2,14,19,669,1041.518992431811,1042.3913158549694,"[74, 0, 180]",180,a,0.3407125618541613,colour,0.06
027,62,1,2,14,20,670,1042.9061138277175,1043.7192961658584,"[68, 0, 186]",186,a,0.281382430694066,colour,0.06
027,62,1,2,14,21,671,1044.232664871728,1045.0553459858056,"[85, 0, 169]",169,l,0.2900056871585548,colour,0.06
027,62,1,2,14,22,672,1045.577955498593,1046.319325940567,"[96, 0, 158]",158,l,0.22315388661809266,colour,0.06
027,62,1,2,14,23,673,1046.8300460326718,1047.9833627667977,"[92, 0, 162]",162,l,0.63488120038528,colour,0.06
027,62,1,2,14,24,674,1048.5027411675546,1049.2153293497395,"[34, 0, 220]",220,a,0.1956031828885898,colour,0.06
027,62,1,2,14,25,675,1049.715336438967,1050.567344895564,"[98, 0, 156]",156,l,0.3345795930363238,colour,0.06
027,62,1,2,14,26,676,1051.0823267943924,1051.6713296710514,"[51, 0, 203]",203,a,0.0717929913662374,colour,0.06
027,62,1,2,14,27,677,1052.1933050919324,1053.0633713840507,"[50, 0, 204]",204,a,0.3525070655159652,colour,0.06
027,62,1,2,14,28,678,1053.5833385846345,1054.383339293534,"[9, 0, 245]",245,a,0.26801018009427935,colour,0.06
027,62,1,2,14,29,679,1054.8956603693077,1056.12730163557,"[75, 0, 179]",179,l,0.7126567113446072,colour,0.06
027,62,1,2,14,30,680,1056.6393545023166,1057.831301613478,"[70, 0, 184]",184,a,0.6740409063640982,colour,0.06
027,62,1,2,14,31,681,1058.3427089668112,1059.2553452767897,"[72, 0, 182]",182,a,0.3956899077165872,colour,0.06
027,62,1,2,14,32,682,1059.7599276740802,1060.5776518433122,"[65, 0, 189]",189,a,0.29946586617734283,colour,0.06
027,62,1,2,14,33,683,1061.0905782603659,1062.0473044397077,"[87, 0, 167]",167,l,0.4272330275271088,colour,0.06
027,62,1,2,14,34,684,1062.5655099673895,1063.2473068815889,"[54, 0, 200]",200,a,0.1587565338704735,colour,0.06
027,62,1,2,14,35,685,1063.7686549058417,1064.5913119952893,"[88, 0, 166]",166,l,0.29938355239573866,colour,0.06
027,62,1,2,14,36,686,1065.1102386548882,1065.935337982839,"[93, 0, 161]",161,l,0.301736781722866,colour,0.06
027,62,1,2,14,37,687,1066.4540255778702,1067.1833593009505,"[82, 0, 172]",172,l,0.20605545991566032,colour,0.06
027,62,1,2,14,38,688,1067.6983148120344,1068.3513030785834,"[86, 0, 168]",168,l,0.12971866794396192,colour,0.06
027,62,1,2,14,39,689,1068.8701899597654,1069.6393218130106,"[8, 0, 246]",246,a,0.24592211924027652,colour,0.06
027,62,1,2,14,40,690,1070.1427384264534,1070.9672796747182,"[57, 0, 197]",197,a,0.29590983130037785,colour,0.06
027,62,1,2,14,41,691,1071.471107069403,1072.7113408721052,"[79, 0, 175]",175,l,0.7169582964852452,colour,0.06
027,62,1,2,14,42,692,1073.2211614201078,1074.0713152562967,"[78, 0, 176]",176,l,0.3268743915250525,colour,0.06
027,62,1,2,14,43,693,1074.5804816263262,1075.3753371321363,"[95, 0, 159]",159,l,0.27777716517448425,colour,0.06
027,62,1,2,14,44,694,1075.8867173099425,1076.6633302666014,"[81, 0, 173]",173,l,0.2613569409586489,colour,0.06
027,62,1,2,14,45,695,1077.1755725732073,1077.9832832098473,"[61, 0, 193]",193,a,0.28478604718111455,colour,0.06
027,62,1,2,14,46,696,1078.5037222377723,1079.3273462188663,"[89, 0, 165]",165,l,0.3007281422615051,colour,0.06
027,62,1,2,14,47,697,1079.8475138869835,1080.6552887205034,"[69, 0, 185]",185,a,0.275900095468387,colour,0.06
027,62,1,2,14,48,698,1081.1722142490325,1082.2313447002089,"[71, 0, 183]",183,a,0.5283671462675557,colour,0.06
027,62,1,2,14,49,699,1082.7458279901184,1083.4554426355753,"[58, 0, 196]",196,a,0.19333384279161692,colour,0.06
027,62,1,2,14,50,700,1083.9651068267412,1084.831291767303,"[80, 0, 174]",174,l,0.3480963851325214,colour,0.06
027,62,1,2,15,1,701,1089.9738198800478,1091.1593035858823,"[55, 0, 199]",199,a,0.6610038187354803,colour,0.06
027,62,1,2,15,2,702,1091.6709287359845,1093.8473240532912,"[68, 0, 186]",186,l,1.6531796756898984,colour,0.06
027,62,1,2,15,3,703,1094.358454926638,1095.1754150348715,"[86, 0, 168]",168,l,0.29374407266732305,colour,0.06
027,62,1,2,15,4,704,1095.690550927422,1096.55127913272,"[59, 0, 195]",195,a,0.33736014529131353,colour,0.06
027,62,1,2,15,5,705,1097.0655048474437,1097.8153028044617,"[89, 0, 165]",165,l,0.22651457390747964,colour,0.06
027,62,1,2,15,6,706,1098.3310487644048,1098.9832816345152,"[63, 0, 191]",191,a,0.1288388161920011,colour,0.06
027,62,1,2,15,7,707,1099.502973930561,1100.9322683477076,"[75, 0, 179]",179,l,0.9060476616723463,colour,0.06
027,62,1,2,15,8,708,1101.4423189017689,1102.2472785246791,"[94, 0, 160]",160,l,0.2817557966336608,colour,0.06
027,62,1,2,15,9,709,1102.7548092525685,1103.5434278143803,"[25, 0, 229]",229,a,0.26533163408748806,colour,0.06
027,62,1,2,15,10,710,1104.0516706155613,1104.8392927472014,"[64, 0, 190]",190,a,0.2646597328130156,colour,0.06
027,62,1,2,15,11,711,1105.341622345848,1106.5033000349067,"[74, 0, 180]",180,l,0.6382962382631376,colour,0.06
027,62,1,2,15,12,712,1107.0134655920556,1107.6553044744069,"[58, 0, 196]",196,a,0.11844167776871473,colour,0.06
027,62,1,2,15,13,713,1108.1697298689978,1109.4872697183164,"[99, 0, 155]",155,l,0.7941654877504334,colour,0.06
027,62,1,2,15,14,714,1109.997825576691,1111.2392543079332,"[76, 0, 178]",178,l,0.7157208325807005,colour,0.06
027,62,1,2,15,15,715,1111.7488527267706,1112.3513018970843,"[51, 0, 203]",203,a,0.07909843942616135,colour,0.06
027,62,1,2,15,16,716,1112.8582737575052,1113.6392714007525,"[79, 0, 175]",175,l,0.2576087092747912,colour,0.06
027,62,1,2,15,17,717,1114.155153237516,1114.9433346303413,"[87, 0, 167]",167,l,0.2648243603762239,colour,0.06
027,62,1,2,15,18,718,1115.4458544566296,1116.2152801189804,"[54, 0, 200]",200,a,0.2461107715498656,colour,0.06
027,62,1,2,15,19,719,1116.7342697938439,1117.5753301216755,"[62, 0, 192]",192,a,0.3178143600234762,colour,0.06
027,62,1,2,15,20,720,1118.093579366221,1118.9272924982943,"[56, 0, 198]",198,a,0.3103785489220172,colour,0.06
027,62,1,2,15,21,721,1119.4373233601218,1120.2473403584445,"[90, 0, 164]",164,l,0.2866312152473256,colour,0.06
027,62,1,2,15,22,722,1120.7565996760968,1121.6552969913464,"[85, 0, 169]",169,l,0.3685669207479805,colour,0.06
027,62,1,2,15,23,723,1122.1795519923326,1123.0953241037205,"[26, 0, 228]",228,a,0.38384499179665,colour,0.06
027,62,1,2,15,24,724,1123.6161487067584,1124.4952549443115,"[67, 0, 187]",187,a,0.34733823174610734,colour,0.06
027,62,1,2,15,25,725,1125.0060601071455,1125.8152976845158,"[65, 0, 189]",189,a,0.2777086360147223,colour,0.06
027,62,1,2,15,26,726,1126.3244266391266,1127.0233018939616,"[91, 0, 163]",163,l,0.1761523144086823,colour,0.06
027,62,1,2,15,27,727,1127.5356635358185,1128.207304739044,"[53, 0, 201]",201,a,0.1541922534815967,colour,0.06
027,62,1,2,15,28,728,1128.7262384878704,1129.5353185267886,"[93, 0, 161]",161,l,0.2922797534847632,colour,0.06
027,62,1,2,15,29,729,1130.0521806461038,1130.7192595381057,"[57, 0, 197]",197,a,0.1414403102826327,colour,0.06
027,62,1,2,15,30,730,1131.2355068639154,1131.8392915657023,"[70, 0, 184]",184,a,0.08575404167640954,colour,0.06
027,62,1,2,15,31,731,1132.3556141160661,1132.9592798763188,"[72, 0, 182]",182,a,0.08043200173415244,colour,0.06
027,62,1,2,15,32,732,1133.480499506928,1134.0476002179785,"[92, 0, 162]",162,l,0.04372792493086308,colour,0.06
027,62,1,2,15,33,733,1134.558623965364,1135.3353590142215,"[66, 0, 188]",188,a,0.25352373952046037,colour,0.06
027,62,1,2,15,34,734,1135.8439625783358,1136.5272809192538,"[50, 0, 204]",204,a,0.17231664899736643,colour,0.06
027,62,1,2,15,35,735,1137.03470333945,1137.8632551208138,"[11, 0, 243]",243,a,0.30562443484086543,colour,0.06
027,62,1,2,15,36,736,1138.3785461887019,1139.2712708305335,"[84, 0, 170]",170,l,0.36942432331852615,colour,0.06
027,62,1,2,15,37,737,1139.7847604471026,1140.6392749453662,"[98, 0, 156]",156,l,0.3314745118841529,colour,0.06
027,62,1,2,15,38,738,1141.153901989106,1141.9832694252254,"[77, 0, 177]",177,l,0.3121571571100503,colour,0.06
027,62,1,2,15,39,739,1142.4916201402666,1143.295225327136,"[88, 0, 166]",166,l,0.2803544928319752,colour,0.06
027,62,1,2,15,40,740,1143.8040793773253,1145.1353313662112,"[80, 0, 174]",174,l,0.8080072026932612,colour,0.06
027,62,1,2,15,41,741,1145.6360777042573,1146.519268124015,"[60, 0, 194]",194,a,0.3598652889486402,colour,0.06
027,62,1,2,15,42,742,1147.0295817671577,1148.07126681332,"[61, 0, 193]",193,a,0.5183760630898178,colour,0.06
027,62,1,2,15,43,743,1148.5920894470764,1149.39148757176,"[95, 0, 159]",159,l,0.2762100521940738,colour,0.06
027,62,1,2,15,44,744,1149.9044486471685,1150.7192957720254,"[73, 0, 181]",181,a,0.29146370477974415,colour,0.06
027,62,1,2,15,45,745,1151.2425700967433,1152.0472426059423,"[71, 0, 183]",183,a,0.2825907500227913,colour,0.06
027,62,1,2,15,46,746,1152.56035294896,1153.8392474550055,"[83, 0, 171]",171,l,0.747681429143995,colour,0.06
027,62,1,2,15,47,747,1154.3531923574628,1155.327270600479,"[96, 0, 158]",158,l,0.44215033564250916,colour,0.06
027,62,1,2,15,48,748,1155.8502845930634,1156.6072607858805,"[69, 0, 185]",185,a,0.23845086223445833,colour,0.06
027,62,1,2,15,49,749,1157.119091523462,1157.9832383114845,"[82, 0, 172]",172,l,0.3455399313243106,colour,0.06
027,62,1,2,15,50,750,1158.4974396076286,1159.239249975537,"[52, 0, 202]",202,a,0.22305384976789355,colour,0.06
027,62,1,2,16,1,751,1169.2474789922126,1170.615243254928,"[79, 0, 175]",175,l,0.8492889505578205,colour,0.06
027,62,1,2,16,2,752,1171.1273075432982,1173.407256374834,"[21, 0, 233]",233,a,1.747866142890416,colour,0.06
027,62,1,2,16,3,753,1173.9169032367645,1174.6392698254203,"[56, 0, 198]",198,a,0.19908911315724254,colour,0.06
027,62,1,2,16,4,754,1175.1512876398629,1175.7992342847865,"[84, 0, 170]",170,l,0.12486254784744233,colour,0.06
027,62,1,2,16,5,755,1176.3106660564663,1177.167316381121,"[78, 0, 176]",176,l,0.3300125558162108,colour,0.06
027,62,1,2,16,6,756,1177.6734643159434,1178.4312195359962,"[52, 0, 202]",202,a,0.2344816830009222,colour,0.06
027,62,1,2,16,7,757,1178.9390810944606,1179.7992803647649,"[86, 0, 168]",168,l,0.33690604101866484,colour,0.06
027,62,1,2,16,8,758,1180.3141078759218,1181.0872530192137,"[59, 0, 195]",195,a,0.2470252817729488,colour,0.06
027,62,1,2,16,9,759,1181.649697683868,1182.4472522158176,"[73, 0, 181]",181,l,0.27413369657006115,colour,0.06
027,62,1,2,16,10,760,1182.9677093606442,1184.2233252095757,"[92, 0, 162]",162,l,0.7241333813872188,colour,0.06
027,62,1,2,16,11,761,1184.7457531593973,1185.3912461441942,"[54, 0, 200]",200,a,0.128791160765104,colour,0.06
027,62,1,2,16,12,762,1185.9025861498667,1186.5752777401358,"[82, 0, 172]",172,l,0.1446139207109809,colour,0.06
027,62,1,2,16,13,763,1187.088535381481,1187.7992401923984,"[88, 0, 166]",166,l,0.19334999029524624,colour,0.06
027,62,1,2,16,14,764,1188.3120606648736,1189.591242284514,"[76, 0, 178]",178,l,0.7609445842681453,colour,0.06
027,62,1,2,16,15,765,1190.1082324037561,1191.0072637003614,"[53, 0, 201]",201,a,0.38221762038301677,colour,0.06
027,62,1,2,16,16,766,1191.524456256302,1192.871299817576,"[74, 0, 180]",180,l,0.8244325468549505,colour,0.06
027,62,1,2,16,17,767,1193.3856984305894,1194.1192470926326,"[94, 0, 160]",160,l,0.21639706601854414,colour,0.06
027,62,1,2,16,18,768,1194.636911082198,1195.471220497042,"[75, 0, 179]",179,a,0.31587506271898746,colour,0.06
027,62,1,2,16,19,769,1195.981783838477,1196.7192682027817,"[65, 0, 189]",189,a,0.2189365845406428,colour,0.06
027,62,1,2,16,20,770,1197.2356092638802,1198.0472075536381,"[63, 0, 191]",191,a,0.2938815248198807,colour,0.06
027,62,1,2,16,21,771,1198.5661050686613,1199.3992553949356,"[64, 0, 190]",190,a,0.30007790273521096,colour,0.06
027,62,1,2,16,22,772,1199.9111385140568,1200.5912485860754,"[85, 0, 169]",169,l,0.15465265943203121,colour,0.06
027,62,1,2,16,23,773,1201.0905518726213,1201.855249020853,"[83, 0, 171]",171,l,0.24680000182706863,colour,0.06
027,62,1,2,16,24,774,1202.3739763944177,1202.983221376082,"[98, 0, 156]",156,l,0.08586825698148459,colour,0.06
027,62,1,2,16,25,775,1203.4992989542661,1204.2792296689004,"[60, 0, 194]",194,a,0.2570329066365957,colour,0.06
027,62,1,2,16,26,776,1204.795838939026,1205.655226492905,"[97, 0, 157]",157,l,0.33609905070625246,colour,0.06
027,62,1,2,16,27,777,1206.1583303925581,1206.8712702791672,"[58, 0, 196]",196,a,0.1896116049028933,colour,0.06
027,62,1,2,16,28,778,1207.3927490602946,1208.191213770071,"[61, 0, 193]",193,a,0.27524473587982357,colour,0.06
027,62,1,2,16,29,779,1208.7052642233903,1209.4872106413823,"[89, 0, 165]",165,l,0.25880088098347187,colour,0.06
027,62,1,2,16,30,780,1209.9964360882295,1210.8472086563706,"[51, 0, 203]",203,a,0.32759867410641164,colour,0.06
027,62,1,2,16,31,781,1211.363661963609,1212.0233034692938,"[99, 0, 155]",155,l,0.0980818128446117,colour,0.06
027,62,1,2,16,32,782,1212.5409887265414,1213.959276725538,"[80, 0, 174]",174,l,0.8952956679277122,colour,0.06
027,62,1,2,16,33,783,1214.4784266958013,1215.2072901667561,"[71, 0, 183]",183,a,0.20554149092640728,colour,0.06
027,62,1,2,16,34,784,1215.7284562342102,1216.3992455487605,"[57, 0, 197]",197,a,0.15912438603118062,colour,0.06
027,62,1,2,16,35,785,1216.9095469826134,1217.703208347666,"[72, 0, 182]",182,a,0.2702283203834668,colour,0.06
027,62,1,2,16,36,786,1218.2221054687398,1218.9352221920853,"[66, 0, 188]",188,a,0.18980852782260627,colour,0.06
027,62,1,2,16,37,787,1219.4565064134076,1220.327206009766,"[91, 0, 163]",163,l,0.3473488655872643,colour,0.06
027,62,1,2,16,38,788,1220.8471283118706,1222.2952127240133,"[77, 0, 177]",177,l,0.9261282897787169,colour,0.06
027,62,1,2,16,39,789,1222.8039395619417,1223.6952313923975,"[69, 0, 185]",185,a,0.367934798123315,colour,0.06
027,62,1,2,16,40,790,1224.2101561835734,1225.087388502201,"[93, 0, 161]",161,l,0.35402534157037735,colour,0.06
027,62,1,2,16,41,791,1225.6015890107956,1226.9831914437236,"[81, 0, 173]",173,l,0.8592764892382547,colour,0.06
027,62,1,2,16,42,792,1227.4949780706083,1228.4552165679634,"[62, 0, 192]",192,a,0.43696102185640484,colour,0.06
027,62,1,2,16,43,793,1228.9636811044766,1229.7991980508668,"[87, 0, 167]",167,l,0.312238683225587,colour,0.06
027,62,1,2,16,44,794,1230.3074408521643,1231.1992202638648,"[70, 0, 184]",184,a,0.3684846069663763,colour,0.06
027,62,1,2,16,45,795,1231.7131438986398,1232.487253964413,"[95, 0, 159]",159,l,0.2564007838955149,colour,0.06
027,62,1,2,16,46,796,1233.002099592588,1233.86320785922,"[68, 0, 186]",186,a,0.3439035014016554,colour,0.06
027,62,1,2,16,47,797,1234.3788561454276,1235.2872365564108,"[7, 0, 247]",247,a,0.3913678425597027,colour,0.06
027,62,1,2,16,48,798,1235.800314997905,1236.5592147342395,"[31, 0, 223]",223,a,0.24260199826676399,colour,0.06
027,62,1,2,16,49,799,1237.0729327815352,1237.8312338719843,"[55, 0, 199]",199,a,0.24042442406062037,colour,0.06
027,62,1,2,16,50,800,1238.3417716134572,1239.0952453344362,"[50, 0, 204]",204,a,0.23668918933253735,colour,0.06
