id,age,condition,counterbalance,block,trialinblock,trial,tstart,tend,trialstim,trialintensity,response,RT,trialtype,colourfreq
061,61,0,1,Practice,1,NA,5.119945853948593e-06,4.150655517121777,"[94, 0, 160]",160,l,3.5333000663667917,colour,0.5
061,61,0,1,Practice,2,NA,4.6571051380597055,5.678675291361287,"[40, 0, 214]",214,a,0.4983021302614361,colour,0.5
061,61,0,1,Practice,3,NA,6.188269771868363,6.806666157208383,"[16, 0, 238]",238,a,0.09408585191704333,colour,0.5
061,61,0,1,Practice,4,NA,7.314224848290905,7.918748011114076,"[88, 0, 166]",166,l,0.08139534876681864,colour,0.5
061,61,0,1,Practice,5,NA,8.439254780532792,14.366664251079783,"[0, 0, 254]",254,a,5.404169804183766,colour,0.5
061,61,0,1,Practice,6,NA,14.877105500316247,16.126632885308936,"[79, 0, 175]",175,l,0.7265783769544214,colour,0.5
061,61,0,1,Practice,7,NA,16.642309134360403,20.622654647566378,"[64, 0, 190]",190,a,3.457376812817529,colour,0.5
061,61,0,1,Practice,8,NA,21.142307559028268,21.71065597399138,"[22, 0, 232]",232,a,0.045047308783978224,colour,0.5
061,61,0,1,Practice,9,NA,22.220414294395596,22.982694016303867,"[11, 0, 243]",243,a,0.2389148126821965,colour,0.5
061,61,0,1,Practice,10,NA,23.501621463801712,24.230692885350436,"[96, 0, 158]",158,l,0.20570375537499785,colour,0.5
061,61,0,1,1,1,1,5.002076749689877,5.624022080563009,"[99, 0, 155]",155,l,0.09779351763427258,colour,0.5
061,61,0,1,1,2,2,6.143586770631373,6.68004863220267,"[54, 0, 200]",200,a,0.013217075262218714,colour,0.5
061,61,0,1,1,3,3,7.190256724599749,7.735965694533661,"[76, 0, 178]",178,a,0.02222275617532432,colour,0.5
061,61,0,1,1,4,4,8.252785672200844,9.02400372736156,"[80, 0, 174]",174,l,0.24847542238421738,colour,0.5
061,61,0,1,1,5,5,9.534074367489666,10.168008368462324,"[87, 0, 167]",167,l,0.11081839608959854,colour,0.5
061,61,0,1,1,6,6,10.67478369991295,11.256019541062415,"[55, 0, 199]",199,a,0.05803359020501375,colour,0.5
061,61,0,1,1,7,7,11.756341706961393,12.3680391672533,"[56, 0, 198]",198,a,0.08849245239980519,colour,0.5
061,61,0,1,1,8,8,12.881288931705058,15.287987226853147,"[67, 0, 187]",187,a,1.883366075111553,colour,0.5
061,61,0,1,1,9,9,15.803134147077799,16.35204272135161,"[88, 0, 166]",166,l,0.02560116653330624,colour,0.5
061,61,0,1,1,10,10,16.865623316261917,17.511980005307123,"[27, 0, 227]",227,a,0.12291813059709966,colour,0.5
061,61,0,1,1,11,11,18.02205340238288,18.75997296650894,"[21, 0, 233]",233,a,0.2145105442032218,colour,0.5
061,61,0,1,1,12,12,19.272099088411778,19.872019374044612,"[14, 0, 240]",240,a,0.07734936964698136,colour,0.5
061,61,0,1,1,13,13,20.381316500948742,22.8640203634277,"[32, 0, 222]",222,a,1.9592830270994455,colour,0.5
061,61,0,1,1,14,14,23.381460648495704,25.632010457338765,"[26, 0, 228]",228,a,1.7258147096727043,colour,0.5
061,61,0,1,1,15,15,26.148715432267636,28.471969198202714,"[90, 0, 164]",164,l,1.7999829859472811,colour,0.5
061,61,0,1,1,16,16,28.99238971527666,29.72798873926513,"[15, 0, 239]",239,a,0.21221875469200313,colour,0.5
061,61,0,1,1,17,17,30.242468484444544,31.079984199022874,"[39, 0, 215]",215,a,0.3142547805327922,colour,0.5
061,61,0,1,1,18,18,31.58652164740488,32.60800830554217,"[65, 0, 189]",189,a,0.4981142657343298,colour,0.5
061,61,0,1,1,19,19,33.12036955356598,35.255967947188765,"[57, 0, 197]",197,a,1.6117041553370655,colour,0.5
061,61,0,1,1,20,20,35.77711983630434,37.111997176893055,"[7, 0, 247]",247,a,0.8093131957575679,colour,0.5
061,61,0,1,1,21,21,37.623077244265005,38.17599438223988,"[18, 0, 236]",236,a,0.029619970126077533,colour,0.5
061,61,0,1,1,22,22,38.68846708862111,40.96797993290238,"[60, 0, 194]",194,a,1.7560837380588055,colour,0.5
061,61,0,1,1,23,23,41.48542888252996,42.128023555269465,"[52, 0, 202]",202,a,0.11919825593940914,colour,0.5
061,61,0,1,1,24,24,42.64172072871588,44.447968621505424,"[97, 0, 157]",157,l,1.2829247312620282,colour,0.5
061,61,0,1,1,25,25,44.95418469165452,45.967981508234516,"[79, 0, 175]",175,l,0.49037361796945333,colour,0.5
061,61,0,1,1,26,26,46.48542770091444,47.12796132755466,"[1, 0, 253]",253,a,0.11915178201161325,colour,0.5
061,61,0,1,1,27,27,47.6416978854686,49.04801336233504,"[47, 0, 207]",207,a,0.8829871951602399,colour,0.5
061,61,0,1,1,28,28,49.56354191945866,50.14393886877224,"[40, 0, 214]",214,a,0.06339304544962943,colour,0.5
061,61,0,1,1,29,29,50.65117381839082,51.591961447149515,"[46, 0, 208]",208,a,0.4175538702402264,colour,0.5
061,61,0,1,1,30,30,52.10440855380148,53.208015237236395,"[93, 0, 161]",161,l,0.5802374419290572,colour,0.5
061,61,0,1,1,31,31,53.72933411691338,54.70396847021766,"[66, 0, 188]",188,a,0.4512509333435446,colour,0.5
061,61,0,1,1,32,32,55.213659442961216,55.88000105554238,"[91, 0, 163]",163,l,0.1430003340356052,colour,0.5
061,61,0,1,1,33,33,56.40125298150815,57.64801517408341,"[43, 0, 211]",211,a,0.7236087785568088,colour,0.5
061,61,0,1,1,34,34,58.16745855961926,58.887944533955306,"[13, 0, 241]",241,a,0.19729199423454702,colour,0.5
061,61,0,1,1,35,35,59.401792550459504,60.34399447985925,"[31, 0, 223]",223,a,0.41928049083799124,colour,0.5
061,61,0,1,1,36,36,60.854930399684235,61.640001197345555,"[59, 0, 195]",195,a,0.261748030083254,colour,0.5
061,61,0,1,1,37,37,62.151785461232066,62.78393415850587,"[33, 0, 221]",221,a,0.10875424975529313,colour,0.5
061,61,0,1,1,38,38,63.2924424118828,63.927968337899074,"[12, 0, 242]",242,a,0.11214408138766885,colour,0.5
061,61,0,1,1,39,39,64.44857790111564,65.02401554281823,"[81, 0, 173]",173,l,0.052018775371834636,colour,0.5
061,61,0,1,1,40,40,65.54237270122394,66.22395142470486,"[0, 0, 254]",254,a,0.158109838841483,colour,0.5
061,61,0,1,1,41,41,66.74559483351186,67.35995784285478,"[38, 0, 216]",216,a,0.09104221081361175,colour,0.5
061,61,0,1,1,42,42,67.87055111653171,68.46397097525187,"[44, 0, 210]",210,a,0.07014277717098594,colour,0.5
061,61,0,1,1,43,43,68.97988865198568,69.59195278258994,"[73, 0, 181]",181,l,0.08875160291790962,colour,0.5
061,61,0,1,1,44,44,70.10497411643155,70.76793692493811,"[9, 0, 245]",245,a,0.13962231762707233,colour,0.5
061,61,0,1,1,45,45,71.28205511951819,73.3279586492572,"[36, 0, 218]",218,a,1.5226075435057282,colour,0.5
061,61,0,1,1,46,46,73.84448442421854,74.52795478957705,"[83, 0, 171]",171,l,0.16011766530573368,colour,0.5
061,61,0,1,1,47,47,75.04956944775768,76.0560072530061,"[71, 0, 183]",183,l,0.48318159743212163,colour,0.5
061,61,0,1,1,48,48,76.56522836769,77.48001625807956,"[78, 0, 176]",176,l,0.3914989933837205,colour,0.5
061,61,0,1,1,49,49,77.98837918229401,78.64797460800037,"[30, 0, 224]",224,a,0.13611511955969036,colour,0.5
061,61,0,1,1,50,50,79.16036027460359,79.86393568664789,"[29, 0, 225]",225,a,0.1803113273344934,colour,0.5
061,61,0,1,2,1,51,86.02644675364718,86.56797504913993,"[91, 0, 163]",163,l,0.017333158990368247,colour,0.5
061,61,0,1,2,2,52,87.08973779319786,87.69590053660795,"[25, 0, 229]",229,a,0.08275017887353897,colour,0.5
061,61,0,1,2,3,53,88.21471652551554,89.08797218184918,"[23, 0, 231]",231,a,0.3482751911506057,colour,0.5
061,61,0,1,2,4,54,89.60777199780568,90.38391824718565,"[0, 0, 254]",254,a,0.25131347635760903,colour,0.5
061,61,0,1,2,5,55,90.8903674739413,91.51196937146597,"[63, 0, 191]",191,l,0.0981641267426312,colour,0.5
061,61,0,1,2,6,56,92.03105199406855,92.75195583887398,"[90, 0, 164]",164,l,0.197534209350124,colour,0.5
061,61,0,1,2,7,57,93.2654730246868,93.80798947974108,"[27, 0, 227]",227,a,0.019493010127916932,colour,0.5
061,61,0,1,2,8,58,94.32797755394131,95.22395772626624,"[57, 0, 197]",197,a,0.3727105737198144,colour,0.5
061,61,0,1,2,9,59,95.73434856324457,96.39991941908374,"[21, 0, 233]",233,a,0.14268053090199828,colour,0.5
061,61,0,1,2,10,60,96.90609295386821,97.52799378032796,"[60, 0, 194]",194,a,0.0986131108365953,colour,0.5
061,61,0,1,2,11,61,98.04672903078608,98.62394488672726,"[72, 0, 182]",182,l,0.051125532714650035,colour,0.5
061,61,0,1,2,12,62,99.14338197070174,99.79191190144047,"[2, 0, 252]",252,a,0.1250870400108397,colour,0.5
061,61,0,1,2,13,63,100.29964309697971,102.34391334769316,"[85, 0, 169]",169,l,1.5211002952419221,colour,0.5
061,61,0,1,2,14,64,102.85470905806869,103.44790324312635,"[30, 0, 224]",224,a,0.06994624785147607,colour,0.5
061,61,0,1,2,15,65,103.9656408817973,104.76793141104281,"[14, 0, 240]",240,a,0.27888347837142646,colour,0.5
061,61,0,1,2,16,66,105.27993741002865,107.50395460682921,"[74, 0, 180]",180,l,1.70063771517016,colour,0.5
061,61,0,1,2,17,67,108.01442696992308,108.58395810425282,"[70, 0, 184]",184,a,0.04625641577877104,colour,0.5
061,61,0,1,2,18,68,109.09246872086078,109.84790655132383,"[9, 0, 245]",245,a,0.23206425667740405,colour,0.5
061,61,0,1,2,19,69,110.34880215697922,112.54392248485237,"[41, 0, 213]",213,a,1.6715679478365928,colour,0.5
061,61,0,1,2,20,70,113.05190849862993,114.7759036400821,"[16, 0, 238]",238,a,1.2007247551809996,colour,0.5
061,61,0,1,2,21,71,115.28643744322471,115.9520528037101,"[95, 0, 159]",159,l,0.14030248927883804,colour,0.5
061,61,0,1,2,22,72,116.46201946865767,117.45591682614759,"[29, 0, 225]",225,a,0.47045958670787513,colour,0.5
061,61,0,1,2,23,73,117.96205491479486,119.19192860042676,"[66, 0, 188]",188,a,0.7064953856170177,colour,0.5
061,61,0,1,2,24,74,119.71206357935444,120.43995582638308,"[87, 0, 167]",167,l,0.20498341135680676,colour,0.5
061,61,0,1,2,25,75,120.94646137324162,121.95191023149528,"[19, 0, 235]",235,a,0.48213672428391874,colour,0.5
061,61,0,1,2,26,76,122.46207500086166,123.35987749812193,"[48, 0, 206]",206,a,0.38113887631334364,colour,0.5
061,61,0,1,2,27,77,123.87959500029683,124.7439225637354,"[51, 0, 203]",203,a,0.3507048268802464,colour,0.5
061,61,0,1,2,28,78,125.26087369211018,125.99994958774187,"[65, 0, 189]",189,l,0.2157086234074086,colour,0.5
061,61,0,1,2,29,79,126.51153535326011,127.56794432923198,"[13, 0, 241]",241,a,0.5329936544876546,colour,0.5
061,61,0,1,2,30,80,128.08977205771953,129.10393475717865,"[80, 0, 174]",174,l,0.490997863933444,colour,0.5
061,61,0,1,2,31,81,129.6208685564343,130.60788700100966,"[28, 0, 226]",226,a,0.46358382469043136,colour,0.5
061,61,0,1,2,32,82,131.12086304253899,131.87193075870164,"[39, 0, 215]",215,a,0.22771659144200385,colour,0.5
061,61,0,1,2,33,83,132.3865262947511,133.08796627423726,"[81, 0, 173]",173,l,0.17812154395505786,colour,0.5
061,61,0,1,2,34,84,133.60523602413014,134.78394085378386,"[47, 0, 207]",207,a,0.6552639082074165,colour,0.5
061,61,0,1,2,35,85,135.29273543320596,136.43995149387047,"[83, 0, 171]",171,l,0.6238416989799589,colour,0.5
061,61,0,1,2,36,86,136.94899577181786,137.67995332134888,"[35, 0, 219]",219,a,0.20772418496198952,colour,0.5
061,61,0,1,2,37,87,138.199061937863,139.04792592860758,"[97, 0, 157]",157,l,0.32561841676943004,colour,0.5
061,61,0,1,2,38,88,139.558537713252,140.46397215663455,"[89, 0, 165]",165,l,0.38308093044906855,colour,0.5
061,61,0,1,2,39,89,140.97099836799316,141.87195832794532,"[98, 0, 156]",156,l,0.3758404671680182,colour,0.5
061,61,0,1,2,40,90,142.37896917923354,143.39193025464192,"[24, 0, 230]",230,a,0.4898588613141328,colour,0.5
061,61,0,1,2,41,91,143.91036696988158,144.8079276457429,"[6, 0, 248]",248,a,0.3742012802977115,colour,0.5
061,61,0,1,2,42,92,145.31653396692127,146.14395895507187,"[8, 0, 246]",246,a,0.30421840492635965,colour,0.5
061,61,0,1,2,43,93,146.66086872969754,147.59196577966213,"[49, 0, 205]",205,a,0.407755377702415,colour,0.5
061,61,0,1,2,44,94,148.09842485259287,148.88790751248598,"[76, 0, 178]",178,l,0.2662961627356708,colour,0.5
061,61,0,1,2,45,95,149.3952397420071,150.5759303427767,"[17, 0, 237]",237,a,0.6572835501283407,colour,0.5
061,61,0,1,2,46,96,151.0710033304058,152.59987735631876,"[84, 0, 170]",170,l,1.0054890303872526,colour,0.5
061,61,0,1,2,47,97,153.11789305042475,154.2959342498798,"[61, 0, 193]",193,a,0.6547893239185214,colour,0.5
061,61,0,1,2,48,98,154.80543420719914,155.44791112001985,"[22, 0, 232]",232,a,0.11914193583652377,colour,0.5
061,61,0,1,2,49,99,155.95232573896646,156.6239240129944,"[52, 0, 202]",202,a,0.1482089462224394,colour,0.5
061,61,0,1,2,50,100,157.13982711732388,157.8479538129177,"[92, 0, 162]",162,l,0.18474209401756525,colour,0.5
061,61,0,1,3,1,101,162.56925032217987,166.00794308446348,"[83, 0, 171]",171,a,2.9145405550953,colour,0.5
061,61,0,1,3,2,102,166.5168187962845,167.47991700889543,"[0, 0, 254]",254,a,0.43998339562676847,colour,0.5
061,61,0,1,3,3,103,168.00116657163016,168.87189885717817,"[52, 0, 202]",202,a,0.3474847422912717,colour,0.5
061,61,0,1,3,4,104,169.39174396544695,170.16015232377686,"[76, 0, 178]",178,l,0.24505053809843957,colour,0.5
061,61,0,1,3,5,105,170.67106618825346,171.4638969320804,"[10, 0, 244]",244,a,0.2695205791387707,colour,0.5
061,61,0,1,3,6,106,171.98352739447728,172.599930919474,"[89, 0, 165]",165,l,0.09316976647824049,colour,0.5
061,61,0,1,3,7,107,173.10854944982566,173.89594354457222,"[20, 0, 234]",234,a,0.26399728399701416,colour,0.5
061,61,0,1,3,8,108,174.40541317593306,175.30388599890284,"[7, 0, 247]",247,a,0.3751346953213215,colour,0.5
061,61,0,1,3,9,109,175.811638855841,177.03189600585029,"[61, 0, 193]",193,l,0.6968654592055827,colour,0.5
061,61,0,1,3,10,110,177.5460945451632,178.94392894394696,"[64, 0, 190]",190,l,0.8744541294872761,colour,0.5
061,61,0,1,3,11,111,179.45224775746465,180.36814865632914,"[70, 0, 184]",184,l,0.39249936188571155,colour,0.5
061,61,0,1,3,12,112,180.87415204988793,181.58393211034127,"[90, 0, 164]",164,l,0.18504535523243248,colour,0.5
061,61,0,1,3,13,113,182.09433870133944,182.7519038512837,"[28, 0, 226]",226,a,0.13423608080483973,colour,0.5
061,61,0,1,3,14,114,183.26618706737645,184.23992108902894,"[23, 0, 231]",231,a,0.45040731551125646,colour,0.5
061,61,0,1,3,15,115,184.75059825205244,185.82389534101821,"[68, 0, 186]",186,l,0.5502031457144767,colour,0.5
061,61,0,1,3,16,116,186.34541035606526,187.51992663438432,"[73, 0, 181]",181,a,0.6511596399359405,colour,0.5
061,61,0,1,3,17,117,188.03489553625695,189.35189936147071,"[41, 0, 213]",213,a,0.7940642694011331,colour,0.5
061,61,0,1,3,18,118,189.86302314558998,190.87988014495932,"[3, 0, 251]",251,a,0.49354919767938554,colour,0.5
061,61,0,1,3,19,119,191.39491718215868,192.3598995534703,"[65, 0, 189]",189,l,0.441622975980863,colour,0.5
061,61,0,1,3,20,120,192.87931615742855,193.85592761752196,"[6, 0, 248]",248,a,0.4533217754215002,colour,0.5
061,61,0,1,3,21,121,194.36371907126158,195.83190656080842,"[60, 0, 194]",194,a,0.9449143463280052,colour,0.5
061,61,0,1,3,22,122,196.34804439754225,197.2799200809095,"[25, 0, 229]",229,a,0.4085745771881193,colour,0.5
061,61,0,1,3,23,123,197.80117279454134,198.37588457786478,"[29, 0, 225]",225,a,0.05209124297834933,colour,0.5
061,61,0,1,3,24,124,198.89488803758286,199.79992075823247,"[45, 0, 209]",209,a,0.3816390607971698,colour,0.5
061,61,0,1,3,25,125,200.316813203739,201.03184441197664,"[47, 0, 207]",207,a,0.1917809082660824,colour,0.5
061,61,0,1,3,26,126,201.5511700375937,202.11186917708255,"[16, 0, 238]",238,a,0.03751933784224093,colour,0.5
061,61,0,1,3,27,127,202.6200777136255,203.65590193867683,"[57, 0, 197]",197,a,0.5124266264028847,colour,0.5
061,61,0,1,3,28,128,204.17004967178218,204.8238539872691,"[21, 0, 233]",233,a,0.12941304361447692,colour,0.5
061,61,0,1,3,29,129,205.34300986514427,206.06388062681071,"[37, 0, 217]",217,a,0.19755941559560597,colour,0.5
061,61,0,1,3,30,130,206.57730683428235,207.17596287466586,"[78, 0, 176]",176,l,0.0756188107188791,colour,0.5
061,61,0,1,3,31,131,207.68666091142222,208.55988348461688,"[35, 0, 219]",219,a,0.3498549070209265,colour,0.5
061,61,0,1,3,32,132,209.07735803443938,209.6399050988257,"[75, 0, 179]",179,l,0.03922508447431028,colour,0.5
061,61,0,1,3,33,133,210.1553824560251,211.0718512807507,"[99, 0, 155]",155,l,0.39301018021069467,colour,0.5
061,61,0,1,3,34,134,211.5780484462157,212.11984455701895,"[33, 0, 221]",221,a,0.016988937743008137,colour,0.5
061,61,0,1,3,35,135,212.62107768841088,213.3598601690028,"[69, 0, 185]",185,l,0.21542269131168723,colour,0.5
061,61,0,1,3,36,136,213.86955547402613,216.00783241377212,"[26, 0, 228]",228,a,1.6149604734964669,colour,0.5
061,61,0,1,3,37,137,216.52364926598966,217.1839091097936,"[74, 0, 180]",180,l,0.13677638676017523,colour,0.5
061,61,0,1,3,38,138,217.69556852453388,218.44788000616245,"[58, 0, 196]",196,a,0.22894932935014367,colour,0.5
061,61,0,1,3,39,139,218.96123413997702,219.75988120026886,"[71, 0, 183]",183,l,0.2753498926758766,colour,0.5
061,61,0,1,3,40,140,220.27374103222974,220.91187106748112,"[18, 0, 236]",236,a,0.1147796984296292,colour,0.5
061,61,0,1,3,41,141,221.430052570533,222.12788885994814,"[15, 0, 239]",239,a,0.17451667226850986,colour,0.5
061,61,0,1,3,42,142,222.648841856746,223.52784018055536,"[14, 0, 240]",240,a,0.3557488115038723,colour,0.5
061,61,0,1,3,43,143,224.0394483951386,224.94386120233685,"[34, 0, 220]",220,a,0.3810841317754239,colour,0.5
061,61,0,1,3,44,144,225.461329450598,226.23990691057406,"[72, 0, 182]",182,l,0.2553137692157179,colour,0.5
061,61,0,1,3,45,145,226.75820262893103,227.4398794202134,"[94, 0, 160]",160,l,0.1584434264805168,colour,0.5
061,61,0,1,3,46,146,227.96134717366658,228.73591685760766,"[50, 0, 204]",204,a,0.25134340836666524,colour,0.5
061,61,0,1,3,47,147,229.2425381951034,229.97583164507523,"[46, 0, 208]",208,a,0.20991396834142506,colour,0.5
061,61,0,1,3,48,148,230.4925236229319,231.1758691391442,"[12, 0, 242]",242,a,0.1600581945385784,colour,0.5
061,61,0,1,3,49,149,231.69565280759707,232.31988795869984,"[88, 0, 166]",166,l,0.10091553418897092,colour,0.5
061,61,0,1,3,50,150,232.83627943205647,233.42391448188573,"[97, 0, 157]",157,a,0.0643465465400368,colour,0.5
061,61,0,1,4,1,151,238.42920462042093,239.1279695983976,"[34, 0, 220]",220,a,0.17546032718382776,colour,0.5
061,61,0,1,4,2,152,239.648777266033,240.27184072555974,"[96, 0, 158]",158,l,0.09977653180249035,colour,0.5
061,61,0,1,4,3,153,240.79166259686463,241.3758625225164,"[1, 0, 253]",253,a,0.06086928094737232,colour,0.5
061,61,0,1,4,4,154,241.8855105661787,242.4958453194704,"[38, 0, 216]",216,a,0.08704034239053726,colour,0.5
061,61,0,1,4,5,155,243.01049008616246,243.5918712564744,"[47, 0, 207]",207,a,0.058023744029924273,colour,0.5
061,61,0,1,4,6,156,244.10425456007943,244.82387446705252,"[31, 0, 223]",223,a,0.19655195763334632,colour,0.5
061,61,0,1,4,7,157,245.33862636005506,245.96785429585725,"[94, 0, 160]",160,l,0.10584057727828622,colour,0.5
061,61,0,1,4,8,158,246.47930182144046,247.01582788000815,"[14, 0, 240]",240,a,0.013075290713459253,colour,0.5
061,61,0,1,4,9,159,247.52623053221032,248.1278341151774,"[36, 0, 218]",218,a,0.07830680906772614,colour,0.5
061,61,0,1,4,10,160,248.63576538441703,249.2639370255638,"[23, 0, 231]",231,a,0.10481224558316171,colour,0.5
061,61,0,1,4,11,161,249.7763861012645,250.36784421349876,"[43, 0, 211]",211,a,0.06813691975548863,colour,0.5
061,61,0,1,4,12,162,250.88694101455621,251.50391994859092,"[54, 0, 200]",200,a,0.09362938487902284,colour,0.5
061,61,0,1,4,13,163,252.011978429975,252.88786497712135,"[65, 0, 189]",189,l,0.35245192726142704,colour,0.5
061,61,0,1,4,14,164,253.40252470993437,253.95986198075116,"[74, 0, 180]",180,a,0.033968816976994276,colour,0.5
061,61,0,1,4,15,165,254.48065862059593,255.2718446641229,"[18, 0, 236]",236,a,0.2665368025191128,colour,0.5
061,61,0,1,4,16,166,255.77881849370897,257.21585277095437,"[32, 0, 222]",222,a,0.9137516818009317,colour,0.5
061,61,0,1,4,17,167,257.7318929338362,258.375864491798,"[62, 0, 192]",192,l,0.12068029795773327,colour,0.5
061,61,0,1,4,18,168,258.88815169688314,259.83183015487157,"[70, 0, 184]",184,l,0.4206219301559031,colour,0.5
061,61,0,1,4,19,169,260.341333263088,261.2078317049891,"[10, 0, 244]",244,a,0.343304461799562,colour,0.5
061,61,0,1,4,20,170,261.71627694298513,263.1038508678321,"[16, 0, 238]",238,a,0.8643563138321042,colour,0.5
061,61,0,1,4,21,171,263.62283660448156,264.29588383762166,"[45, 0, 209]",209,a,0.14975676080211997,colour,0.5
061,61,0,1,4,22,172,264.8103238043841,265.5678167231381,"[6, 0, 248]",248,a,0.2341961448546499,colour,0.5
061,61,0,1,4,23,173,266.06348284264095,266.7438252836,"[64, 0, 190]",190,l,0.15695193177089095,colour,0.5
061,61,0,1,4,24,174,267.2509834333323,267.87987266178243,"[28, 0, 226]",226,a,0.10577007895335555,colour,0.5
061,61,0,1,4,25,175,268.39231189130805,269.07180835143663,"[9, 0, 245]",245,a,0.15696532255969942,colour,0.5
061,61,0,1,4,26,176,269.57911695027724,270.23982892907225,"[82, 0, 172]",172,l,0.1373990571592003,colour,0.5
061,61,0,1,4,27,177,270.7510492056608,271.5678391722031,"[77, 0, 177]",177,l,0.2937365893740207,colour,0.5
061,61,0,1,4,28,178,272.07908268552274,273.2478602351621,"[91, 0, 163]",163,l,0.6453622279223055,colour,0.5
061,61,0,1,4,29,179,273.76654743636027,274.5838655505795,"[53, 0, 201]",201,a,0.29408041713759303,colour,0.5
061,61,0,1,4,30,180,275.09471009788103,275.83182700397447,"[86, 0, 168]",168,l,0.21371536911465228,colour,0.5
061,61,0,1,4,31,181,276.34469355642796,277.06383730378,"[68, 0, 186]",186,l,0.1957764751277864,colour,0.5
061,61,0,1,4,32,182,277.5791464885697,278.463859122945,"[42, 0, 212]",212,a,0.3614509126637131,colour,0.5
061,61,0,1,4,33,183,278.98774587805383,279.992049038643,"[66, 0, 188]",188,l,0.48101898981258273,colour,0.5
061,61,0,1,4,34,184,280.50335714267567,281.04033572995104,"[13, 0, 241]",241,a,0.013595167314633727,colour,0.5
061,61,0,1,4,35,185,281.5501747888047,282.1838386114687,"[78, 0, 176]",176,l,0.11039855633862317,colour,0.5
061,61,0,1,4,36,186,282.6908821519464,284.1838535775896,"[55, 0, 199]",199,a,0.9693367320578545,colour,0.5
061,61,0,1,4,37,187,284.6915650807787,285.32000453723595,"[79, 0, 175]",175,l,0.10524350707419217,colour,0.5
061,61,0,1,4,38,188,285.8321917052381,286.39993714215234,"[46, 0, 208]",208,a,0.044445512117818,colour,0.5
061,61,0,1,4,39,189,286.91028977604583,287.6078365887515,"[25, 0, 229]",229,a,0.1742555524688214,colour,0.5
061,61,0,1,4,40,190,288.1290696100332,288.815923899645,"[27, 0, 227]",227,a,0.16356539260596037,colour,0.5
061,61,0,1,4,41,191,289.332255508285,290.01583378762007,"[5, 0, 249]",249,a,0.16031813295558095,colour,0.5
061,61,0,1,4,42,192,290.5353350683581,291.1358016182203,"[84, 0, 170]",170,l,0.07721152366138995,colour,0.5
061,61,0,1,4,43,193,291.6446643329691,292.30387497134507,"[93, 0, 161]",161,l,0.1358760551083833,colour,0.5
061,61,0,1,4,44,194,292.81655168998986,293.4958102670498,"[88, 0, 166]",166,l,0.15608232002705336,colour,0.5
061,61,0,1,4,45,195,294.00399280991405,294.6161577652674,"[56, 0, 198]",198,a,0.0888028028421104,colour,0.5
061,61,0,1,4,46,196,295.1165232541971,295.77583156642504,"[63, 0, 191]",191,a,0.1360115383286029,colour,0.5
061,61,0,1,4,47,197,296.28844369435683,296.9118899721652,"[92, 0, 162]",162,l,0.100125479279086,colour,0.5
061,61,0,1,4,48,198,297.42909158649854,298.0477794180624,"[11, 0, 243]",243,a,0.0954446205869317,colour,0.5
061,61,0,1,4,49,199,298.5540911927819,299.21579251252115,"[76, 0, 178]",178,l,0.1390862932894379,colour,0.5
061,61,0,1,4,50,200,299.7211968663614,300.2718592362944,"[44, 0, 210]",210,a,0.027359294472262263,colour,0.5
061,61,0,1,5,1,201,305.40785935288295,305.943807245465,"[48, 0, 206]",206,a,0.011827192967757583,colour,0.5
061,61,0,1,5,2,202,306.4574587328825,308.52789571275935,"[43, 0, 211]",211,a,1.5472103105857968,colour,0.5
061,61,0,1,5,3,203,309.03684664913453,311.04783219331875,"[66, 0, 188]",188,a,1.4877057056874037,colour,0.5
061,61,0,1,5,4,204,311.5680384582374,313.6798544661142,"[79, 0, 175]",175,l,1.5886751967482269,colour,0.5
061,61,0,1,5,5,205,314.19304987974465,316.35180208133534,"[2, 0, 252]",252,a,1.6353691753465682,colour,0.5
061,61,0,1,5,6,206,316.8649128184188,317.40778806689195,"[82, 0, 172]",172,l,0.019507188582792878,colour,0.5
061,61,0,1,5,7,207,317.92733897222206,318.6318206237629,"[12, 0, 242]",242,a,0.1794948847964406,colour,0.5
061,61,0,1,5,8,208,319.1477997403126,319.8238248426933,"[45, 0, 209]",209,a,0.15269170072861016,colour,0.5
061,61,0,1,5,9,209,320.33701356104575,320.92783009796403,"[77, 0, 177]",177,l,0.06668480974622071,colour,0.5
061,61,0,1,5,10,210,321.44716517580673,322.1038555940613,"[69, 0, 185]",185,l,0.13338970579206944,colour,0.5
061,61,0,1,5,11,211,322.61906237900257,323.1998145773541,"[42, 0, 212]",212,a,0.05738965212367475,colour,0.5
061,61,0,1,5,12,212,323.71282133902423,324.32783537567593,"[41, 0, 213]",213,a,0.09166251821443439,colour,0.5
061,61,0,1,5,13,213,324.8378221266903,325.4318926187698,"[93, 0, 161]",161,l,0.07078710896894336,colour,0.5
061,61,0,1,5,14,214,325.9471903820522,326.95187321002595,"[67, 0, 187]",187,l,0.48136990633793175,colour,0.5
061,61,0,1,5,15,215,327.4627642312553,328.0398060074076,"[50, 0, 204]",204,a,0.06089133652858436,colour,0.5
061,61,0,1,5,16,216,328.54928587866016,329.48780495487154,"[94, 0, 160]",160,l,0.41523923771455884,colour,0.5
061,61,0,1,5,17,217,330.0025926877279,330.5758425153326,"[15, 0, 239]",239,a,0.050055059837177396,colour,0.5
061,61,0,1,5,18,218,331.09627918014303,331.63982554199174,"[91, 0, 163]",163,l,0.020123163470998406,colour,0.5
061,61,0,1,5,19,219,332.158790798625,332.70379045186564,"[86, 0, 168]",168,l,0.02170051634311676,colour,0.5
061,61,0,1,5,20,220,333.22219605348073,333.7838069461286,"[65, 0, 189]",189,a,0.03816327592357993,colour,0.5
061,61,0,1,5,21,221,334.3003315394744,335.01581488293596,"[8, 0, 246]",246,a,0.19218381261453032,colour,0.5
061,61,0,1,5,22,222,335.5347545396071,336.17584747774526,"[60, 0, 194]",194,a,0.11619281745515764,colour,0.5
061,61,0,1,5,23,223,336.6924878617283,338.7438059851993,"[76, 0, 178]",178,a,1.5280280448496342,colour,0.5
061,61,0,1,5,24,224,339.25508848926984,339.8478317207191,"[32, 0, 222]",222,a,0.06941888830624521,colour,0.5
061,61,0,1,5,25,225,340.3643917602021,340.9518074376974,"[84, 0, 170]",170,l,0.06408030679449439,colour,0.5
061,61,0,1,5,26,226,341.4581219693646,342.0318369290326,"[14, 0, 240]",240,a,0.04817562713287771,colour,0.5
061,61,0,1,5,27,227,342.53847086965106,343.22383996634744,"[0, 0, 254]",254,a,0.16236888873390853,colour,0.5
061,61,0,1,5,28,228,343.7415874511935,344.33582217711955,"[28, 0, 226]",226,a,0.07094543520361185,colour,0.5
061,61,0,1,5,29,229,344.85088993422687,345.4397959248163,"[68, 0, 186]",186,l,0.06610546237789094,colour,0.5
061,61,0,1,5,30,230,345.9603475925978,346.5838100181427,"[52, 0, 202]",202,a,0.10012232838198543,colour,0.5
061,61,0,1,5,31,231,347.1018647029996,347.75178648508154,"[10, 0, 244]",244,a,0.12663485435768962,colour,0.5
061,61,0,1,5,32,232,348.25812740437686,348.88778857095167,"[95, 0, 159]",159,l,0.10634863865561783,colour,0.5
061,61,0,1,5,33,233,349.3987697828561,351.3997922069393,"[31, 0, 223]",223,a,1.4776791762560606,colour,0.5
061,61,0,1,5,34,234,351.91438222909346,352.5038210931234,"[1, 0, 253]",253,a,0.06609089020639658,colour,0.5
061,61,0,1,5,35,235,353.0258819786832,353.62377001927234,"[44, 0, 210]",210,a,0.07456251606345177,colour,0.5
061,61,0,1,5,36,236,354.13526323088445,354.8078110674396,"[46, 0, 208]",208,a,0.1491470872424543,colour,0.5
061,61,0,1,5,37,237,355.3227559446823,355.94381315330975,"[3, 0, 251]",251,a,0.09767969627864659,colour,0.5
061,61,0,1,5,38,238,356.4633266432211,357.3357764908578,"[47, 0, 207]",207,a,0.34904555371031165,colour,0.5
061,61,0,1,5,39,239,357.8540832370054,358.8397685131058,"[21, 0, 233]",233,a,0.46231288369745016,colour,0.5
061,61,0,1,5,40,240,359.35408638766967,359.95179877313785,"[13, 0, 241]",241,a,0.07438370981253684,colour,0.5
061,61,0,1,5,41,241,360.4545088268351,361.0083743459545,"[98, 0, 156]",156,l,0.0301890776026994,colour,0.5
061,61,0,1,5,42,242,361.51709488220513,362.1037772188429,"[27, 0, 227]",227,a,0.06349190114997327,colour,0.5
061,61,0,1,5,43,243,362.61071008839644,363.24776531825773,"[70, 0, 184]",184,l,0.11368283745832741,colour,0.5
061,61,0,1,5,44,244,363.7670543161221,364.7917957168538,"[40, 0, 214]",214,a,0.5127688786014915,colour,0.5
061,61,0,1,5,45,245,365.30247996910475,366.0638156423811,"[99, 0, 155]",155,l,0.2379837608896196,colour,0.5
061,61,0,1,5,46,246,366.5877969204448,367.16780238715,"[96, 0, 158]",158,l,0.056644495809450746,colour,0.5
061,61,0,1,5,47,247,367.6817535911687,369.8797954679467,"[87, 0, 167]",167,l,1.6748061489779502,colour,0.5
061,61,0,1,5,48,248,370.4013459291309,370.9437851901166,"[9, 0, 245]",245,a,0.01925867167301476,colour,0.5
061,61,0,1,5,49,249,371.463778778445,372.0237536353525,"[81, 0, 173]",173,l,0.03660010150633752,colour,0.5
061,61,0,1,5,50,250,372.5419032368809,374.3357729462441,"[54, 0, 200]",200,a,1.2705158279277384,colour,0.5
061,61,0,1,6,1,251,378.6631487037521,379.3277952033095,"[89, 0, 165]",165,a,0.1405147723853588,colour,0.5
061,61,0,1,6,2,252,379.8384400708601,380.5837789042853,"[96, 0, 158]",158,a,0.22199716116301715,colour,0.5
061,61,0,1,6,3,253,381.1040655139368,381.90378934913315,"[8, 0, 246]",246,a,0.27641130750998855,colour,0.5
061,61,0,1,6,4,254,382.4165664985776,383.52784018055536,"[4, 0, 250]",250,a,0.5881167233455926,colour,0.5
061,61,0,1,6,5,255,384.04243059642613,385.02380798594095,"[45, 0, 209]",209,a,0.4580707694403827,colour,0.5
061,61,0,1,6,6,256,385.54242390114814,386.191755308304,"[46, 0, 208]",208,a,0.12599091627635062,colour,0.5
061,61,0,1,6,7,257,386.6987082641572,387.47177109355107,"[14, 0, 240]",240,a,0.24975778465159237,colour,0.5
061,61,0,1,6,8,258,387.97991937189363,388.7677734787576,"[56, 0, 198]",198,a,0.26456402824260294,colour,0.5
061,61,0,1,6,9,259,389.27679097489454,389.90376493078656,"[7, 0, 247]",247,a,0.10366733581759036,colour,0.5
061,61,0,1,6,10,260,390.41745501500554,390.97577729425393,"[74, 0, 180]",180,l,0.035310256062075496,colour,0.5
061,61,0,1,6,11,261,391.4956208271906,392.1597372102551,"[69, 0, 185]",185,l,0.14087592903524637,colour,0.5
061,61,0,1,6,12,262,392.6674286273774,393.7037463411689,"[59, 0, 195]",195,a,0.5132103797513992,colour,0.5
061,61,0,1,6,13,263,394.2143506426364,394.7437595115043,"[99, 0, 155]",155,l,0.006025842623785138,colour,0.5
061,61,0,1,6,14,264,395.2613163748756,395.90377162606455,"[11, 0, 243]",243,a,0.11914744949899614,colour,0.5
061,61,0,1,6,15,265,396.4174601349514,397.1757655576803,"[40, 0, 214]",214,a,0.23524968256242573,colour,0.5
061,61,0,1,6,16,266,397.6837744144723,398.88775942637585,"[38, 0, 216]",216,a,0.6780711316969246,colour,0.5
061,61,0,1,6,17,267,399.40511621604674,401.53576436056755,"[1, 0, 253]",253,a,1.6073277397081256,colour,0.5
061,61,0,1,6,18,268,402.0457786805928,403.9917497157585,"[95, 0, 159]",159,l,1.422681350260973,colour,0.5
061,61,0,1,6,19,269,404.4988416992128,405.0317628858611,"[97, 0, 157]",157,l,0.009558640420436859,colour,0.5
061,61,0,1,6,20,270,405.5456936098635,406.19974368507974,"[84, 0, 170]",170,l,0.13068240880966187,colour,0.5
061,61,0,1,6,21,271,406.7176112930756,407.54374682949856,"[93, 0, 161]",161,l,0.30301047931425273,colour,0.5
061,61,0,1,6,22,272,408.0612800621893,408.6877569844946,"[6, 0, 248]",248,a,0.10313840070739388,colour,0.5
061,61,0,1,6,23,273,409.2019823053852,410.1118152202107,"[80, 0, 174]",174,l,0.3865499256644398,colour,0.5
061,61,0,1,6,24,274,410.6212545253802,411.4237372511998,"[53, 0, 201]",201,a,0.27911584731191397,colour,0.5
061,61,0,1,6,25,275,411.92125641577877,412.6558503448032,"[47, 0, 207]",207,a,0.21127864439040422,colour,0.5
061,61,0,1,6,26,276,413.17129501258023,413.9917252971791,"[91, 0, 163]",163,l,0.29704489512369037,colour,0.5
061,61,0,1,6,27,277,414.5000901906751,415.16772401169874,"[72, 0, 182]",182,l,0.1444114837795496,colour,0.5
061,61,0,1,6,28,278,415.68927092826925,416.44777445541695,"[81, 0, 173]",173,l,0.2351736701093614,colour,0.5
061,61,0,1,6,29,279,416.954921183642,417.6717479354702,"[73, 0, 181]",181,l,0.19350201496854424,colour,0.5
061,61,0,1,6,30,280,418.1892335128505,418.8559492789209,"[58, 0, 196]",196,a,0.14330635219812393,colour,0.5
061,61,0,1,6,31,281,419.3766045283992,420.07176069612615,"[76, 0, 178]",178,l,0.17257107351906598,colour,0.5
061,61,0,1,6,32,282,420.5798845558893,421.1917210437823,"[71, 0, 183]",183,l,0.08617742615751922,colour,0.5
061,61,0,1,6,33,283,421.7069947824348,422.4238042051438,"[43, 0, 211]",211,a,0.19320505508221686,colour,0.5
061,61,0,1,6,34,284,422.94292384921573,423.583782448899,"[32, 0, 222]",222,a,0.11743776430375874,colour,0.5
061,61,0,1,6,35,285,424.09915386140347,424.927791895112,"[25, 0, 229]",229,a,0.30529360426589847,colour,0.5
061,61,0,1,6,36,286,425.44300616299734,426.23178659542464,"[37, 0, 217]",217,a,0.26548562780953944,colour,0.5
061,61,0,1,6,37,287,426.73983995686285,427.5837859935127,"[61, 0, 193]",193,a,0.3206618658732623,colour,0.5
061,61,0,1,6,38,288,428.099186550593,428.75177978980355,"[5, 0, 249]",249,a,0.1293267912697047,colour,0.5
061,61,0,1,6,39,289,429.27103058458306,429.9917678325437,"[85, 0, 169]",169,l,0.19728175411000848,colour,0.5
061,61,0,1,6,40,290,430.50540947378613,431.05575676704757,"[23, 0, 231]",231,a,0.026927639497444034,colour,0.5
061,61,0,1,6,41,291,431.56789509835653,432.2237107846886,"[10, 0, 244]",244,a,0.13260240759700537,colour,0.5
061,61,0,1,6,42,292,432.7398163259495,433.4237537928857,"[65, 0, 189]",189,a,0.1607257635332644,colour,0.5
061,61,0,1,6,43,293,433.9428501999937,434.8157671489753,"[3, 0, 251]",251,a,0.3495410119649023,colour,0.5
061,61,0,1,6,44,294,435.33545235567726,436.06377743929625,"[33, 0, 221]",221,a,0.20774466497823596,colour,0.5
061,61,0,1,6,45,295,436.5829431633465,437.21574249421246,"[48, 0, 206]",206,a,0.10957069229334593,colour,0.5
061,61,0,1,6,46,296,437.72346778190695,438.2877493437845,"[77, 0, 177]",177,l,0.04091192642226815,colour,0.5
061,61,0,1,6,47,297,438.8016749480739,439.39172387938015,"[15, 0, 239]",239,a,0.06708732037805021,colour,0.5
061,61,0,1,6,48,298,439.91103690187447,440.6637579833623,"[51, 0, 203]",203,a,0.23481605830602348,colour,0.5
061,61,0,1,6,49,299,441.17123829899356,442.0397796195466,"[29, 0, 225]",225,a,0.34519098373129964,colour,0.5
061,61,0,1,6,50,300,442.54625050816685,443.3197158481926,"[17, 0, 237]",237,a,0.2501055507455021,colour,0.5
061,61,0,1,7,1,301,448.3595112215262,449.90378383523785,"[51, 0, 203]",203,a,1.020056209526956,colour,0.5
061,61,0,1,7,2,302,450.42287315335125,451.06375617161393,"[96, 0, 158]",158,l,0.11788399191573262,colour,0.5
061,61,0,1,7,3,303,451.5667178928852,452.24773026607,"[72, 0, 182]",182,l,0.15781287918798625,colour,0.5
061,61,0,1,7,4,304,452.75421060668305,453.31178694195114,"[26, 0, 228]",228,a,0.03424490289762616,colour,0.5
061,61,0,1,7,5,305,453.83227047440596,454.4317650126759,"[77, 0, 177]",177,l,0.076148139545694,colour,0.5
061,61,0,1,7,6,306,454.94168402208015,455.55973658012226,"[83, 0, 171]",171,a,0.09471127949655056,colour,0.5
061,61,0,1,7,7,307,456.06663479143754,456.67178850155324,"[99, 0, 155]",155,l,0.08192034531384706,colour,0.5
061,61,0,1,7,8,308,457.19164266833104,458.80775474756956,"[10, 0, 244]",244,a,1.0928846220485866,colour,0.5
061,61,0,1,7,9,309,459.31676594214514,459.9837270742282,"[28, 0, 226]",226,a,0.1438419825863093,colour,0.5
061,61,0,1,7,10,310,460.5042342375964,461.2637113519013,"[60, 0, 194]",194,a,0.23620318342000246,colour,0.5
061,61,0,1,7,11,311,461.7853236468509,462.3677756842226,"[76, 0, 178]",178,l,0.05909027880989015,colour,0.5
061,61,0,1,7,12,312,462.8791101761162,463.42377466661856,"[14, 0, 240]",240,a,0.020184209570288658,colour,0.5
061,61,0,1,7,13,313,463.9305547240656,464.50372932711616,"[48, 0, 206]",206,a,0.04980378597974777,colour,0.5
061,61,0,1,7,14,314,465.02436370262876,465.5757523244247,"[98, 0, 156]",156,l,0.026543639600276947,colour,0.5
061,61,0,1,7,15,315,466.08839202160016,466.61574462079443,"[43, 0, 211]",211,a,0.004016046645119786,colour,0.5
061,61,0,1,7,16,316,467.13584139663726,468.7277217116207,"[62, 0, 192]",192,a,1.0754947492387146,colour,0.5
061,61,0,1,7,17,317,469.23848630837165,470.255761571927,"[55, 0, 199]",199,a,0.4939111419953406,colour,0.5
061,61,0,1,7,18,318,470.77127752592787,471.3437483261805,"[50, 0, 204]",204,a,0.049032635521143675,colour,0.5
061,61,0,1,7,19,319,471.8651483382564,472.6797201647423,"[41, 0, 213]",213,a,0.2913396432995796,colour,0.5
061,61,0,1,7,20,320,473.1934193072375,475.3197099403478,"[44, 0, 210]",210,a,1.6032679758500308,colour,0.5
061,61,0,1,7,21,321,475.8338001719676,477.7677289741114,"[95, 0, 159]",159,l,1.4107832650188357,colour,0.5
061,61,0,1,7,22,322,478.28725073486567,480.0637313593179,"[45, 0, 209]",209,a,1.2531594319734722,colour,0.5
061,61,0,1,7,23,323,480.5841735380236,482.0956974697765,"[3, 0, 251]",251,a,0.9887517606839538,colour,0.5
061,61,0,1,7,24,324,482.61537007335573,483.3837492871098,"[9, 0, 245]",245,a,0.24511867365799844,colour,0.5
061,61,0,1,7,25,325,483.8991793827154,484.46378744300455,"[97, 0, 157]",157,l,0.04143731715157628,colour,0.5
061,61,0,1,7,26,326,484.9772294042632,485.7516927497927,"[88, 0, 166]",166,l,0.2511256115976721,colour,0.5
061,61,0,1,7,27,327,486.259997778805,486.83969998406246,"[17, 0, 237]",237,a,0.0564109452534467,colour,0.5
061,61,0,1,7,28,328,487.3537264126353,488.055683511775,"[29, 0, 225]",225,a,0.1785953405778855,colour,0.5
061,61,0,1,7,29,329,488.5725511449855,489.40770457149483,"[39, 0, 215]",215,a,0.31179403117857873,colour,0.5
061,61,0,1,7,30,330,489.91622818494216,490.7677813556511,"[75, 0, 179]",179,l,0.3282989321742207,colour,0.5
061,61,0,1,7,31,331,491.2756488218438,492.2077797173988,"[56, 0, 198]",198,a,0.4088242754805833,colour,0.5
061,61,0,1,7,32,332,492.72233980707824,493.69577489979565,"[22, 0, 232]",232,a,0.4501241403631866,colour,0.5
061,61,0,1,7,33,333,494.20675453636795,494.7677124326583,"[74, 0, 180]",180,l,0.03765127621591091,colour,0.5
061,61,0,1,7,34,334,495.28478565323167,495.83177225943655,"[42, 0, 212]",212,a,0.023838705848902464,colour,0.5
061,61,0,1,7,35,335,496.3472381948959,496.98371644038707,"[33, 0, 221]",221,a,0.1130865546874702,colour,0.5
061,61,0,1,7,36,336,497.50352373952046,498.1916887483094,"[57, 0, 197]",197,a,0.16479143500328064,colour,0.5
061,61,0,1,7,37,337,498.70677029015496,499.40770063293166,"[82, 0, 172]",172,l,0.17775841802358627,colour,0.5
061,61,0,1,7,38,338,499.92536974255927,500.7276961116586,"[18, 0, 236]",236,l,0.2789500383660197,colour,0.5
061,61,0,1,7,39,339,501.2378998717759,501.7677081003785,"[31, 0, 223]",223,a,0.006482310127466917,colour,0.5
061,61,0,1,7,40,340,502.2847450871486,503.0237142506521,"[25, 0, 229]",229,a,0.21586340479552746,colour,0.5
061,61,0,1,7,41,341,503.53692581201904,504.3276928034611,"[47, 0, 207]",207,a,0.26736072823405266,colour,0.5
061,61,0,1,7,42,342,504.822808326222,505.9117198307067,"[71, 0, 183]",183,l,0.5655966135673225,colour,0.5
061,61,0,1,7,43,343,506.43211356620304,507.2956814006902,"[93, 0, 161]",161,l,0.3389871227554977,colour,0.5
061,61,0,1,7,44,344,507.8085455901455,508.73571993457153,"[40, 0, 214]",214,a,0.40391577361151576,colour,0.5
061,61,0,1,7,45,345,509.2460453931708,509.79170631384477,"[49, 0, 205]",205,a,0.022325156023725867,colour,0.5
061,61,0,1,7,46,346,510.3084778485354,510.9517625393346,"[13, 0, 241]",241,a,0.12000524601899087,colour,0.5
061,61,0,1,7,47,347,511.46482562087476,512.2156649064273,"[5, 0, 249]",249,a,0.22756496095098555,colour,0.5
061,61,0,1,7,48,348,512.7303797777276,513.3277121018618,"[94, 0, 160]",160,l,0.07403121795505285,colour,0.5
061,61,0,1,7,49,349,513.8397594545968,514.8636611760594,"[63, 0, 191]",191,l,0.5008365288376808,colour,0.5
061,61,0,1,7,50,350,515.3710414546076,515.9677160559222,"[81, 0, 173]",173,l,0.07342902733944356,colour,0.5
061,61,0,1,8,1,351,520.510789409047,521.0800999896601,"[37, 0, 217]",217,a,0.057648408925160766,colour,0.5
061,61,0,1,8,2,352,521.5929850528482,522.3037001036573,"[55, 0, 199]",199,a,0.18745923694223166,colour,0.5
061,61,0,1,8,3,353,522.8116502775811,523.6557306158356,"[33, 0, 221]",221,a,0.3207697798497975,colour,0.5
061,61,0,1,8,4,354,524.1711307789665,524.7357459284831,"[18, 0, 236]",236,a,0.04136603092774749,colour,0.5
061,61,0,1,8,5,355,525.2499129599892,525.8316923086531,"[15, 0, 239]",239,a,0.05853180540725589,colour,0.5
061,61,0,1,8,6,356,526.3436573478393,527.0156518307049,"[59, 0, 195]",195,l,0.14865320431999862,colour,0.5
061,61,0,1,8,7,357,527.5311918093357,528.1037398034241,"[6, 0, 248]",248,a,0.049277607817202806,colour,0.5
061,61,0,1,8,8,358,528.624831040157,530.1996857898775,"[38, 0, 216]",216,a,1.0514784189872444,colour,0.5
061,61,0,1,8,9,359,530.7186715262942,531.3276912278961,"[97, 0, 157]",157,l,0.08569102617911994,colour,0.5
061,61,0,1,8,10,360,531.8435982707888,532.439719912596,"[47, 0, 207]",207,a,0.07270907703787088,colour,0.5
061,61,0,1,8,11,361,532.9529944893438,533.591704265913,"[95, 0, 159]",159,l,0.11534329201094806,colour,0.5
061,61,0,1,8,12,362,534.1092063847464,534.7997124136891,"[46, 0, 208]",208,a,0.17057427461259067,colour,0.5
061,61,0,1,8,13,363,535.3103371951729,535.9037145185284,"[2, 0, 252]",252,a,0.07009551557712257,colour,0.5
061,61,0,1,8,14,364,536.4196530689951,537.015726267593,"[78, 0, 176]",176,l,0.07276775990612805,colour,0.5
061,61,0,1,8,15,365,537.5290154167451,538.3757364919875,"[90, 0, 164]",164,l,0.32344438740983605,colour,0.5
061,61,0,1,8,16,366,538.8884120290168,539.7357069377322,"[74, 0, 180]",180,l,0.3239181840326637,colour,0.5
061,61,0,1,8,17,367,540.2495199018158,540.9036971891765,"[45, 0, 209]",209,a,0.14338000142015517,colour,0.5
061,61,0,1,8,18,368,541.424461534014,542.0876933389809,"[85, 0, 169]",169,l,0.13994763419032097,colour,0.5
061,61,0,1,8,19,369,542.5963693708181,543.1517228395678,"[61, 0, 193]",193,a,0.03198225796222687,colour,0.5
061,61,0,1,8,20,370,543.6608588835225,544.3756943503395,"[22, 0, 232]",232,a,0.19149891450069845,colour,0.5
061,61,0,1,8,21,371,544.8952161110938,545.5676721816417,"[1, 0, 253]",253,a,0.14906241046264768,colour,0.5
061,61,0,1,8,22,372,546.0827588434331,546.8236676980741,"[12, 0, 242]",242,a,0.2175912067759782,colour,0.5
061,61,0,1,8,23,373,547.3327131574042,547.8716822420247,"[10, 0, 244]",244,a,0.015657344600185752,colour,0.5
061,61,0,1,8,24,374,548.37959893886,548.9837373143528,"[52, 0, 202]",202,a,0.08088807528838515,colour,0.5
061,61,0,1,8,25,375,549.5046158742625,550.1356594399549,"[72, 0, 182]",182,l,0.10768889635801315,colour,0.5
061,61,0,1,8,26,376,550.6451424621046,551.1917108036578,"[35, 0, 219]",219,a,0.023191223153844476,colour,0.5
061,61,0,1,8,27,377,551.707797834184,552.3756604797672,"[48, 0, 206]",206,a,0.14460289315320551,colour,0.5
061,61,0,1,8,28,378,552.8952046895865,553.5036753702443,"[20, 0, 234]",234,a,0.08504748204723,colour,0.5
061,61,0,1,8,29,379,554.0202535265125,554.7516754206736,"[65, 0, 189]",189,l,0.20822870172560215,colour,0.5
061,61,0,1,8,30,380,555.2702807018068,555.8717113866005,"[40, 0, 214]",214,a,0.07818117225542665,colour,0.5
061,61,0,1,8,31,381,556.3671648292802,557.1196815047879,"[23, 0, 231]",231,a,0.22932151379063725,colour,0.5
061,61,0,1,8,32,382,557.6337118719239,558.2236997571308,"[54, 0, 200]",200,a,0.06675018835812807,colour,0.5
061,61,0,1,8,33,383,558.7431525948923,559.3197044264525,"[76, 0, 178]",178,l,0.053315316094085574,colour,0.5
061,61,0,1,8,34,384,559.836845388636,561.6397073883563,"[5, 0, 249]",249,a,1.2794644010718912,colour,0.5
061,61,0,1,8,35,385,562.1493381026667,562.743680348387,"[24, 0, 230]",230,a,0.07098797033540905,colour,0.5
061,61,0,1,8,36,386,563.2587209302001,563.9757052205969,"[63, 0, 191]",191,l,0.1936477378476411,colour,0.5
061,61,0,1,8,37,387,564.4930592533201,566.103663003305,"[57, 0, 197]",197,a,1.0855846877675503,colour,0.5
061,61,0,1,8,38,388,566.6197220708709,567.7036636336707,"[58, 0, 196]",196,a,0.5590536512900144,colour,0.5
061,61,0,1,8,39,389,568.2151174605824,568.8876593895257,"[28, 0, 226]",226,a,0.14997495152056217,colour,0.5
061,61,0,1,8,40,390,569.4026680698153,570.2076718034223,"[49, 0, 205]",205,a,0.2816368550993502,colour,0.5
061,61,0,1,8,41,391,570.715127700707,571.4636519600172,"[11, 0, 243]",243,a,0.225121934665367,colour,0.5
061,61,0,1,8,42,392,571.9713583430275,573.1596694688778,"[98, 0, 156]",156,l,0.6631794236600399,colour,0.5
061,61,0,1,8,43,393,573.6638985862955,574.2636467611883,"[67, 0, 187]",187,l,0.07648369623348117,colour,0.5
061,61,0,1,8,44,394,574.7732577831484,575.3996870501433,"[51, 0, 203]",203,a,0.10317739145830274,colour,0.5
061,61,0,1,8,45,395,575.9139190663118,576.4876757734455,"[75, 0, 179]",179,l,0.05037013627588749,colour,0.5
061,61,0,1,8,46,396,577.0075350601692,577.6956665921025,"[17, 0, 237]",237,a,0.16475126263685524,colour,0.5
061,61,0,1,8,47,397,578.2107304108795,578.8876975926105,"[64, 0, 190]",190,l,0.1536794661078602,colour,0.5
061,61,0,1,8,48,398,579.3995094255079,580.4236498174723,"[80, 0, 174]",174,l,0.5007853286806494,colour,0.5
061,61,0,1,8,49,399,580.9307614932768,581.8396413009614,"[73, 0, 181]",181,l,0.38557712617330253,colour,0.5
061,61,0,1,8,50,400,582.352629551664,582.9036971891765,"[53, 0, 201]",201,a,0.027771651279181242,colour,0.5
061,61,0,1,9,1,401,588.6018016876187,590.167649181094,"[85, 0, 169]",169,l,1.0416866217274219,colour,0.5
061,61,0,1,9,2,402,590.6807142316829,591.3756380304694,"[20, 0, 234]",234,a,0.17158567090518773,colour,0.5
061,61,0,1,9,3,403,591.8838434163481,592.5916542473715,"[40, 0, 214]",214,a,0.18458179850131273,colour,0.5
061,61,0,1,9,4,404,593.1025586593896,593.8076330490876,"[74, 0, 180]",180,l,0.18176461872644722,colour,0.5
061,61,0,1,9,5,405,594.3213684256189,595.2556402673945,"[29, 0, 225]",225,a,0.4110605325549841,colour,0.5
061,61,0,1,9,6,406,595.7744271117263,596.3916455041617,"[76, 0, 178]",178,l,0.09378889249637723,colour,0.5
061,61,0,1,9,7,407,596.8995019425638,597.5516753417905,"[27, 0, 227]",227,a,0.12929213279858232,colour,0.5
061,61,0,1,9,8,408,598.0719304436352,598.6876352860127,"[82, 0, 172]",172,l,0.09145574900321662,colour,0.5
061,61,0,1,9,9,409,599.197939870879,600.0636403809767,"[56, 0, 198]",198,a,0.34240058553405106,colour,0.5
061,61,0,1,9,10,410,600.5728973355144,601.4077325344551,"[51, 0, 203]",203,a,0.3115175513084978,colour,0.5
061,61,0,1,9,11,411,601.9146543766838,602.511736608576,"[15, 0, 239]",239,a,0.0742647685110569,colour,0.5
061,61,0,1,9,12,412,603.023937167367,603.8476670931559,"[9, 0, 245]",245,a,0.30040085641667247,colour,0.5
061,61,0,1,9,13,413,604.3677122751251,605.1036740310956,"[63, 0, 191]",191,l,0.21293358504772186,colour,0.5
061,61,0,1,9,14,414,605.6176886444446,606.4716608168092,"[95, 0, 159]",159,l,0.33079709694720805,colour,0.5
061,61,0,1,9,15,415,606.9929399180692,607.8237315011211,"[33, 0, 221]",221,a,0.307360507780686,colour,0.5
061,61,0,1,9,16,416,608.3383301878348,609.2076808619313,"[75, 0, 179]",179,l,0.34592196182347834,colour,0.5
061,61,0,1,9,17,417,609.7223461086396,610.6156453716103,"[73, 0, 181]",181,l,0.3682482992298901,colour,0.5
061,61,0,1,9,18,418,611.1302062491886,611.7756310987752,"[47, 0, 207]",207,a,0.12199692497961223,colour,0.5
061,61,0,1,9,19,419,612.2865032153204,613.0636017839424,"[45, 0, 209]",209,a,0.25379706849344075,colour,0.5
061,61,0,1,9,20,420,613.5833102278411,614.2556260889396,"[68, 0, 186]",186,l,0.14904586877673864,colour,0.5
061,61,0,1,9,21,421,614.7709183385596,615.6876935753971,"[24, 0, 230]",230,a,0.3934375031385571,colour,0.5
061,61,0,1,9,22,422,616.2084421662148,617.1196310925297,"[43, 0, 211]",211,a,0.38808789383620024,colour,0.5
061,61,0,1,9,23,423,617.6214104883838,618.4956263410859,"[50, 0, 204]",204,a,0.3508316450752318,colour,0.5
061,61,0,1,9,24,424,619.0119882761501,619.9036581984255,"[39, 0, 215]",215,a,0.36838102526962757,colour,0.5
061,61,0,1,9,25,425,620.4201709765475,621.2477026968263,"[6, 0, 248]",248,a,0.30572447180747986,colour,0.5
061,61,0,1,9,26,426,621.7625065771863,622.5757283000275,"[49, 0, 205]",205,a,0.28996315179392695,colour,0.5
061,61,0,1,9,27,427,623.0905455711763,624.0956049158704,"[53, 0, 201]",201,a,0.4817031000275165,colour,0.5
061,61,0,1,9,28,428,624.6063183126971,625.4716151305474,"[72, 0, 182]",182,l,0.3420287948101759,colour,0.5
061,61,0,1,9,29,429,625.9811974018812,626.847634797683,"[99, 0, 155]",155,l,0.34312171721830964,colour,0.5
061,61,0,1,9,30,430,627.3561824357603,628.2716800365597,"[60, 0, 194]",194,a,0.3921590792015195,colour,0.5
061,61,0,1,9,31,431,628.7780504941475,629.7116401949897,"[3, 0, 251]",251,a,0.41023660684004426,colour,0.5
061,61,0,1,9,32,432,630.2312218204606,631.6236270531081,"[64, 0, 190]",190,a,0.8691116096451879,colour,0.5
061,61,0,1,9,33,433,632.1383923366666,632.7756303111091,"[28, 0, 226]",226,a,0.11395380343310535,colour,0.5
061,61,0,1,9,34,434,633.2945601213723,634.2076253297273,"[66, 0, 188]",188,l,0.3895581206306815,colour,0.5
061,61,0,1,9,35,435,634.7041705131996,635.3756463013124,"[12, 0, 242]",242,a,0.14802541420795023,colour,0.5
061,61,0,1,9,36,436,635.8917790178675,636.9196518876124,"[42, 0, 212]",212,a,0.5046477757859975,colour,0.5
061,61,0,1,9,37,437,637.4385856364388,638.2396410645451,"[4, 0, 250]",250,a,0.2776613743044436,colour,0.5
061,61,0,1,9,38,438,638.7511437286157,639.5036379548255,"[18, 0, 236]",236,a,0.2281569114420563,colour,0.5
061,61,0,1,9,39,439,640.0179499217775,640.7756437018979,"[30, 0, 224]",224,a,0.23452106770128012,colour,0.5
061,61,0,1,9,40,440,641.283579697134,641.8476052593905,"[88, 0, 166]",166,l,0.04089223430491984,colour,0.5
061,61,0,1,9,41,441,642.3523290473968,643.8556070269551,"[67, 0, 187]",187,a,0.9782250467687845,colour,0.5
061,61,0,1,9,42,442,644.3724210970104,645.5196091947146,"[91, 0, 163]",163,l,0.6237566284835339,colour,0.5
061,61,0,1,9,43,443,646.0287724137306,647.0316837229766,"[22, 0, 232]",232,a,0.4795566399116069,colour,0.5
061,61,0,1,9,44,444,647.5444057337008,649.055643733358,"[26, 0, 228]",228,a,0.9879231087397784,colour,0.5
061,61,0,1,9,45,445,649.5756089645438,650.3435911815614,"[57, 0, 197]",197,a,0.2446121876128018,colour,0.5
061,61,0,1,9,46,446,650.854797279695,651.4556517677847,"[93, 0, 161]",161,l,0.07602604734711349,colour,0.5
061,61,0,1,9,47,447,651.9565257118084,652.7596011760179,"[81, 0, 173]",173,l,0.2797432441730052,colour,0.5
061,61,0,1,9,48,448,653.2695820191875,653.911625307519,"[54, 0, 200]",200,a,0.11861654510721564,colour,0.5
061,61,0,1,9,49,449,654.4134716573171,655.3036016421393,"[1, 0, 253]",253,a,0.36684423848055303,colour,0.5
061,61,0,1,9,50,450,655.8196611034218,656.6636496756691,"[8, 0, 246]",246,a,0.3206784075591713,colour,0.5
061,61,0,1,10,1,451,676.2126815235242,678.6795968909282,"[63, 0, 191]",191,a,1.9428242060821503,colour,0.5
061,61,0,1,10,2,452,679.1977984800469,680.1755717855413,"[91, 0, 163]",163,l,0.45442572538740933,colour,0.5
061,61,0,1,10,3,453,680.682202181546,681.3356079249643,"[83, 0, 171]",171,a,0.1301345694810152,colour,0.5
061,61,0,1,10,4,454,681.8540198279079,683.0155856646597,"[15, 0, 239]",239,a,0.6382627612911165,colour,0.5
061,61,0,1,10,5,455,683.5259430247825,684.6155929903034,"[80, 0, 174]",174,l,0.566375640919432,colour,0.5
061,61,0,1,10,6,456,685.1352510217112,686.1196295169648,"[86, 0, 168]",168,l,0.46109747514128685,colour,0.5
061,61,0,1,10,7,457,686.635256141657,687.5596077924129,"[19, 0, 235]",235,a,0.40097413840703666,colour,0.5
061,61,0,1,10,8,458,688.0635190764442,688.9117166798096,"[88, 0, 166]",166,l,0.32495872490108013,colour,0.5
061,61,0,1,10,9,459,689.4214824833907,690.1916162807029,"[12, 0, 242]",242,a,0.24558695638552308,colour,0.5
061,61,0,1,10,10,460,690.7039857995696,691.4475850155577,"[9, 0, 245]",245,a,0.22025321144610643,colour,0.5
061,61,0,1,10,11,461,691.9540117932484,692.6155965349171,"[39, 0, 215]",215,a,0.13834822596982121,colour,0.5
061,61,0,1,10,12,462,693.125842042733,693.871605835855,"[95, 0, 159]",159,l,0.22240124712698162,colour,0.5
061,61,0,1,10,13,463,694.3868665776681,698.2796030349564,"[46, 0, 208]",208,a,3.36957437871024,colour,0.5
061,61,0,1,10,14,464,698.7937208358198,699.6875884183683,"[3, 0, 251]",251,a,0.37161410646513104,colour,0.5
061,61,0,1,10,15,465,700.1991789101157,700.991651647957,"[27, 0, 227]",227,a,0.2690920748282224,colour,0.5
061,61,0,1,10,16,466,701.5117444854695,703.943591811927,"[60, 0, 194]",194,a,1.908618687884882,colour,0.5
061,61,0,1,10,17,467,704.4647570915986,705.0555945024826,"[10, 0, 244]",244,a,0.06746265548281372,colour,0.5
061,61,0,1,10,18,468,705.5746527067386,706.3356000478379,"[56, 0, 198]",198,a,0.23765489947982132,colour,0.5
061,61,0,1,10,19,469,706.8559477035888,708.983586471295,"[22, 0, 232]",232,a,1.6043242707382888,colour,0.5
061,61,0,1,10,20,470,709.4966278912034,710.2396091630217,"[98, 0, 156]",156,l,0.22046273737214506,colour,0.5
061,61,0,1,10,21,471,710.746575115947,711.4876446595881,"[13, 0, 241]",241,a,0.21775662200525403,colour,0.5
061,61,0,1,10,22,472,711.9965408514254,712.7355710607953,"[84, 0, 170]",170,l,0.21563615556806326,colour,0.5
061,61,0,1,10,23,473,713.235856205225,714.0715889793355,"[71, 0, 183]",183,l,0.3121484925504774,colour,0.5
061,61,0,1,10,24,474,714.5798140575644,715.6796016169246,"[61, 0, 193]",193,a,0.5763391547370702,colour,0.5
061,61,0,1,10,25,475,716.1892331191339,716.9116355476435,"[44, 0, 210]",210,a,0.19907454075291753,colour,0.5
061,61,0,1,10,26,476,717.4235525375698,718.0396433488932,"[48, 0, 206]",206,a,0.09272984066046774,colour,0.5
061,61,0,1,10,27,477,718.5486608450301,719.1835574053694,"[4, 0, 250]",250,a,0.11165374307893217,colour,0.5
061,61,0,1,10,28,478,719.7047888513189,720.647540983744,"[47, 0, 207]",207,a,0.419337204657495,colour,0.5
061,61,0,1,10,29,479,721.158644287847,723.1675408734009,"[96, 0, 158]",158,l,1.4856742485426366,colour,0.5
061,61,0,1,10,30,480,723.6696806382388,725.8475320038851,"[37, 0, 217]",217,a,1.6547810530755669,colour,0.5
061,61,0,1,10,31,481,726.3571162445005,726.895624923287,"[24, 0, 230]",230,a,0.01513786194846034,colour,0.5
061,61,0,1,10,32,482,727.4071590949316,729.6155827501789,"[62, 0, 192]",192,a,1.6851186105050147,colour,0.5
061,61,0,1,10,33,483,730.1134055699222,731.0315730520524,"[21, 0, 233]",233,a,0.3948588927742094,colour,0.5
061,61,0,1,10,34,484,731.5508762283716,732.2955683670007,"[52, 0, 202]",202,a,0.22148910001851618,colour,0.5
061,61,0,1,10,35,485,732.8181861506309,733.3676067243796,"[90, 0, 164]",164,l,0.026309695094823837,colour,0.5
061,61,0,1,10,36,486,733.8805882798042,735.3355614510365,"[50, 0, 204]",204,a,0.9315062558744103,colour,0.5
061,61,0,1,10,37,487,735.8493925321382,736.4955751411617,"[29, 0, 225]",225,a,0.12277949671261013,colour,0.5
061,61,0,1,10,38,488,737.0056682305876,737.7836529524066,"[23, 0, 231]",231,a,0.25529683381319046,colour,0.5
061,61,0,1,10,39,489,738.3025737043936,739.0875614006072,"[41, 0, 213]",213,a,0.2616365714929998,colour,0.5
061,61,0,1,10,40,490,739.6001093317755,740.6715447111055,"[55, 0, 199]",199,a,0.548723072744906,colour,0.5
061,61,0,1,10,41,491,741.177580005955,741.9035384692252,"[7, 0, 247]",247,a,0.20266405236907303,colour,0.5
061,61,0,1,10,42,492,742.4068893103395,743.4315822680946,"[59, 0, 195]",195,l,0.5014190268702805,colour,0.5
061,61,0,1,10,43,493,743.9380641842727,744.4635625570081,"[85, 0, 169]",169,l,0.0020086143631488085,colour,0.5
061,61,0,1,10,44,494,744.9849625688512,745.6075526257046,"[17, 0, 237]",237,a,0.09946657507680357,colour,0.5
061,61,0,1,10,45,495,746.126550965244,746.8875526571646,"[81, 0, 173]",173,l,0.23764465958811343,colour,0.5
061,61,0,1,10,46,496,747.4077569530345,748.0795537254307,"[16, 0, 238]",238,a,0.1484306815546006,colour,0.5
061,61,0,1,10,47,497,748.5952319437638,749.1915386931505,"[76, 0, 178]",178,l,0.07292923703789711,colour,0.5
061,61,0,1,10,48,498,749.7065934534185,750.3835633918643,"[78, 0, 176]",176,l,0.15370033984072506,colour,0.5
061,61,0,1,10,49,499,750.894031816395,751.487569435034,"[94, 0, 160]",160,l,0.07012544781900942,colour,0.5
061,61,0,1,10,50,500,752.0041133267805,752.5435928357765,"[28, 0, 226]",226,a,0.016045676544308662,colour,0.5
061,61,0,1,11,1,501,756.7258194359019,757.8875947988126,"[10, 0, 244]",244,a,0.6377011372242123,colour,0.5
061,61,0,1,11,2,502,758.398431075504,759.1115993924905,"[80, 0, 174]",174,l,0.18970730947330594,colour,0.5
061,61,0,1,11,3,503,759.6328111460898,760.6715951233637,"[48, 0, 206]",206,a,0.5143871915061027,colour,0.5
061,61,0,1,11,4,504,761.1810682993382,761.7915759508032,"[60, 0, 194]",194,a,0.08727349922992289,colour,0.5
061,61,0,1,11,5,505,762.3060210377444,763.1035483942833,"[69, 0, 185]",185,l,0.2742372779175639,colour,0.5
061,61,0,1,11,6,506,763.6184723977931,765.3835681180935,"[37, 0, 217]",217,a,1.2419190693181008,colour,0.5
061,61,0,1,11,7,507,765.9003317758907,766.4715899245348,"[9, 0, 245]",245,a,0.0479558608494699,colour,0.5
061,61,0,1,11,8,508,766.9660536323208,767.7835202263668,"[17, 0, 237]",237,a,0.29414225090295076,colour,0.5
061,61,0,1,11,9,509,768.2940414263867,768.8636044622399,"[98, 0, 156]",156,l,0.046535652596503496,colour,0.5
061,61,0,1,11,10,510,769.3722934909165,769.9995573172346,"[78, 0, 176]",176,l,0.10384141560643911,colour,0.5
061,61,0,1,11,11,511,770.5130233031232,772.239632793935,"[42, 0, 212]",212,a,1.2033119292464107,colour,0.5
061,61,0,1,11,12,512,772.7478299089707,773.7835387371015,"[76, 0, 178]",178,l,0.5123659742530435,colour,0.5
061,61,0,1,11,13,513,774.2946570075583,775.1515440335497,"[87, 0, 167]",167,l,0.33357686130329967,colour,0.5
061,61,0,1,11,14,514,775.6696885151323,776.9675628498662,"[19, 0, 235]",235,a,0.7745039116125554,colour,0.5
061,61,0,1,11,15,515,777.4820744968019,778.3035646206699,"[16, 0, 238]",238,a,0.29811064223758876,colour,0.5
061,61,0,1,11,16,516,778.8102686658967,779.5435373035725,"[54, 0, 200]",200,a,0.21001951908692718,colour,0.5
061,61,0,1,11,17,517,780.0602060444653,780.8475438193418,"[22, 0, 232]",232,a,0.26402091491036117,colour,0.5
061,61,0,1,11,18,518,781.3570532291196,782.9595232731663,"[28, 0, 226]",226,a,1.0789605933241546,colour,0.5
061,61,0,1,11,19,519,783.4662978169508,783.9918210017495,"[72, 0, 182]",182,l,0.0019901033956557512,colour,0.5
061,61,0,1,11,20,520,784.5133844597731,785.2795758594293,"[20, 0, 234]",234,a,0.24287178250961006,colour,0.5
061,61,0,1,11,21,521,785.7945995060727,786.5595203586854,"[91, 0, 163]",163,l,0.24189740791916847,colour,0.5
061,61,0,1,11,22,522,787.0758716599084,787.7356045378838,"[36, 0, 218]",218,a,0.13643886102363467,colour,0.5
061,61,0,1,11,23,523,788.2477838289924,789.0716082777362,"[4, 0, 250]",250,a,0.30049892398528755,colour,0.5
061,61,0,1,11,24,524,789.5914896198083,791.3915612210985,"[62, 0, 192]",192,a,1.2767811289522797,colour,0.5
061,61,0,1,11,25,525,791.9039449184202,792.9915086820256,"[3, 0, 251]",251,a,0.5642543868161738,colour,0.5
061,61,0,1,11,26,526,793.4976991522126,794.9515144163743,"[84, 0, 170]",170,l,0.9303554380312562,colour,0.5
061,61,0,1,11,27,527,795.4664553552866,796.1595300473273,"[50, 0, 204]",204,a,0.16978540131822228,colour,0.5
061,61,0,1,11,28,528,796.6695880845655,797.4155413175467,"[40, 0, 214]",214,a,0.2225564222317189,colour,0.5
061,61,0,1,11,29,529,797.9351922599599,798.7355356146581,"[75, 0, 179]",179,l,0.27716906694695354,colour,0.5
061,61,0,1,11,30,530,799.2477267214563,800.0795781437773,"[94, 0, 160]",160,l,0.3085503161419183,colour,0.5
061,61,0,1,11,31,531,800.5914581122342,801.4315629696939,"[70, 0, 184]",184,l,0.31688409578055143,colour,0.5
061,61,0,1,11,32,532,801.9508015553001,802.943500045687,"[34, 0, 220]",220,a,0.46956161805428565,colour,0.5
061,61,0,1,11,33,533,803.4527936279774,804.3515102416277,"[11, 0, 243]",243,a,0.37547300895676017,colour,0.5
061,61,0,1,11,34,534,804.8589964648709,805.7196340856608,"[81, 0, 173]",173,l,0.33736959751695395,colour,0.5
061,61,0,1,11,35,535,806.2340039480478,807.303574466845,"[66, 0, 188]",188,a,0.5464190740603954,colour,0.5
061,61,0,1,11,36,536,807.8121429786552,808.7595176806208,"[52, 0, 202]",202,a,0.4241338539868593,colour,0.5
061,61,0,1,11,37,537,809.2808464064728,811.0795119777322,"[96, 0, 158]",158,l,1.2753546189051121,colour,0.5
061,61,0,1,11,38,538,811.5933674771804,812.1195385386236,"[6, 0, 248]",248,a,0.0029038258362561464,colour,0.5
061,61,0,1,11,39,539,812.6402245080099,813.4395856112242,"[25, 0, 229]",229,a,0.2760584217030555,colour,0.5
061,61,0,1,11,40,540,813.9527113141958,814.6555140004493,"[45, 0, 209]",209,a,0.17940469388850033,colour,0.5
061,61,0,1,11,41,541,815.1714092281181,815.7035253937356,"[89, 0, 165]",165,l,0.00874534877948463,colour,0.5
061,61,0,1,11,42,542,816.2183257294819,816.8315170472488,"[56, 0, 198]",198,a,0.09008358977735043,colour,0.5
061,61,0,1,11,43,543,817.3455915250815,818.1995310082566,"[41, 0, 213]",213,a,0.3304524817503989,colour,0.5
061,61,0,1,11,44,544,818.7225296408869,819.4794806274585,"[53, 0, 201]",201,a,0.2321867428254336,colour,0.5
061,61,0,1,11,45,545,819.9896257047076,820.7597027882002,"[58, 0, 196]",196,a,0.24496664921753109,colour,0.5
061,61,0,1,11,46,546,821.2651847295929,821.8475040409248,"[5, 0, 249]",249,a,0.0577090613078326,colour,0.5
061,61,0,1,11,47,547,822.3603213625029,823.1035172804259,"[39, 0, 215]",215,a,0.22021028213202953,colour,0.5
061,61,0,1,11,48,548,823.6103284517303,824.2475207399111,"[23, 0, 231]",231,a,0.1146119199693203,colour,0.5
061,61,0,1,11,49,549,824.7665308949072,825.4474826157093,"[95, 0, 159]",159,l,0.15773844229988754,colour,0.5
061,61,0,1,11,50,550,825.9541071041021,826.5675032217987,"[32, 0, 222]",222,a,0.09016905445605516,colour,0.5
061,61,0,1,12,1,551,833.7561786549632,836.6155433657113,"[72, 0, 182]",182,a,2.335484257200733,colour,0.5
061,61,0,1,12,2,552,837.1335740257055,838.0395968751982,"[48, 0, 206]",206,a,0.38280799542553723,colour,0.5
061,61,0,1,12,3,553,838.5554960411973,839.199515648419,"[82, 0, 172]",172,l,0.1205420580226928,colour,0.5
061,61,0,1,12,4,554,839.7097623376176,840.4075434885453,"[74, 0, 180]",180,l,0.17445877706632018,colour,0.5
061,61,0,1,12,5,555,840.9284736423288,841.5834894275758,"[51, 0, 203]",203,a,0.13165166368708014,colour,0.5
061,61,0,1,12,6,556,842.1004389806185,842.8154946074355,"[23, 0, 231]",231,a,0.19137682230211794,colour,0.5
061,61,0,1,12,7,557,843.3354688971303,844.0635687010363,"[96, 0, 158]",158,l,0.2080739203374833,colour,0.5
061,61,0,1,12,8,558,844.5825902773067,845.3674617891666,"[66, 0, 188]",188,a,0.2615322023630142,colour,0.5
061,61,0,1,12,9,559,845.8796623479575,846.4634924523998,"[87, 0, 167]",167,l,0.06077042571268976,colour,0.5
061,61,0,1,12,10,560,846.9736052341759,847.7354954425246,"[34, 0, 220]",220,a,0.25112600554712117,colour,0.5
061,61,0,1,12,11,561,848.2429308595601,849.0554743795656,"[31, 0, 223]",223,a,0.2892585613299161,colour,0.5
061,61,0,1,12,12,562,849.5710403518751,850.3674641521648,"[13, 0, 241]",241,a,0.2717265102546662,colour,0.5
061,61,0,1,12,13,563,850.8849292495288,851.5275121068116,"[94, 0, 160]",160,l,0.11944322776980698,colour,0.5
061,61,0,1,12,14,564,852.041162018897,852.8074526677374,"[49, 0, 205]",205,a,0.24285051506012678,colour,0.5
061,61,0,1,12,15,565,853.322556658648,854.1354916614946,"[14, 0, 240]",240,a,0.2895803335122764,colour,0.5
061,61,0,1,12,16,566,854.6506500034593,855.4475318463519,"[38, 0, 216]",216,a,0.27359727839939296,colour,0.5
061,61,0,1,12,17,567,855.9631486248691,856.7275700808968,"[55, 0, 199]",199,a,0.2411128666717559,colour,0.5
061,61,0,1,12,18,568,857.2444408647716,858.0154954739846,"[37, 0, 217]",217,a,0.24786417349241674,colour,0.5
061,61,0,1,12,19,569,858.5256409449503,860.1595075980294,"[86, 0, 168]",168,l,1.1105088330805302,colour,0.5
061,61,0,1,12,20,570,860.6663156186696,862.7675608019345,"[64, 0, 190]",190,a,1.5789330240804702,colour,0.5
061,61,0,1,12,21,571,863.2756011665333,864.0074830725789,"[57, 0, 197]",197,a,0.2085437783971429,colour,0.5
061,61,0,1,12,22,572,864.5256145573221,865.303500817623,"[52, 0, 202]",202,a,0.25454458803869784,colour,0.5
061,61,0,1,12,23,573,865.8224885233212,866.5755065646954,"[63, 0, 191]",191,a,0.22969684889540076,colour,0.5
061,61,0,1,12,24,574,867.0881364156958,868.439508811105,"[88, 0, 166]",166,l,0.8280090615153313,colour,0.5
061,61,0,1,12,25,575,868.9474932495505,869.5834677661769,"[75, 0, 179]",179,l,0.11272657965309918,colour,0.5
061,61,0,1,12,26,576,870.1037275942508,871.12751391856,"[42, 0, 212]",212,a,0.5004269289784133,colour,0.5
061,61,0,1,12,27,577,871.6349938402418,872.3754887627438,"[40, 0, 214]",214,a,0.2173407208174467,colour,0.5
061,61,0,1,12,28,578,872.8849662709981,873.7835155001376,"[17, 0, 237]",237,a,0.3753863626625389,colour,0.5
061,61,0,1,12,29,579,874.2912218833808,875.1034719881136,"[73, 0, 181]",181,l,0.2887922478839755,colour,0.5
061,61,0,1,12,30,580,875.6127702964004,876.4474660742562,"[9, 0, 245]",245,a,0.31139861000701785,colour,0.5
061,61,0,1,12,31,581,876.9564745118842,877.6634933189489,"[81, 0, 173]",173,l,0.1836298732087016,colour,0.5
061,61,0,1,12,32,582,878.1782676607836,878.9754905744921,"[26, 0, 228]",228,a,0.27394189359620214,colour,0.5
061,61,0,1,12,33,583,879.4922877091449,880.0875700651668,"[29, 0, 225]",225,a,0.07183158816769719,colour,0.5
061,61,0,1,12,34,584,880.6016075215302,881.5994677566923,"[1, 0, 253]",253,a,0.47462332574650645,colour,0.5
061,61,0,1,12,35,585,882.1192140097264,882.8154658568092,"[60, 0, 194]",194,l,0.1729393193963915,colour,0.5
061,61,0,1,12,36,586,883.322348708054,883.8555065961555,"[46, 0, 208]",208,a,0.010118689388036728,colour,0.5
061,61,0,1,12,37,587,884.3692986865062,885.1995353405364,"[3, 0, 251]",251,a,0.3070623662788421,colour,0.5
061,61,0,1,12,38,588,885.7129587910604,886.6075427795295,"[76, 0, 178]",178,l,0.3719484817702323,colour,0.5
061,61,0,1,12,39,589,887.1192104651127,887.8396231839433,"[79, 0, 175]",175,l,0.19712618505582213,colour,0.5
061,61,0,1,12,40,590,888.3389831844252,889.231502238661,"[90, 0, 164]",164,l,0.36908404040150344,colour,0.5
061,61,0,1,12,41,591,889.7453793997411,890.6077885394916,"[4, 0, 250]",250,a,0.3387760214973241,colour,0.5
061,61,0,1,12,42,592,891.1226759152487,891.9914937159047,"[95, 0, 159]",159,l,0.34616850945167243,colour,0.5
061,61,0,1,12,43,593,892.4976739459671,893.2074898467399,"[8, 0, 246]",246,a,0.18646044377237558,colour,0.5
061,61,0,1,12,44,594,893.7164120322559,894.3274817019701,"[80, 0, 174]",174,l,0.08776856353506446,colour,0.5
061,61,0,1,12,45,595,894.8413884013426,895.8395073933061,"[59, 0, 195]",195,a,0.47477101790718734,colour,0.5
061,61,0,1,12,46,596,896.3589566864539,896.9994596433826,"[10, 0, 244]",244,a,0.11716010305099189,colour,0.5
061,61,0,1,12,47,597,897.5155116217211,898.3915230180137,"[43, 0, 211]",211,a,0.3526283702813089,colour,0.5
061,61,0,1,12,48,598,898.8968300917186,899.6954629737884,"[28, 0, 226]",226,a,0.27519511128775775,colour,0.5
061,61,0,1,12,49,599,900.2049247282557,901.0395318905357,"[30, 0, 224]",224,a,0.3112205914221704,colour,0.5
061,61,0,1,12,50,600,901.5487439467106,902.1835006915499,"[6, 0, 248]",248,a,0.11145130638033152,colour,0.5
061,61,0,1,13,1,601,907.5049388278276,908.1114753310103,"[57, 0, 197]",197,a,0.08242919435724616,colour,0.5
061,61,0,1,13,2,602,908.6313007471617,909.4075316730887,"[85, 0, 169]",169,l,0.2515568728558719,colour,0.5
061,61,0,1,13,3,603,909.9138918910176,910.5515457664151,"[53, 0, 201]",201,a,0.11434489232487977,colour,0.5
061,61,0,1,13,4,604,911.0701691647992,911.7434416776523,"[86, 0, 168]",168,l,0.1499875544104725,colour,0.5
061,61,0,1,13,5,605,912.2575961062685,912.9675033793319,"[13, 0, 241]",241,a,0.18651873292401433,colour,0.5
061,61,0,1,13,6,606,913.476393269375,914.1114942356944,"[78, 0, 176]",176,l,0.11189674609340727,colour,0.5
061,61,0,1,13,7,607,914.6326189492829,915.2474400014617,"[43, 0, 211]",211,a,0.09142817975953221,colour,0.5
061,61,0,1,13,8,608,915.7576201308984,916.3674503676593,"[3, 0, 251]",251,a,0.08650353061966598,colour,0.5
061,61,0,1,13,9,609,916.8826575463172,917.5034658440854,"[73, 0, 181]",181,l,0.09776397910900414,colour,0.5
061,61,0,1,13,10,610,918.0232503002044,918.6954818784725,"[12, 0, 242]",242,a,0.14890605374239385,colour,0.5
061,61,0,1,13,11,611,919.2087407014333,919.7434676715638,"[70, 0, 184]",184,l,0.011533383978530765,colour,0.5
061,61,0,1,13,12,612,920.2555607105605,921.0714960317127,"[61, 0, 193]",193,l,0.29252669494599104,colour,0.5
061,61,0,1,13,13,613,921.5837596058846,922.6074691303074,"[80, 0, 174]",174,l,0.5005730458069593,colour,0.5
061,61,0,1,13,14,614,923.1150041904766,923.791443618713,"[18, 0, 236]",236,a,0.15313398954458535,colour,0.5
061,61,0,1,13,15,615,924.3023976553231,925.1834447656292,"[96, 0, 158]",158,l,0.3575963426847011,colour,0.5
061,61,0,1,13,16,616,925.69303136901,926.999460037332,"[40, 0, 214]",214,a,0.7830385528504848,colour,0.5
061,61,0,1,13,17,617,927.5076284017414,928.359458446037,"[50, 0, 204]",204,a,0.32853839034214616,colour,0.5
061,61,0,1,13,18,618,928.8669679062441,929.7354647223838,"[81, 0, 173]",173,l,0.34540681121870875,colour,0.5
061,61,0,1,13,19,619,930.2424302813597,931.0314442645758,"[0, 0, 254]",254,a,0.2655982677824795,colour,0.5
061,61,0,1,13,20,620,931.5393357551657,934.4874300137162,"[64, 0, 190]",190,l,2.424681300064549,colour,0.5
061,61,0,1,13,21,621,935.0081880567595,935.6154433288611,"[21, 0, 233]",233,a,0.08398212888278067,colour,0.5
061,61,0,1,13,22,622,936.1330769921187,936.9834364159033,"[26, 0, 228]",228,a,0.3258200658019632,colour,0.5
061,61,0,1,13,23,623,937.4939521020278,938.3834523274563,"[8, 0, 246]",246,a,0.3661160175688565,colour,0.5
061,61,0,1,13,24,624,938.9002092897426,940.2234457265586,"[27, 0, 227]",227,a,0.8000318228732795,colour,0.5
061,61,0,1,13,25,625,940.7449607413728,941.8794646374881,"[59, 0, 195]",195,a,0.6111815220210701,colour,0.5
061,61,0,1,13,26,626,942.4012226553168,943.1914461392444,"[37, 0, 217]",217,a,0.26718664821237326,colour,0.5
061,61,0,1,13,27,627,943.6980237599928,944.5674264216796,"[55, 0, 199]",199,a,0.34601845405995846,colour,0.5
061,61,0,1,13,28,628,945.0886582615785,945.9034541863948,"[6, 0, 248]",248,a,0.2913589417003095,colour,0.5
061,61,0,1,13,29,629,946.4044443150051,947.0234283185564,"[83, 0, 171]",171,l,0.09575654659420252,colour,0.5
061,61,0,1,13,30,630,947.5450252534356,948.3914403102826,"[91, 0, 163]",163,l,0.3231367936823517,colour,0.5
061,61,0,1,13,31,631,948.906372978352,949.8394431965426,"[62, 0, 192]",192,a,0.40980495186522603,colour,0.5
061,61,0,1,13,32,632,950.3594131539576,951.351498426171,"[71, 0, 183]",183,l,0.4687388737220317,colour,0.5
061,61,0,1,13,33,633,951.8594367846381,952.4474589850288,"[16, 0, 238]",238,a,0.06475457106716931,colour,0.5
061,61,0,1,13,34,634,952.9687278461643,954.0394700567704,"[20, 0, 234]",234,a,0.5473662735894322,colour,0.5
061,61,0,1,13,35,635,954.5468873570208,955.3834452382289,"[5, 0, 249]",249,a,0.31330600567162037,colour,0.5
061,61,0,1,13,36,636,955.8906132339034,956.7034289014991,"[38, 0, 216]",216,a,0.2894054660573602,colour,0.5
061,61,0,1,13,37,637,957.2206876236014,959.0954591929913,"[31, 0, 223]",223,a,1.351540567819029,colour,0.5
061,61,0,1,13,38,638,959.6112000327557,960.3434549109079,"[65, 0, 189]",189,l,0.20887027657590806,colour,0.5
061,61,0,1,13,39,639,960.8612035773695,961.551480388036,"[36, 0, 218]",218,a,0.16684100916609168,colour,0.5
061,61,0,1,13,40,640,962.0643579682801,962.8474764716811,"[77, 0, 177]",177,l,0.2598441787995398,colour,0.5
061,61,0,1,13,41,641,963.3612004267052,964.0315718706697,"[7, 0, 247]",247,a,0.147032922366634,colour,0.5
061,61,0,1,13,42,642,964.548751035938,965.1754197611008,"[29, 0, 225]",225,a,0.10340660973452032,colour,0.5
061,61,0,1,13,43,643,965.6892602944281,966.5357931111939,"[33, 0, 221]",221,a,0.32314821518957615,colour,0.5
061,61,0,1,13,44,644,967.0487644267268,967.8714573560283,"[25, 0, 229]",229,a,0.2994308138731867,colour,0.5
061,61,0,1,13,45,645,968.3923902667593,969.2155006728135,"[42, 0, 212]",212,a,0.31205357564613223,colour,0.5
061,61,0,1,13,46,646,969.7237529263366,970.6314921563026,"[58, 0, 196]",196,a,0.3843400562182069,colour,0.5
061,61,0,1,13,47,647,971.1456867570523,971.7674123221077,"[72, 0, 182]",182,l,0.09885650780051947,colour,0.5
061,61,0,1,13,48,648,972.2863291355316,972.8554896607529,"[46, 0, 208]",208,a,0.045832243748009205,colour,0.5
061,61,0,1,13,49,649,973.3647576430812,973.9354565304238,"[92, 0, 162]",162,l,0.04803423606790602,colour,0.5
061,61,0,1,13,50,650,974.4425622986164,975.1274587800726,"[75, 0, 179]",179,l,0.1615607168059796,colour,0.5
061,61,0,1,14,1,651,980.4105627113022,981.1913898193743,"[34, 0, 220]",220,a,0.25682456232607365,colour,0.5
061,61,0,1,14,2,652,981.7082078277599,982.3274588589557,"[1, 0, 253]",253,a,0.09588336502201855,colour,0.5
061,61,0,1,14,3,653,982.8406003157143,983.6074124164879,"[33, 0, 221]",221,a,0.24337196699343622,colour,0.5
061,61,0,1,14,4,654,984.1227440505754,984.8874329281971,"[29, 0, 225]",225,a,0.24135586991906166,colour,0.5
061,61,0,1,14,5,655,985.4039527953137,985.9354600750376,"[89, 0, 165]",165,l,0.008161668898537755,colour,0.5
061,61,0,1,14,6,656,986.4508858383633,987.1114091649652,"[7, 0, 247]",247,a,0.13732580188661814,colour,0.5
061,61,0,1,14,7,657,987.6228799275123,989.2154593188316,"[60, 0, 194]",194,a,1.069337755907327,colour,0.5
061,61,0,1,14,8,658,989.7205741959624,990.4554418479092,"[0, 0, 254]",254,a,0.21143972733989358,colour,0.5
061,61,0,1,14,9,659,990.9706281528343,991.591478198301,"[16, 0, 238]",238,a,0.09758674842305481,colour,0.5
061,61,0,1,14,10,660,992.1112232697196,992.6634232143406,"[87, 0, 167]",167,l,0.028912229230627418,colour,0.5
061,61,0,1,14,11,661,993.1742642170284,995.0953957836609,"[80, 0, 174]",174,l,1.397710731253028,colour,0.5
061,61,0,1,14,12,662,995.6119042292703,996.4394257096574,"[53, 0, 201]",201,a,0.3042640909552574,colour,0.5
061,61,0,1,14,13,663,996.9556041124742,997.6154515994713,"[77, 0, 177]",177,l,0.1365109346807003,colour,0.5
061,61,0,1,14,14,664,998.1282255982514,998.9355301796459,"[79, 0, 175]",175,l,0.2848289762623608,colour,0.5
061,61,0,1,14,15,665,999.4556060817558,1000.0074389618821,"[94, 0, 160]",160,l,0.028541620122268796,colour,0.5
061,61,0,1,14,16,666,1000.5195119145792,1001.119447166333,"[21, 0, 233]",233,a,0.07657073624432087,colour,0.5
061,61,0,1,14,17,667,1001.616488595726,1002.3754269289784,"[81, 0, 173]",173,l,0.23567739920690656,colour,0.5
061,61,0,1,14,18,668,1002.8820541743189,1003.5593907833099,"[19, 0, 235]",235,a,0.1539181366097182,colour,0.5
061,61,0,1,14,19,669,1004.0694598483387,1006.7754259051289,"[68, 0, 186]",186,l,2.1826109937392175,colour,0.5
061,61,0,1,14,20,670,1007.2882448020391,1007.9194718999788,"[27, 0, 227]",227,a,0.10783343785442412,colour,0.5
061,61,0,1,14,21,671,1008.4288919067476,1009.1274146693759,"[78, 0, 176]",176,l,0.17515824735164642,colour,0.5
061,61,0,1,14,22,672,1009.6476536234841,1010.3994113579392,"[71, 0, 183]",183,l,0.22839597589336336,colour,0.5
061,61,0,1,14,23,673,1010.9133176635951,1011.5434305712115,"[40, 0, 214]",214,a,0.10718595515936613,colour,0.5
061,61,0,1,14,24,674,1012.0538879681844,1012.7674320144579,"[4, 0, 250]",250,a,0.1901369953993708,colour,0.5
061,61,0,1,14,25,675,1013.2882097498514,1014.0473875412717,"[63, 0, 191]",191,l,0.23576443921774626,colour,0.5
061,61,0,1,14,26,676,1014.5539009650238,1015.207432738971,"[37, 0, 217]",217,a,0.13015386764891446,colour,0.5
061,61,0,1,14,27,677,1015.7258974174038,1016.3433954401407,"[98, 0, 156]",156,l,0.09269912051968277,colour,0.5
061,61,0,1,14,28,678,1016.8524302656297,1017.4954325689469,"[97, 0, 157]",157,l,0.11972640315070748,colour,0.5
061,61,0,1,14,29,679,1018.0086858780123,1018.8874404111411,"[24, 0, 230]",230,a,0.35564168519340456,colour,0.5
061,61,0,1,14,30,680,1019.3992924164049,1020.0153895295225,"[25, 0, 229]",229,a,0.0927597729023546,colour,0.5
061,61,0,1,14,31,681,1020.5217213903088,1021.1114134972449,"[90, 0, 164]",164,l,0.06464586942456663,colour,0.5
061,61,0,1,14,32,682,1021.6327737309039,1022.5194095147308,"[15, 0, 239]",239,a,0.36378169269301,colour,0.5
061,61,0,1,14,33,683,1023.0390510046855,1024.2634073027875,"[44, 0, 210]",210,a,0.7010291980113834,colour,0.5
061,61,0,1,14,34,684,1024.7713074581698,1025.7914065970108,"[95, 0, 159]",159,l,0.4967940940987319,colour,0.5
061,61,0,1,14,35,685,1026.3025941844098,1026.991409826558,"[84, 0, 170]",170,l,0.16545939748175442,colour,0.5
061,61,0,1,14,36,686,1027.5056694119703,1028.3994393208995,"[28, 0, 226]",226,a,0.3704239041544497,colour,0.5
061,61,0,1,14,37,687,1028.9119915843476,1029.6954515522812,"[56, 0, 198]",198,a,0.2602506277617067,colour,0.5
061,61,0,1,14,38,688,1030.2049885313027,1031.0554216043092,"[85, 0, 169]",169,l,0.32699569617398083,colour,0.5
061,61,0,1,14,39,689,1031.5644320112187,1032.303402356105,"[30, 0, 224]",224,a,0.21561213093809783,colour,0.5
061,61,0,1,14,40,690,1032.8144198020454,1033.3993959978689,"[76, 0, 178]",178,l,0.06148249888792634,colour,0.5
061,61,0,1,14,41,691,1033.905161508359,1034.7114897458814,"[96, 0, 158]",158,l,0.283377654151991,colour,0.5
061,61,0,1,14,42,692,1035.2207199188415,1036.039375139866,"[91, 0, 163]",163,l,0.2954045271035284,colour,0.5
061,61,0,1,14,43,693,1036.548830592772,1037.3113982160576,"[17, 0, 237]",237,a,0.2391956248320639,colour,0.5
061,61,0,1,14,44,694,1037.8301736388821,1038.6474106207024,"[10, 0, 244]",244,a,0.2939894387964159,colour,0.5
061,61,0,1,14,45,695,1039.1581893959083,1039.8954051572364,"[14, 0, 240]",240,a,0.21389378141611814,colour,0.5
061,61,0,1,14,46,696,1040.4084320049733,1042.007372007938,"[57, 0, 197]",197,a,1.075889776693657,colour,0.5
061,61,0,1,14,47,697,1042.5070372389164,1044.1114032573532,"[65, 0, 189]",189,a,1.0811365921981633,colour,0.5
061,61,0,1,14,48,698,1044.632015183568,1045.2074059576262,"[3, 0, 251]",251,a,0.05208572931587696,colour,0.5
061,61,0,1,14,49,699,1045.726556321606,1046.5193724932615,"[35, 0, 219]",219,a,0.2695256993174553,colour,0.5
061,61,0,1,14,50,700,1047.0390502170194,1047.6794015432242,"[31, 0, 223]",223,a,0.11451424611732364,colour,0.5
061,61,0,1,15,1,701,1052.6501324898563,1053.2713708675,"[39, 0, 215]",215,a,0.09722441039048135,colour,0.5
061,61,0,1,15,2,702,1053.7915519261733,1055.0953315868974,"[18, 0, 236]",236,a,0.7807861480396241,colour,0.5
061,61,0,1,15,3,703,1055.604020615574,1056.183349848725,"[93, 0, 161]",161,l,0.05605648388154805,colour,0.5
061,61,0,1,15,4,704,1056.6977709108032,1057.5753446940798,"[45, 0, 209]",209,a,0.3542364430613816,colour,0.5
061,61,0,1,15,5,705,1058.0883632709738,1058.927394504426,"[52, 0, 202]",202,a,0.3159463487099856,colour,0.5
061,61,0,1,15,6,706,1059.4477291633375,1060.3593359601218,"[34, 0, 220]",220,a,0.38820171542465687,colour,0.5
061,61,0,1,15,7,707,1060.86963503086,1062.5034288226161,"[96, 0, 158]",158,l,1.110831786878407,colour,0.5
061,61,0,1,15,8,708,1063.0102750463411,1064.5114101101644,"[90, 0, 164]",164,l,0.9758249495644122,colour,0.5
061,61,0,1,15,9,709,1065.0285794292577,1065.7033690367825,"[43, 0, 211]",211,a,0.15152158425189555,colour,0.5
061,61,0,1,15,10,710,1066.216074112337,1067.2633324721828,"[60, 0, 194]",194,a,0.5239466198254377,colour,0.5
061,61,0,1,15,11,711,1067.7785491030663,1068.9673450530972,"[26, 0, 228]",228,a,0.6653408498968929,colour,0.5
061,61,0,1,15,12,712,1069.4816692292225,1070.2633466506377,"[49, 0, 205]",205,a,0.2582187766674906,colour,0.5
061,61,0,1,15,13,713,1070.7785325616132,1071.3353385343216,"[85, 0, 169]",169,l,0.03351825708523393,colour,0.5
061,61,0,1,15,14,714,1071.8567885647062,1072.9513899611775,"[57, 0, 197]",197,a,0.5713715765159577,colour,0.5
061,61,0,1,15,15,715,1073.4659858909436,1074.3753690337762,"[68, 0, 186]",186,l,0.38600563048385084,colour,0.5
061,61,0,1,15,16,716,1074.8879004232585,1075.783385924995,"[53, 0, 201]",201,a,0.37212453107349575,colour,0.5
061,61,0,1,15,17,717,1076.2941639123019,1076.9433330551255,"[63, 0, 191]",191,a,0.12579359952360392,colour,0.5
061,61,0,1,15,18,718,1077.450346269412,1078.111397743458,"[20, 0, 234]",234,a,0.13784882938489318,colour,0.5
061,61,0,1,15,19,719,1078.6222560754977,1079.687352504814,"[0, 0, 254]",254,a,0.5420891321264207,colour,0.5
061,61,0,1,15,20,720,1080.200426613912,1080.967326936312,"[83, 0, 171]",171,l,0.24364214530214667,colour,0.5
061,61,0,1,15,21,721,1081.4817353955004,1082.3033700608648,"[98, 0, 156]",156,l,0.2983705806545913,colour,0.5
061,61,0,1,15,22,722,1082.8097909309436,1083.5833850584459,"[75, 0, 179]",179,l,0.25025087990798056,colour,0.5
061,61,0,1,15,23,723,1084.0917129304726,1084.9273834768683,"[2, 0, 252]",252,a,0.31225364934653044,colour,0.5
061,61,0,1,15,24,724,1085.4354395950213,1086.2873799165245,"[94, 0, 160]",160,l,0.32881487044505775,colour,0.5
061,61,0,1,15,25,725,1086.7948173028417,1087.4153376992326,"[92, 0, 162]",162,l,0.09754933300428092,colour,0.5
061,61,0,1,15,26,726,1087.9354848873336,1088.8634213237092,"[6, 0, 248]",248,a,0.4046270593535155,colour,0.5
061,61,0,1,15,27,727,1089.3730138351675,1089.967363563832,"[41, 0, 213]",213,a,0.07103956397622824,colour,0.5
061,61,0,1,15,28,728,1090.4823442811612,1091.2313257956412,"[17, 0, 237]",237,a,0.22567922668531537,colour,0.5
061,61,0,1,15,29,729,1091.7479114350863,1092.4153625115287,"[28, 0, 226]",226,a,0.1440416625700891,colour,0.5
061,61,0,1,15,30,730,1092.9354561367072,1093.7193824180868,"[82, 0, 172]",172,l,0.25920890527777374,colour,0.5
061,61,0,1,15,31,731,1094.2336565759033,1095.1193569756579,"[33, 0, 221]",221,a,0.362356364261359,colour,0.5
061,61,0,1,15,32,732,1095.640815670602,1097.3433635386173,"[65, 0, 189]",189,l,1.1791290016844869,colour,0.5
061,61,0,1,15,33,733,1097.8596451291814,1098.5994303412735,"[89, 0, 165]",165,l,0.21653136750683188,colour,0.5
061,61,0,1,15,34,734,1099.109636464389,1100.0633579934947,"[70, 0, 184]",184,l,0.4303770996630192,colour,0.5
061,61,0,1,15,35,735,1100.5783099599648,1101.9273653598502,"[29, 0, 225]",225,a,0.8257180599030107,colour,0.5
061,61,0,1,15,36,736,1102.4376998769585,1103.295298976358,"[88, 0, 166]",166,l,0.33421410410664976,colour,0.5
061,61,0,1,15,37,737,1103.8127246892545,1104.6393580469303,"[22, 0, 232]",232,a,0.30324993771500885,colour,0.5
061,61,0,1,15,38,738,1105.1565147629008,1105.967341114767,"[71, 0, 183]",183,l,0.2863039292860776,colour,0.5
061,61,0,1,15,39,739,1106.4860495836474,1107.2074953606352,"[81, 0, 173]",173,l,0.1981474277563393,colour,0.5
061,61,0,1,15,40,740,1107.7205336296465,1108.4793530213647,"[97, 0, 157]",157,l,0.23554664221592247,colour,0.5
061,61,0,1,15,41,741,1108.9861007835716,1109.551342935767,"[15, 0, 239]",239,a,0.04186897212639451,colour,0.5
061,61,0,1,15,42,742,1110.0641634082422,1110.8953606525902,"[78, 0, 176]",176,l,0.3078429689630866,colour,0.5
061,61,0,1,15,43,743,1111.407852657605,1111.943348414963,"[37, 0, 217]",217,a,0.012048140401020646,colour,0.5
061,61,0,1,15,44,744,1112.4548034237232,1113.1433441615663,"[56, 0, 198]",198,a,0.16518488712608814,colour,0.5
061,61,0,1,15,45,745,1113.65788652841,1114.6713915050495,"[11, 0, 243]",243,a,0.49011210445314646,colour,0.5
061,61,0,1,15,46,746,1115.1891724667512,1116.0153013078962,"[23, 0, 231]",231,a,0.30275526735931635,colour,0.5
061,61,0,1,15,47,747,1116.520536307944,1117.1753701365087,"[16, 0, 238]",238,a,0.1315244515426457,colour,0.5
061,61,0,1,15,48,748,1117.69241775712,1118.5032909766305,"[8, 0, 246]",246,a,0.2876099224667996,colour,0.5
061,61,0,1,15,49,749,1119.022411014419,1119.7113597767893,"[9, 0, 245]",245,a,0.1655625852290541,colour,0.5
061,61,0,1,15,50,750,1120.2255338975228,1120.847386281006,"[5, 0, 249]",249,a,0.09853512956760824,colour,0.5
061,61,0,1,16,1,751,1125.2247497504577,1125.9353482229635,"[10, 0, 244]",244,a,0.18653881922364235,colour,0.5
061,61,0,1,16,2,752,1126.4443621744867,1127.0473540644161,"[76, 0, 178]",178,l,0.07969432836398482,colour,0.5
061,61,0,1,16,3,753,1127.5536181838252,1128.263458108995,"[90, 0, 164]",164,l,0.18649785895831883,colour,0.5
061,61,0,1,16,4,754,1128.772387777688,1129.6073194688652,"[79, 0, 175]",175,l,0.3115431512705982,colour,0.5
061,61,0,1,16,5,755,1130.116182183614,1130.6793625524733,"[12, 0, 242]",242,a,0.0398902902379632,colour,0.5
061,61,0,1,16,6,756,1131.1942967961077,1131.9353671274148,"[98, 0, 156]",156,l,0.2177534713409841,colour,0.5
061,61,0,1,16,7,757,1132.4443117622286,1134.6393391422462,"[50, 0, 204]",204,a,1.6716880707535893,colour,0.5
061,61,0,1,16,8,758,1135.1474271621555,1135.7595590343699,"[78, 0, 176]",176,l,0.0887732645496726,colour,0.5
061,61,0,1,16,9,759,1136.272371236002,1137.1353034032509,"[1, 0, 253]",253,a,0.3395877378061414,colour,0.5
061,61,0,1,16,10,760,1137.6474311007187,1138.4473743080162,"[58, 0, 196]",196,a,0.2767066918313503,colour,0.5
061,61,0,1,16,11,761,1138.9599450821988,1139.7513260792475,"[88, 0, 166]",166,l,0.2686104013118893,colour,0.5
061,61,0,1,16,12,762,1140.27257839893,1141.8074227352627,"[87, 0, 167]",167,l,1.011836645193398,colour,0.5
061,61,0,1,16,13,763,1142.319447245216,1143.1673297719099,"[89, 0, 165]",165,l,0.3245841774623841,colour,0.5
061,61,0,1,16,14,764,1143.6787871436682,1145.0074113926385,"[37, 0, 217]",217,a,0.805276668863371,colour,0.5
061,61,0,1,16,15,765,1145.513247007504,1146.3993507055566,"[26, 0, 228]",228,a,0.3628407947253436,colour,0.5
061,61,0,1,16,16,766,1146.9194514199626,1147.7193032552022,"[39, 0, 215]",215,a,0.2765704214107245,colour,0.5
061,61,0,1,16,17,767,1148.2318783614319,1149.0793339593802,"[92, 0, 162]",162,l,0.3240706024225801,colour,0.5
061,61,0,1,16,18,768,1149.5912001430988,1150.2553574861959,"[6, 0, 248]",248,a,0.14070421224460006,colour,0.5
061,61,0,1,16,19,769,1150.7630934077315,1151.3993589763995,"[38, 0, 216]",216,a,0.11287860409356654,colour,0.5
061,61,0,1,16,20,770,1151.9194242446683,1152.6712997388095,"[31, 0, 223]",223,a,0.22859644331037998,colour,0.5
061,61,0,1,16,21,771,1153.1850603215862,1153.8313276073895,"[51, 0, 203]",203,a,0.1230528256855905,colour,0.5
061,61,0,1,16,22,772,1154.3411729678046,1155.215323048178,"[72, 0, 182]",182,l,0.3506209375336766,colour,0.5
061,61,0,1,16,23,773,1155.7319409830961,1156.3033586393576,"[9, 0, 245]",245,a,0.04814648232422769,colour,0.5
061,61,0,1,16,24,774,1156.805151032051,1157.4153120992705,"[93, 0, 161]",161,l,0.08678434253670275,colour,0.5
061,61,0,1,16,25,775,1157.9219838492572,1158.7352870979812,"[52, 0, 202]",202,a,0.2900675209239125,colour,0.5
061,61,0,1,16,26,776,1159.2499814892653,1159.9113626123872,"[8, 0, 246]",246,a,0.13807962299324572,colour,0.5
061,61,0,1,16,27,777,1160.4217975600623,1161.1593855058309,"[62, 0, 192]",192,a,0.2142596640624106,colour,0.5
061,61,0,1,16,28,778,1161.6718144954648,1162.2713350274134,"[22, 0, 232]",232,a,0.07500244188122451,colour,0.5
061,61,0,1,16,29,779,1162.7717769225128,1163.4793033967726,"[69, 0, 185]",185,l,0.1842549063730985,colour,0.5
061,61,0,1,16,30,780,1163.9905508486554,1164.5753021587152,"[29, 0, 225]",225,a,0.07390282419510186,colour,0.5
061,61,0,1,16,31,781,1165.0874814498238,1165.71933830739,"[19, 0, 235]",235,a,0.10850179428234696,colour,0.5
061,61,0,1,16,32,782,1166.2156515156385,1167.0073440449778,"[40, 0, 214]",214,a,0.26837133686058223,colour,0.5
061,61,0,1,16,33,783,1167.5281178418081,1168.2313419433776,"[75, 0, 179]",179,l,0.17990172747522593,colour,0.5
061,61,0,1,16,34,784,1168.746847657254,1169.4393552113324,"[70, 0, 184]",184,l,0.1690993218217045,colour,0.5
061,61,0,1,16,35,785,1169.950007561827,1170.63132713479,"[43, 0, 211]",211,a,0.15804839902557433,colour,0.5
061,61,0,1,16,36,786,1171.1259814640507,1171.8713486546185,"[16, 0, 238]",238,a,0.22216139500960708,colour,0.5
061,61,0,1,16,37,787,1172.3917018240318,1173.1673325288575,"[18, 0, 236]",236,a,0.264830268220976,colour,0.5
061,61,0,1,16,38,788,1173.6983392306138,1174.4713221092243,"[46, 0, 208]",208,a,0.25637557776644826,colour,0.5
061,61,0,1,16,39,789,1174.9885379022453,1175.6392847916577,"[67, 0, 187]",187,l,0.12748950021341443,colour,0.5
061,61,0,1,16,40,790,1176.1479750019498,1177.1352667754982,"[99, 0, 155]",155,l,0.46393789211288095,colour,0.5
061,61,0,1,16,41,791,1177.6479687003884,1178.343289101962,"[95, 0, 159]",159,l,0.17196888313628733,colour,0.5
061,61,0,1,16,42,792,1178.851120728068,1179.6233344257344,"[41, 0, 213]",213,a,0.24690082645975053,colour,0.5
061,61,0,1,16,43,793,1180.134272314608,1180.8233289904892,"[91, 0, 163]",163,l,0.1663258585613221,colour,0.5
061,61,0,1,16,44,794,1181.3374487606343,1181.9832749392372,"[35, 0, 219]",219,a,0.12244590930640697,colour,0.5
061,61,0,1,16,45,795,1182.4936543544754,1183.1833254301455,"[24, 0, 230]",230,a,0.1661836802959442,colour,0.5
061,61,0,1,16,46,796,1183.696808745386,1184.6152846089099,"[47, 0, 207]",207,a,0.39414012408815324,colour,0.5
061,61,0,1,16,47,797,1185.1364042025525,1185.951306071831,"[42, 0, 212]",212,a,0.2915881599765271,colour,0.5
061,61,0,1,16,48,798,1186.4645109379198,1188.5912895461079,"[60, 0, 194]",194,a,1.6034381173085421,colour,0.5
061,61,0,1,16,49,799,1189.1051552856807,1189.8713120268658,"[49, 0, 205]",205,a,0.2411683991085738,colour,0.5
061,61,0,1,16,50,800,1190.388208804652,1191.183367177844,"[96, 0, 158]",158,l,0.27186632552184165,colour,0.5
