id,age,condition,counterbalance,block,trialinblock,trial,tstart,tend,trialstim,trialintensity,response,RT,trialtype,colourfreq
001,78,0,1,Practice,1,NA,5.5138953030109406e-06,1.962438550312072,"[4, 0, 250]",250,a,1.313227383652702,colour,0.5
001,78,0,1,Practice,2,NA,2.469783377018757,3.554378657368943,"[62, 0, 192]",192,a,0.5613048262894154,colour,0.5
001,78,0,1,Practice,3,NA,4.063603309332393,4.66634029999841,"[63, 0, 191]",191,a,0.07932168757542968,colour,0.5
001,78,0,1,Practice,4,NA,5.172966752317734,5.7943779326742515,"[45, 0, 209]",209,a,0.09796121879480779,colour,0.5
001,78,0,1,Practice,5,NA,6.313717327546328,7.114419239223935,"[68, 0, 186]",186,a,0.2773019685409963,colour,0.5
001,78,0,1,Practice,6,NA,7.626668625394814,8.410383581998758,"[40, 0, 214]",214,a,0.2605875546578318,colour,0.5
001,78,0,1,Practice,7,NA,8.924625826999545,9.482352565857582,"[33, 0, 221]",221,a,0.03431616188026965,colour,0.5
001,78,0,1,Practice,8,NA,10.002822297625244,10.546355628408492,"[3, 0, 251]",251,a,0.020399627275764942,colour,0.5
001,78,0,1,Practice,9,NA,11.065550482016988,12.482338781352155,"[73, 0, 181]",181,l,0.8934659438673407,colour,0.5
001,78,0,1,Practice,10,NA,13.003113349550404,14.018397316220216,"[96, 0, 158]",158,a,0.49187260202597827,colour,0.5
001,78,0,1,1,1,1,5.0554294374305755,5.792023129761219,"[21, 0, 233]",233,a,0.21238085185177624,colour,0.5
001,78,0,1,1,2,2,6.30629609466996,6.864025984308682,"[6, 0, 248]",248,a,0.035088099306449294,colour,0.5
001,78,0,1,1,3,3,7.384381894720718,8.055995393544436,"[22, 0, 232]",232,a,0.1479303806554526,colour,0.5
001,78,0,1,1,4,4,8.574797976878472,9.192050935234874,"[9, 0, 245]",245,a,0.09379315073601902,colour,0.5
001,78,0,1,1,5,5,9.699958173558116,10.31202182220295,"[13, 0, 241]",241,a,0.0887448376743123,colour,0.5
001,78,0,1,1,6,6,10.822756084380671,11.447953696362674,"[60, 0, 194]",194,l,0.10180790885351598,colour,0.5
001,78,0,1,1,7,7,11.963408591924235,12.600016305223107,"[42, 0, 212]",212,a,0.11314199795015156,colour,0.5
001,78,0,1,1,8,8,13.119737336528488,13.736005287035368,"[27, 0, 227]",227,a,0.09281641361303627,colour,0.5
001,78,0,1,1,9,9,14.244918800890446,15.079972320585512,"[62, 0, 192]",192,l,0.31196747161448,colour,0.5
001,78,0,1,1,10,10,15.588641650159843,16.255961444112472,"[97, 0, 157]",157,l,0.14467445900663733,colour,0.5
001,78,0,1,1,11,11,16.77631617290899,17.48001233523246,"[95, 0, 159]",159,l,0.18033599760383368,colour,0.5
001,78,0,1,1,12,12,17.995100560598075,18.623956210678443,"[87, 0, 167]",167,l,0.10554510995279998,colour,0.5
001,78,0,1,1,13,13,19.135854286607355,19.66399534314405,"[43, 0, 211]",211,a,0.004803734947927296,colour,0.5
001,78,0,1,1,14,14,20.18427012139,20.856036432320252,"[83, 0, 171]",171,l,0.1485538383712992,colour,0.5
001,78,0,1,1,15,15,21.371563401655294,21.94428266142495,"[33, 0, 221]",221,a,0.050167266279459,colour,0.5
001,78,0,1,1,16,16,22.465429807663895,23.239994943025522,"[1, 0, 253]",253,a,0.251143530709669,colour,0.5
001,78,0,1,1,17,17,23.74678681057412,24.4320281551918,"[17, 0, 237]",237,a,0.16181343840435147,colour,0.5
001,78,0,1,1,18,18,24.950164351728745,25.520016415510327,"[50, 0, 204]",204,a,0.04650410823523998,colour,0.5
001,78,0,1,1,19,19,26.030047269305214,26.704010844929144,"[4, 0, 250]",250,a,0.1505533924791962,colour,0.5
001,78,0,1,1,20,20,27.21759891230613,27.82394904270768,"[40, 0, 214]",214,a,0.08283006434794515,colour,0.5
001,78,0,1,1,21,21,28.342794555122964,29.18399246025365,"[58, 0, 196]",196,a,0.3184143303660676,colour,0.5
001,78,0,1,1,22,22,29.701643439009786,30.311941083869897,"[72, 0, 182]",182,l,0.08685240952763706,colour,0.5
001,78,0,1,1,23,23,30.82670517428778,31.39998723939061,"[75, 0, 179]",179,l,0.04988133430015296,colour,0.5
001,78,0,1,1,24,24,31.923073287587613,32.463954068138264,"[54, 0, 200]",200,a,0.017442634445615113,colour,0.5
001,78,0,1,1,25,25,32.985659293597564,39.44796787481755,"[99, 0, 155]",155,l,5.938890521181747,colour,0.5
001,78,0,1,1,26,26,39.95502086204942,40.999947224743664,"[19, 0, 235]",235,a,0.5215602903626859,colour,0.5
001,78,0,1,1,27,27,41.5175915081054,42.23992365691811,"[28, 0, 226]",226,a,0.19890424271579832,colour,0.5
001,78,0,1,1,28,28,42.752045043278486,43.56791946326848,"[84, 0, 170]",170,l,0.29248077829834074,colour,0.5
001,78,0,1,1,29,29,44.08026652317494,44.77598140423652,"[85, 0, 169]",169,l,0.17230272863525897,colour,0.5
001,78,0,1,1,30,30,45.28371574427001,45.8639570614323,"[32, 0, 222]",222,a,0.057039478328078985,colour,0.5
001,78,0,1,1,31,31,46.37729818758089,47.22394100821111,"[64, 0, 190]",190,a,0.32326690200716257,colour,0.5
001,78,0,1,1,32,32,47.73682251665741,48.28001950320322,"[77, 0, 177]",177,a,0.020286593586206436,colour,0.5
001,78,0,1,1,33,33,48.7994589349255,51.223970940453,"[68, 0, 186]",186,l,1.9010880378773436,colour,0.5
001,78,0,1,1,34,34,51.73852629272733,52.639970367075875,"[89, 0, 165]",165,l,0.37801065435633063,colour,0.5
001,78,0,1,1,35,35,53.160548406420276,53.847961809602566,"[51, 0, 203]",203,a,0.164172179880552,colour,0.5
001,78,0,1,1,36,36,54.36378928308841,55.07196228846442,"[47, 0, 207]",207,a,0.1847884221933782,colour,0.5
001,78,0,1,1,37,37,55.58255791699048,56.407921653124504,"[59, 0, 195]",195,a,0.3018649377627298,colour,0.5
001,78,0,1,1,38,38,56.92637489538174,57.73593912087381,"[25, 0, 229]",229,a,0.2861934269312769,colour,0.5
001,78,0,1,1,39,39,58.25457825826015,61.975926187005825,"[70, 0, 184]",184,l,3.1978207734646276,colour,0.5
001,78,0,1,1,40,40,62.49172884831205,63.28793186158873,"[67, 0, 187]",187,l,0.2726687687681988,colour,0.5
001,78,0,1,1,41,41,63.80439460813068,64.4079338622978,"[49, 0, 205]",205,a,0.08015467110089958,colour,0.5
001,78,0,1,1,42,42,64.92947839875706,65.49591660872102,"[80, 0, 174]",174,l,0.043059140676632524,colour,0.5
001,78,0,1,1,43,43,66.0077154354658,66.64790793147404,"[35, 0, 219]",219,a,0.11669960524886847,colour,0.5
001,78,0,1,1,44,44,67.16402133693919,67.831992945401,"[30, 0, 224]",224,a,0.14460750529542565,colour,0.5
001,78,0,1,1,45,45,68.35160173068289,68.99993028934114,"[61, 0, 193]",193,l,0.12490262172650546,colour,0.5
001,78,0,1,1,46,46,69.50791550904978,70.11193525488488,"[16, 0, 238]",238,a,0.0805867196759209,colour,0.5
001,78,0,1,1,47,47,70.63321985327639,73.19994045048952,"[94, 0, 160]",160,l,2.0418634252855554,colour,0.5
001,78,0,1,1,48,48,73.71298737404868,74.45593576540705,"[31, 0, 223]",223,a,0.21951772819738835,colour,0.5
001,78,0,1,1,49,49,74.96305413090158,75.54398861632217,"[48, 0, 206]",206,l,0.05753729923162609,colour,0.5
001,78,0,1,1,50,50,76.05687327543274,76.64792092842981,"[24, 0, 230]",230,l,0.06769182055722922,colour,0.5
001,78,0,1,2,1,51,82.44862953538541,83.41589545132592,"[22, 0, 232]",232,a,0.4411740379873663,colour,0.5
001,78,0,1,2,2,52,83.93581655621529,84.47987409541383,"[28, 0, 226]",226,a,0.020743060624226928,colour,0.5
001,78,0,1,2,3,53,84.99832261155825,85.65592072042637,"[16, 0, 238]",238,a,0.13407607364933938,colour,0.5
001,78,0,1,2,4,54,86.16899009316694,86.73589461634401,"[69, 0, 185]",185,l,0.04348567547276616,colour,0.5
001,78,0,1,2,5,55,87.2472594253486,87.79192151757888,"[76, 0, 178]",178,l,0.021168020088225603,colour,0.5
001,78,0,1,2,6,56,88.31017271708697,88.95195438002702,"[91, 0, 163]",163,l,0.11893074063118547,colour,0.5
001,78,0,1,2,7,57,89.466272243415,90.04788847547024,"[86, 0, 168]",168,l,0.05826630734372884,colour,0.5
001,78,0,1,2,8,58,90.56002679723315,91.12788009445649,"[1, 0, 253]",253,a,0.043641638243570924,colour,0.5
001,78,0,1,2,9,59,91.63955722295213,92.31188082543667,"[35, 0, 219]",219,a,0.14878305641468614,colour,0.5
001,78,0,1,2,10,60,92.82757124071941,93.51197290653363,"[53, 0, 201]",201,l,0.16120770387351513,colour,0.5
001,78,0,1,2,11,61,94.03083102207165,94.55994015117176,"[51, 0, 203]",203,a,0.005797407357022166,colour,0.5
001,78,0,1,2,12,62,95.07770928367972,95.73587807489093,"[12, 0, 242]",242,a,0.13491181412246078,colour,0.5
001,78,0,1,2,13,63,96.2497619203059,96.90405211993493,"[97, 0, 157]",157,l,0.13097257015760988,colour,0.5
001,78,0,1,2,14,64,97.42163811414503,98.0079013305949,"[20, 0, 234]",234,l,0.06285618408583105,colour,0.5
001,78,0,1,2,15,65,98.5154942801455,99.60787155595608,"[58, 0, 196]",196,a,0.5689135296270251,colour,0.5
001,78,0,1,2,16,66,100.12502077536192,100.70390765741467,"[38, 0, 216]",216,a,0.055508600431494415,colour,0.5
001,78,0,1,2,17,67,101.21879068913404,102.47991781227756,"[62, 0, 192]",192,a,0.737693703151308,colour,0.5
001,78,0,1,2,18,68,103.00031625805423,103.66389530641027,"[46, 0, 208]",208,a,0.14024487743154168,colour,0.5
001,78,0,1,2,19,69,104.17354097927455,104.79188528377563,"[40, 0, 214]",214,a,0.09496405371464789,colour,0.5
001,78,0,1,2,20,70,105.29862280061934,105.82384782435838,"[34, 0, 220]",220,a,0.002584808738902211,colour,0.5
001,78,0,1,2,21,71,106.34557589283213,106.99984915717505,"[59, 0, 195]",195,l,0.1308567796368152,colour,0.5
001,78,0,1,2,22,72,107.51748950209003,108.199901066022,"[17, 0, 237]",237,a,0.15887298714369535,colour,0.5
001,78,0,1,2,23,73,108.72075755416881,109.39184408751316,"[55, 0, 199]",199,l,0.14769683021586388,colour,0.5
001,78,0,1,2,24,74,109.90954744780902,110.59184558421839,"[25, 0, 229]",229,a,0.15908054378814995,colour,0.5
001,78,0,1,2,25,75,111.11269695230294,111.7278507136507,"[61, 0, 193]",193,l,0.09176720888353884,colour,0.5
001,78,0,1,2,26,76,112.23772914917208,112.91987998737022,"[81, 0, 173]",173,l,0.15870323975104839,colour,0.5
001,78,0,1,2,27,77,113.44098144746386,113.99989405553788,"[84, 0, 170]",170,l,0.03554653562605381,colour,0.5
001,78,0,1,2,28,78,114.50753426656593,115.14387889089994,"[24, 0, 230]",230,a,0.1129982442362234,colour,0.5
001,78,0,1,2,29,79,115.66458965616766,116.27187162521295,"[88, 0, 166]",166,l,0.08457243721932173,colour,0.5
001,78,0,1,2,30,80,116.78891923255287,117.35993156535551,"[11, 0, 243]",243,a,0.047580882092006505,colour,0.5
001,78,0,1,2,31,81,117.86715351231396,118.58389699202962,"[32, 0, 222]",222,a,0.19332108739763498,colour,0.5
001,78,0,1,2,32,82,119.10305639950093,119.83184092107695,"[77, 0, 177]",177,l,0.20545310759916902,colour,0.5
001,78,0,1,2,33,83,120.35312827629969,121.0078745491337,"[80, 0, 174]",174,l,0.13135420659091324,colour,0.5
001,78,0,1,2,34,84,121.5251434976235,122.1038594506681,"[66, 0, 188]",188,a,0.05609976267442107,colour,0.5
001,78,0,1,2,35,85,122.6188996268902,123.17597533890512,"[7, 0, 247]",247,a,0.03398218075744808,colour,0.5
001,78,0,1,2,36,86,123.69709649134893,124.24782656296156,"[43, 0, 211]",211,a,0.018715543439611793,colour,0.5
001,78,0,1,2,37,87,124.7602445151424,125.3438307630131,"[31, 0, 223]",223,a,0.060265073901973665,colour,0.5
001,78,0,1,2,38,88,125.85407035495155,126.47984573850408,"[4, 0, 250]",250,a,0.10225334821734577,colour,0.5
001,78,0,1,2,39,89,126.99476894258987,127.57584324316122,"[44, 0, 210]",210,a,0.057867341791279614,colour,0.5
001,78,0,1,2,40,90,128.08862589625642,128.66386616183445,"[78, 0, 176]",176,l,0.05179148551542312,colour,0.5
001,78,0,1,2,41,91,129.18254704680294,129.84784129285254,"[64, 0, 190]",190,l,0.1418541306629777,colour,0.5
001,78,0,1,2,42,92,130.35441496991552,130.95187206636183,"[14, 0, 240]",240,a,0.0739429381210357,colour,0.5
001,78,0,1,2,43,93,131.4639776989352,132.02394817618188,"[72, 0, 182]",182,l,0.03668041713535786,colour,0.5
001,78,0,1,2,44,94,132.54204656358343,133.07185595016927,"[23, 0, 231]",231,a,0.00628695753403008,colour,0.5
001,78,0,1,2,45,95,133.58902013569605,134.29581980151124,"[94, 0, 160]",160,l,0.18186333088669926,colour,0.5
001,78,0,1,2,46,96,134.80939447809942,135.39184290601406,"[39, 0, 215]",215,a,0.059322601300664246,colour,0.5
001,78,0,1,2,47,97,135.9031616350403,136.5438523456687,"[2, 0, 252]",252,a,0.1175770933041349,colour,0.5
001,78,0,1,2,48,98,137.0595533947926,137.58439481293317,"[92, 0, 162]",162,l,0.0013745211763307452,colour,0.5
001,78,0,1,2,49,99,138.1065356315812,138.71182277263142,"[68, 0, 186]",186,a,0.08207584999036044,colour,0.5
001,78,0,1,2,50,100,139.23161036381498,140.31184616708197,"[56, 0, 198]",198,a,0.5567133742151782,colour,0.5
001,78,0,1,3,1,101,145.98138528107665,147.10383188154083,"[25, 0, 229]",229,a,0.5981715323869139,colour,0.5
001,78,0,1,3,2,102,147.62300389201846,148.2878113448387,"[93, 0, 161]",161,l,0.14149573119357228,colour,0.5
001,78,0,1,3,3,103,148.79487772274297,151.6958164931275,"[19, 0, 235]",235,a,2.3777412639465183,colour,0.5
001,78,0,1,3,4,104,152.20212629367597,152.9598052984802,"[15, 0, 239]",239,a,0.2343401077669114,colour,0.5
001,78,0,1,3,5,105,153.46771174913738,154.11182340281084,"[96, 0, 158]",158,l,0.12044901552144438,colour,0.5
001,78,0,1,3,6,106,154.62418779183645,155.35985043318942,"[86, 0, 168]",168,l,0.21210319071542472,colour,0.5
001,78,0,1,3,7,107,155.87425218569115,156.6317823168356,"[71, 0, 183]",183,l,0.23414594191126525,colour,0.5
001,78,0,1,3,8,108,157.1399238932645,157.72777351981495,"[85, 0, 169]",169,l,0.06432483438402414,colour,0.5
001,78,0,1,3,9,109,158.24951458524447,158.79984884208534,"[50, 0, 204]",204,a,0.02686617837753147,colour,0.5
001,78,0,1,3,10,110,159.3120367883239,159.85579933726694,"[26, 0, 228]",228,a,0.020627270103432238,colour,0.5
001,78,0,1,3,11,111,160.3746865973808,160.9917961959727,"[87, 0, 167]",167,l,0.09156752924900502,colour,0.5
001,78,0,1,3,12,112,161.5020361818606,162.1757937761722,"[99, 0, 155]",155,l,0.15037773735821247,colour,0.5
001,78,0,1,3,13,113,162.6895689201774,163.23978029715363,"[49, 0, 205]",205,a,0.026783470762893558,colour,0.5
001,78,0,1,3,14,114,163.7522541753715,164.32779061282054,"[94, 0, 160]",160,l,0.05216642655432224,colour,0.5
001,78,0,1,3,15,115,164.8460784398485,165.3758441095706,"[23, 0, 231]",231,a,0.00690253812354058,colour,0.5
001,78,0,1,3,16,116,165.8930283812806,166.56780800502747,"[28, 0, 226]",226,a,0.1514324558665976,colour,0.5
001,78,0,1,3,17,117,167.08201677305624,167.75974078662694,"[56, 0, 198]",198,a,0.15431619354058057,colour,0.5
001,78,0,1,3,18,118,168.26975549280178,168.88783749612048,"[4, 0, 250]",250,a,0.09466906334273517,colour,0.5
001,78,0,1,3,19,119,169.39495704323053,169.9198898335453,"[21, 0, 233]",233,a,0.0018648590194061399,colour,0.5
001,78,0,1,3,20,120,170.44187508325558,170.9998341910541,"[79, 0, 175]",175,l,0.03482737357262522,colour,0.5
001,78,0,1,3,21,121,171.5200416216394,172.1517652553739,"[89, 0, 165]",165,l,0.10826106916647404,colour,0.5
001,78,0,1,3,22,122,172.66072091076057,173.26374147029128,"[84, 0, 170]",170,l,0.07973404391668737,colour,0.5
001,78,0,1,3,23,123,173.7701595784165,174.45580658398103,"[44, 0, 210]",210,a,0.16220964712556452,colour,0.5
001,78,0,1,3,24,124,174.97342487354763,175.58375599526335,"[22, 0, 232]",232,a,0.08683389867655933,colour,0.5
001,78,0,1,3,25,125,176.09999779448844,178.7837834857637,"[38, 0, 216]",216,a,2.160373932798393,colour,0.5
001,78,0,1,3,26,126,179.30325639422517,179.95976158161648,"[82, 0, 172]",172,l,0.13388033234514296,colour,0.5
001,78,0,1,3,27,127,180.47520741878543,181.31177842558827,"[57, 0, 197]",197,a,0.3130249469541013,colour,0.5
001,78,0,1,3,28,128,181.81904212024529,182.39178934297524,"[72, 0, 182]",182,l,0.04929607966914773,colour,0.5
001,78,0,1,3,29,129,182.91294121544342,183.67977201065514,"[66, 0, 188]",188,a,0.2433950122212991,colour,0.5
001,78,0,1,3,30,130,184.1942820706172,184.7677405786235,"[30, 0, 224]",224,a,0.05024957994464785,colour,0.5
001,78,0,1,3,31,131,185.2881539905211,185.9197606521193,"[58, 0, 196]",196,a,0.10821774613577873,colour,0.5
001,78,0,1,3,32,132,186.42891874408815,187.1198054717388,"[91, 0, 163]",163,l,0.1675112028606236,colour,0.5
001,78,0,1,3,33,133,187.63207336876076,188.42374124971684,"[17, 0, 237]",237,a,0.26657873403746635,colour,0.5
001,78,0,1,3,34,134,188.93064812023658,189.62376558943652,"[97, 0, 157]",157,l,0.16973406763281673,colour,0.5
001,78,0,1,3,35,135,190.13379250478465,190.75979553116485,"[16, 0, 238]",238,a,0.10250107722822577,colour,0.5
001,78,0,1,3,36,136,191.2745659230277,191.87972900271416,"[1, 0, 253]",253,a,0.0817615611013025,colour,0.5
001,78,0,1,3,37,137,192.3995910306694,193.04775062960107,"[52, 0, 202]",202,a,0.12498217856045812,colour,0.5
001,78,0,1,3,38,138,193.5559926367132,194.1277678485494,"[29, 0, 225]",225,a,0.04692670458462089,colour,0.5
001,78,0,1,3,39,139,194.63558017008472,196.83978124242276,"[33, 0, 221]",221,a,1.6808121569920331,colour,0.5
001,78,0,1,3,40,140,197.35456541890744,197.9837270870339,"[10, 0, 244]",244,a,0.10575266648083925,colour,0.5
001,78,0,1,3,41,141,198.49531087419018,199.1357534620911,"[41, 0, 213]",213,a,0.11707139550708234,colour,0.5
001,78,0,1,3,42,142,199.65158329869155,200.39179170608986,"[46, 0, 208]",208,a,0.2168773872544989,colour,0.5
001,78,0,1,3,43,143,200.9017363077728,203.007750881603,"[13, 0, 241]",241,a,1.58279146743007,colour,0.5
001,78,0,1,3,44,144,203.52942814410198,204.24775763996877,"[2, 0, 252]",252,a,0.19494924508035183,colour,0.5
001,78,0,1,3,45,145,204.76383205479942,205.38371668953914,"[31, 0, 223]",223,a,0.09652604546863586,colour,0.5
001,78,0,1,3,46,146,205.90298834291752,206.55177297478076,"[67, 0, 187]",187,l,0.12573560513556004,colour,0.5
001,78,0,1,3,47,147,207.05931354290806,207.63175632304046,"[62, 0, 192]",192,l,0.04906528629362583,colour,0.5
001,78,0,1,3,48,148,208.15616411704104,208.71171958511695,"[81, 0, 173]",173,l,0.0324804475530982,colour,0.5
001,78,0,1,3,49,149,209.21869931695983,209.8077395388391,"[51, 0, 203]",203,a,0.06562098022550344,colour,0.5
001,78,0,1,3,50,150,210.32824038446415,210.93573030398693,"[48, 0, 206]",206,a,0.08437157596927136,colour,0.5
001,78,0,1,4,1,151,216.2403753978433,217.77568326308392,"[64, 0, 190]",190,a,1.0111186554422602,colour,0.5
001,78,0,1,4,2,152,218.28958089312073,218.8237367599504,"[68, 0, 186]",186,a,0.010746471351012588,colour,0.5
001,78,0,1,4,3,153,219.33655800996348,222.52772436791565,"[19, 0, 235]",235,a,2.667740027187392,colour,0.5
001,78,0,1,4,4,154,223.0379103969317,223.6316633754177,"[95, 0, 159]",159,l,0.07063621026463807,colour,0.5
001,78,0,1,4,5,155,224.1498669196153,224.79172223166097,"[34, 0, 220]",220,a,0.11845418740995228,colour,0.5
001,78,0,1,4,6,156,225.30616376257967,225.87974672578275,"[8, 0, 246]",246,a,0.05072613316588104,colour,0.5
001,78,0,1,4,7,157,226.4000305624213,228.44774456438608,"[58, 0, 196]",196,a,1.5243215418886393,colour,0.5
001,78,0,1,4,8,158,228.96267761453055,229.6636999589391,"[6, 0, 248]",248,a,0.17754441988654435,colour,0.5
001,78,0,1,4,9,159,230.18293852941133,231.20771850750316,"[74, 0, 180]",180,a,0.5014142995933071,colour,0.5
001,78,0,1,4,10,160,231.71438867680263,232.31967187928967,"[51, 0, 203]",203,l,0.08194863772951066,colour,0.5
001,78,0,1,4,11,161,232.83939645520877,233.4876982322894,"[91, 0, 163]",163,l,0.12489001860376447,colour,0.5
001,78,0,1,4,12,162,233.9957417412661,234.6077707314398,"[0, 0, 254]",254,a,0.08861408091615885,colour,0.5
001,78,0,1,4,13,163,235.12084443646017,235.7437120579416,"[35, 0, 219]",219,a,0.09947870601899922,colour,0.5
001,78,0,1,4,14,164,236.26156704861205,236.86368058179505,"[5, 0, 249]",249,a,0.0789617127738893,colour,0.5
001,78,0,1,4,15,165,237.371030528564,238.12773634085897,"[86, 0, 168]",168,l,0.23332792450673878,colour,0.5
001,78,0,1,4,16,166,238.63665339932777,239.20771259977482,"[29, 0, 225]",225,a,0.04541000502649695,colour,0.5
001,78,0,1,4,17,167,239.71698293776717,240.55969045311213,"[84, 0, 170]",170,l,0.3193189937155694,colour,0.5
001,78,0,1,4,18,168,241.07509060413577,241.62369902944192,"[39, 0, 215]",215,a,0.025149405235424638,colour,0.5
001,78,0,1,4,19,169,242.1376096564345,242.82371312915348,"[23, 0, 231]",231,a,0.16260112973395735,colour,0.5
001,78,0,1,4,20,170,243.34087495168205,245.7116790190339,"[4, 0, 250]",250,a,1.8475179456872866,colour,0.5
001,78,0,1,4,21,171,246.23167771135923,246.87967307667714,"[43, 0, 211]",211,a,0.12449499149806798,colour,0.5
001,78,0,1,4,22,172,247.38803520658985,247.96766606299207,"[18, 0, 236]",236,a,0.05619271018076688,colour,0.5
001,78,0,1,4,23,173,248.48189806798473,249.11168319371063,"[55, 0, 199]",199,a,0.10634697950445116,colour,0.5
001,78,0,1,4,24,174,249.62262461869977,250.22365113790147,"[10, 0, 244]",244,a,0.07770416373386979,colour,0.5
001,78,0,1,4,25,175,250.7320313847158,252.78363579360303,"[7, 0, 247]",247,a,1.528123333468102,colour,0.5
001,78,0,1,4,26,176,253.2948603935074,254.15967052453198,"[69, 0, 185]",185,a,0.34203561465255916,colour,0.5
001,78,0,1,4,27,177,254.67018068849575,255.25566527224146,"[49, 0, 205]",205,a,0.062355212518014014,colour,0.5
001,78,0,1,4,28,178,255.76376667642035,256.303726252052,"[50, 0, 204]",204,a,0.016633675433695316,colour,0.5
001,78,0,1,4,29,179,256.8118343517417,257.487740373821,"[85, 0, 169]",169,l,0.15267858339939266,colour,0.5
001,78,0,1,4,30,180,257.99940529314335,258.5756360803498,"[92, 0, 162]",162,l,0.0527556196320802,colour,0.5
001,78,0,1,4,31,181,259.0932019884931,259.91969330457505,"[70, 0, 184]",184,a,0.30311067146249115,colour,0.5
001,78,0,1,4,32,182,260.43710364366416,261.0076933801174,"[52, 0, 202]",202,a,0.04741940530948341,colour,0.5
001,78,0,1,4,33,183,261.51534895109944,262.11963139206637,"[93, 0, 161]",161,l,0.08086201781406999,colour,0.5
001,78,0,1,4,34,184,262.6403937510913,263.19971477705985,"[16, 0, 238]",238,a,0.03596361819654703,colour,0.5
001,78,0,1,4,35,185,263.7185000311583,264.28767271118704,"[2, 0, 252]",252,a,0.0457786446204409,colour,0.5
001,78,0,1,4,36,186,264.7968296216568,266.64762199961115,"[17, 0, 237]",237,a,1.327422367176041,colour,0.5
001,78,0,1,4,37,187,267.15779542550445,267.9276418966474,"[63, 0, 191]",191,a,0.2465528663014993,colour,0.5
001,78,0,1,4,38,188,268.4391217085067,268.9756524643162,"[46, 0, 208]",208,a,0.013481729081831872,colour,0.5
001,78,0,1,4,39,189,269.4860795268323,270.4796224280726,"[73, 0, 181]",181,a,0.4701575303915888,colour,0.5
001,78,0,1,4,40,190,270.9862461235607,271.7276195262093,"[61, 0, 193]",193,a,0.21808767470065504,colour,0.5
001,78,0,1,4,41,191,272.2362356866943,274.16765731968917,"[96, 0, 158]",158,l,1.4079815176082775,colour,0.5
001,78,0,1,4,42,192,274.6740143817151,275.36762415780686,"[78, 0, 176]",176,l,0.17056508176028728,colour,0.5
001,78,0,1,4,43,193,275.87721547996625,276.66366687591653,"[37, 0, 217]",217,a,0.2631660618353635,colour,0.5
001,78,0,1,4,44,194,277.17421327368356,277.8876807455672,"[81, 0, 173]",173,l,0.1905236019520089,colour,0.5
001,78,0,1,4,45,195,278.40861875982955,278.9836558010429,"[47, 0, 207]",207,a,0.05174698098562658,colour,0.5
001,78,0,1,4,46,196,279.5024469627533,280.11959673359524,"[28, 0, 226]",226,a,0.09367657243274152,colour,0.5
001,78,0,1,4,47,197,280.627632365562,281.4716651713243,"[77, 0, 177]",177,a,0.3191457015927881,colour,0.5
001,78,0,1,4,48,198,281.98857217573095,282.5436463644728,"[67, 0, 187]",187,a,0.031631316407583654,colour,0.5
001,78,0,1,4,49,199,283.0511380956741,283.71164278523065,"[22, 0, 232]",232,a,0.13695547892712057,colour,0.5
001,78,0,1,4,50,200,284.22320294159,284.7756395462202,"[40, 0, 214]",214,a,0.02900712308473885,colour,0.5
001,78,0,1,5,1,201,290.1774038169533,290.95163339586,"[28, 0, 226]",226,a,0.25020972278434783,colour,0.5
001,78,0,1,5,2,202,291.4595402403502,293.74361359653994,"[13, 0, 241]",241,a,1.7607726621208712,colour,0.5
001,78,0,1,5,3,203,294.25666445854586,294.8316376967123,"[14, 0, 240]",240,a,0.05161504272837192,colour,0.5
001,78,0,1,5,4,204,295.3504477631068,295.88760237034876,"[41, 0, 213]",213,a,0.013702282682061195,colour,0.5
001,78,0,1,5,5,205,296.39747962437104,297.9836357148597,"[40, 0, 214]",214,a,1.0632480605272576,colour,0.5
001,78,0,1,5,6,206,298.4913385473192,299.30359746457543,"[69, 0, 185]",185,a,0.28744821914006025,colour,0.5
001,78,0,1,5,7,207,299.8208935884759,300.4875915001612,"[58, 0, 196]",196,a,0.14348898374009877,colour,0.5
001,78,0,1,5,8,208,301.00844916992355,301.5436120998347,"[64, 0, 190]",190,a,0.011775196064263582,colour,0.5
001,78,0,1,5,9,209,302.05544243438635,302.6235875712009,"[53, 0, 201]",201,a,0.044804270612075925,colour,0.5
001,78,0,1,5,10,210,303.13357195130084,304.73560710903257,"[56, 0, 198]",198,a,1.07858992239926,colour,0.5
001,78,0,1,5,11,211,305.24322093243245,305.83164951205254,"[48, 0, 206]",206,a,0.06514875940047204,colour,0.5
001,78,0,1,5,12,212,306.3525922524277,306.887574013439,"[52, 0, 202]",202,a,0.011480599525384605,colour,0.5
001,78,0,1,5,13,213,307.3996634982759,308.0556330556283,"[82, 0, 172]",172,l,0.13259166956413537,colour,0.5
001,78,0,1,5,14,214,308.571635002736,309.3836430404335,"[63, 0, 191]",191,a,0.28872585436329246,colour,0.5
001,78,0,1,5,15,215,309.8998367903987,310.5116212024586,"[12, 0, 242]",242,a,0.08874050539452583,colour,0.5
001,78,0,1,5,16,216,311.0263514221879,311.62358126963954,"[75, 0, 179]",179,l,0.07392245810478926,colour,0.5
001,78,0,1,5,17,217,312.13569832372013,312.6796188047156,"[70, 0, 184]",184,l,0.020498482510447502,colour,0.5
001,78,0,1,5,18,218,313.1987782121869,313.7755737740081,"[16, 0, 238]",238,a,0.05381033814046532,colour,0.5
001,78,0,1,5,19,219,314.2921440403443,314.8635431296425,"[38, 0, 216]",216,a,0.04791171243414283,colour,0.5
001,78,0,1,5,20,220,315.3703704433283,317.18356750078965,"[34, 0, 220]",220,a,1.2898869111668319,colour,0.5
001,78,0,1,5,21,221,317.7010282521369,320.90360864973627,"[26, 0, 228]",228,a,2.6790422146441415,colour,0.5
001,78,0,1,5,22,222,321.42016985767987,322.2155603674473,"[87, 0, 167]",167,l,0.2720716987969354,colour,0.5
001,78,0,1,5,23,223,322.7333432844607,323.28761402820237,"[99, 0, 155]",155,l,0.030802665278315544,colour,0.5
001,78,0,1,5,24,224,323.7959643427748,324.3915353126358,"[45, 0, 209]",209,a,0.07228760502766818,colour,0.5
001,78,0,1,5,25,225,324.9053624443477,325.47155253146775,"[81, 0, 173]",173,l,0.04273303644731641,colour,0.5
001,78,0,1,5,26,226,325.98358530260157,326.5516197688412,"[22, 0, 232]",232,a,0.04461601236835122,colour,0.5
001,78,0,1,5,27,227,327.0618857485242,327.8395500549814,"[77, 0, 177]",177,a,0.25444080610759556,colour,0.5
001,78,0,1,5,28,228,328.3588063485222,328.88756022881716,"[32, 0, 222]",222,a,0.005462244735099375,colour,0.5
001,78,0,1,5,29,229,329.4057287207106,330.00754017417785,"[91, 0, 163]",163,a,0.07838118425570428,colour,0.5
001,78,0,1,5,30,230,330.5151925944956,331.36761509941425,"[59, 0, 195]",195,a,0.32899262954015285,colour,0.5
001,78,0,1,5,31,231,331.8746755697066,332.42435998120345,"[27, 0, 227]",227,a,0.026174585451371968,colour,0.5
001,78,0,1,5,32,232,332.93725488032214,333.57551516976673,"[9, 0, 245]",245,a,0.11480717710219324,colour,0.5
001,78,0,1,5,33,233,334.0936060739914,334.64757198118605,"[35, 0, 219]",219,a,0.030732954503037035,colour,0.5
001,78,0,1,5,34,234,335.1562015323434,335.70355359022506,"[93, 0, 161]",161,l,0.024301455821841955,colour,0.5
001,78,0,1,5,35,235,336.21882298449054,336.9275981797837,"[73, 0, 181]",181,l,0.1855268826475367,colour,0.5
001,78,0,1,5,36,236,337.43762233830057,337.9915650085313,"[5, 0, 249]",249,a,0.029162298189476132,colour,0.5
001,78,0,1,5,37,237,338.50154151173774,340.3035305108642,"[15, 0, 239]",239,a,1.278599689831026,colour,0.5
001,78,0,1,5,38,238,340.8142454745248,341.3996185999131,"[47, 0, 207]",207,a,0.061960579245351255,colour,0.5
001,78,0,1,5,39,239,341.90886924567167,344.89553481480107,"[24, 0, 230]",230,a,2.464002117398195,colour,0.5
001,78,0,1,5,40,240,345.4097290105419,345.99956558831036,"[67, 0, 187]",187,a,0.0664488438051194,colour,0.5
001,78,0,1,5,41,241,346.51913538284134,347.0555578310741,"[43, 0, 211]",211,l,0.013016203534789383,colour,0.5
001,78,0,1,5,42,242,347.5662349855993,348.6635829868028,"[76, 0, 178]",178,l,0.5741516762645915,colour,0.5
001,78,0,1,5,43,243,349.17565632401966,352.0635414754506,"[57, 0, 197]",197,a,2.3645624020136893,colour,0.5
001,78,0,1,5,44,244,352.58215580054093,353.2395498974947,"[65, 0, 189]",189,a,0.13256922038272023,colour,0.5
001,78,0,1,5,45,245,353.75555853999685,354.34353656030726,"[18, 0, 236]",236,a,0.06463833549059927,colour,0.5
001,78,0,1,5,46,246,354.8649538846221,357.4235537792556,"[36, 0, 218]",218,a,2.0352582406485453,colour,0.5
001,78,0,1,5,47,247,357.9433330995962,358.55148783058394,"[33, 0, 221]",221,a,0.08507340890355408,colour,0.5
001,78,0,1,5,48,248,359.0684003487695,359.9115371557418,"[72, 0, 182]",182,a,0.3197841253131628,colour,0.5
001,78,0,1,5,49,249,360.42786048096605,361.03950547170825,"[84, 0, 170]",170,l,0.08838013664353639,colour,0.5
001,78,0,1,5,50,250,361.5530643945094,363.73550904146396,"[90, 0, 164]",164,l,1.6577796717174351,colour,0.5
001,78,0,1,6,1,251,369.2586935510626,371.3675186071778,"[64, 0, 190]",190,a,1.5846831077942625,colour,0.5
001,78,0,1,6,2,252,371.8846875189338,372.51153495023027,"[2, 0, 252]",252,a,0.1034880542429164,colour,0.5
001,78,0,1,6,3,253,373.02531560813077,373.8395461165346,"[77, 0, 177]",177,a,0.2910649033728987,colour,0.5
001,78,0,1,6,4,254,374.3536524848314,376.615461354726,"[30, 0, 224]",224,a,1.7384723359718919,colour,0.5
001,78,0,1,6,5,255,377.13504296459723,377.6715107051423,"[61, 0, 193]",193,a,0.013121360447257757,colour,0.5
001,78,0,1,6,6,256,378.18193855532445,380.15952125703916,"[69, 0, 185]",185,a,1.4540386110311374,colour,0.5
001,78,0,1,6,7,257,380.6666163856862,382.72754233249,"[68, 0, 186]",186,a,1.5374751975759864,colour,0.5
001,78,0,1,6,8,258,383.2448345179437,383.9674774110317,"[81, 0, 173]",173,a,0.1993477129144594,colour,0.5
001,78,0,1,6,9,259,384.47937154839747,385.11149296630174,"[6, 0, 248]",248,a,0.10905427427496761,colour,0.5
001,78,0,1,6,10,260,385.6200894344365,386.2635012244573,"[99, 0, 155]",155,l,0.12006028986070305,colour,0.5
001,78,0,1,6,11,261,386.7764095143648,387.3274507239694,"[28, 0, 226]",226,a,0.027644417248666286,colour,0.5
001,78,0,1,6,12,262,387.8390431756852,388.4154890025966,"[42, 0, 212]",212,a,0.053057305281981826,colour,0.5
001,78,0,1,6,13,263,388.93292415398173,389.4954625046812,"[76, 0, 178]",178,l,0.040037950966507196,colour,0.5
001,78,0,1,6,14,264,390.0110891170334,390.61550192080904,"[40, 0, 214]",214,a,0.0813417216995731,colour,0.5
001,78,0,1,6,15,265,391.13616463693324,392.78349125233945,"[31, 0, 223]",223,a,1.123976296861656,colour,0.5
001,78,0,1,6,16,266,393.29257333208807,393.9355353503488,"[17, 0, 237]",237,a,0.1195951581466943,colour,0.5
001,78,0,1,6,17,267,394.4488910489017,395.0234657153487,"[89, 0, 165]",165,l,0.04861078842077404,colour,0.5
001,78,0,1,6,18,268,395.52988973108586,396.0714888860239,"[25, 0, 229]",229,a,0.02078835282009095,colour,0.5
001,78,0,1,6,19,269,396.58996694057714,397.25548292172607,"[88, 0, 166]",166,l,0.1420884687686339,colour,0.5
001,78,0,1,6,20,270,397.7622409184696,398.2955055126222,"[57, 0, 197]",197,a,0.010063542984426022,colour,0.5
001,78,0,1,6,21,271,398.8088868111372,399.40743722300977,"[14, 0, 240]",240,a,0.07514141034334898,colour,0.5
001,78,0,1,6,22,272,399.9184235462453,401.6154838039074,"[43, 0, 211]",211,a,1.1737946157809347,colour,0.5
001,78,0,1,6,23,273,402.12164748774376,402.74346354126465,"[53, 0, 201]",201,a,0.0982920490205288,colour,0.5
001,78,0,1,6,24,274,403.262392155244,404.0954839299666,"[71, 0, 183]",183,a,0.30973121616989374,colour,0.5
001,78,0,1,6,25,275,404.6061063398374,405.15148326195776,"[29, 0, 225]",225,a,0.02185212983749807,colour,0.5
001,78,0,1,6,26,276,405.6688002595911,406.27945236559026,"[91, 0, 163]",163,l,0.08725649514235556,colour,0.5
001,78,0,1,6,27,277,406.7939525793772,407.39145772496704,"[59, 0, 195]",195,a,0.07434820511844009,colour,0.5
001,78,0,1,6,28,278,407.9033042071387,409.76747079438064,"[60, 0, 194]",194,a,1.3406264351215214,colour,0.5
001,78,0,1,6,29,279,410.2799860263476,410.9354494920699,"[8, 0, 246]",246,a,0.1323833252536133,colour,0.5
001,78,0,1,6,30,280,411.45187246019486,412.9674604756292,"[20, 0, 234]",234,a,0.9921975246397778,colour,0.5
001,78,0,1,6,31,281,413.48217533528805,414.1514454528224,"[62, 0, 192]",192,a,0.14574020530562848,colour,0.5
001,78,0,1,6,32,282,414.66982150124386,415.27144863503054,"[7, 0, 247]",247,a,0.07821261836215854,colour,0.5
001,78,0,1,6,33,283,415.78106319415383,417.55947501957417,"[48, 0, 206]",206,a,1.255085531505756,colour,0.5
001,78,0,1,6,34,284,418.0780921016121,418.7114210501313,"[12, 0, 242]",242,a,0.11014365125447512,colour,0.5
001,78,0,1,6,35,285,419.2185622587567,419.767428259016,"[39, 0, 215]",215,a,0.02554640162270516,colour,0.5
001,78,0,1,6,36,286,420.2812120676972,420.8074280070141,"[66, 0, 188]",188,a,0.0029203651938587427,colour,0.5
001,78,0,1,6,37,287,421.3281383784488,422.9754838984227,"[65, 0, 189]",189,a,1.1242299333680421,colour,0.5
001,78,0,1,6,38,288,423.48447303066496,424.4634668810759,"[86, 0, 168]",168,l,0.45543243060819805,colour,0.5
001,78,0,1,6,39,289,424.9714158670977,426.76740620366763,"[36, 0, 218]",218,a,1.2728176423115656,colour,0.5
001,78,0,1,6,40,290,427.2840926545905,427.8714287064504,"[11, 0, 243]",243,a,0.06381756125483662,colour,0.5
001,78,0,1,6,41,291,428.37797205743846,429.9354420090094,"[19, 0, 235]",235,a,1.0343311281176284,colour,0.5
001,78,0,1,6,42,292,430.4562260295497,431.00743344204966,"[52, 0, 202]",202,a,0.02781652775593102,colour,0.5
001,78,0,1,6,43,293,431.51880849094596,433.15942200797144,"[10, 0, 244]",244,a,1.1174880842445418,colour,0.5
001,78,0,1,6,44,294,433.675341641414,434.27142303506844,"[98, 0, 156]",156,l,0.07276691508013755,colour,0.5
001,78,0,1,6,45,295,434.77309530356433,435.34341289277654,"[84, 0, 170]",170,l,0.053177428198978305,colour,0.5
001,78,0,1,6,46,296,435.863455302082,436.4553969845874,"[24, 0, 230]",230,a,0.0683924718759954,colour,0.5
001,78,0,1,6,47,297,436.972934929654,437.6154467824381,"[75, 0, 179]",179,l,0.11898942373227328,colour,0.5
001,78,0,1,6,48,298,438.12934047402814,438.8074650284834,"[72, 0, 182]",182,l,0.1547033436363563,colour,0.5
001,78,0,1,6,49,299,439.3169673415832,439.90336564707104,"[26, 0, 228]",228,a,0.06342804792802781,colour,0.5
001,78,0,1,6,50,300,440.41076167381834,441.9994139577029,"[3, 0, 251]",251,a,1.0654811650747433,colour,0.5
001,78,0,1,7,1,301,447.3180779861286,449.09541028074455,"[67, 0, 187]",187,l,1.2535696196136996,colour,0.5
001,78,0,1,7,2,302,449.6159134894842,450.2634366337443,"[79, 0, 175]",175,l,0.12403970584273338,colour,0.5
001,78,0,1,7,3,303,450.77223081246484,453.1833843626082,"[81, 0, 173]",173,l,1.8875326596898958,colour,0.5
001,78,0,1,7,4,304,453.6942734060576,454.23940535611473,"[35, 0, 219]",219,a,0.021878123632632196,colour,0.5
001,78,0,1,7,5,305,454.75692833506037,456.0233763123397,"[61, 0, 193]",193,a,0.7430842679459602,colour,0.5
001,78,0,1,7,6,306,456.5383152702125,457.50334768765606,"[85, 0, 169]",169,a,0.4416210527997464,colour,0.5
001,78,0,1,7,7,307,458.0242297758814,459.4793932099128,"[32, 0, 222]",222,a,0.9318280816078186,colour,0.5
001,78,0,1,7,8,308,459.9931758370949,460.5673720178893,"[47, 0, 207]",207,a,0.05090769601520151,colour,0.5
001,78,0,1,7,9,309,461.08691581862513,462.679361229646,"[7, 0, 247]",247,a,1.069019080256112,colour,0.5
001,78,0,1,7,10,310,463.19658921821974,463.88741214293987,"[13, 0, 241]",241,a,0.16747457534074783,colour,0.5
001,78,0,1,7,11,311,464.3998269442236,466.8073803517036,"[40, 0, 214]",214,a,1.8841818212531507,colour,0.5
001,78,0,1,7,12,312,467.3231373268645,468.0713675816078,"[36, 0, 218]",218,a,0.22513475420419127,colour,0.5
001,78,0,1,7,13,313,468.5888645667583,470.0953441146994,"[21, 0, 233]",233,a,0.9830213156528771,colour,0.5
001,78,0,1,7,14,314,470.604650292662,471.1673717815429,"[38, 0, 216]",216,a,0.03920614894013852,colour,0.5
001,78,0,1,7,15,315,471.6829302585684,472.48745404800866,"[68, 0, 186]",186,a,0.2811136062955484,colour,0.5
001,78,0,1,7,16,316,472.99546289851423,474.7513640843099,"[8, 0, 246]",246,a,1.232530387234874,colour,0.5
001,78,0,1,7,17,317,475.2613149874378,475.87131488509476,"[71, 0, 183]",183,l,0.08700837241485715,colour,0.5
001,78,0,1,7,18,318,476.3864271349739,477.03135956288315,"[31, 0, 223]",223,a,0.12155966006685048,colour,0.5
001,78,0,1,7,19,319,477.54270467953756,479.24736576364376,"[15, 0, 239]",239,a,1.1816423834534362,colour,0.5
001,78,0,1,7,20,320,479.76302585285157,480.4153480059467,"[83, 0, 171]",171,l,0.12893126846756786,colour,0.5
001,78,0,1,7,21,321,480.93454443488736,481.55938916117884,"[94, 0, 160]",160,l,0.1013644386548549,colour,0.5
001,78,0,1,7,22,322,482.0753722038353,482.79133153683506,"[75, 0, 179]",179,l,0.19258223299402744,colour,0.5
001,78,0,1,7,23,323,483.30969734536484,483.93535103066824,"[44, 0, 210]",210,a,0.10220057296101004,colour,0.5
001,78,0,1,7,24,324,484.4505022712983,485.4233470102772,"[77, 0, 177]",177,a,0.44954837718978524,colour,0.5
001,78,0,1,7,25,325,485.9350111419335,486.51131203363184,"[49, 0, 205]",205,a,0.052947028540074825,colour,0.5
001,78,0,1,7,26,326,487.0288444648031,487.74331427388825,"[34, 0, 220]",220,a,0.19155744672752917,colour,0.5
001,78,0,1,7,27,327,488.2632857909193,488.87937178474385,"[70, 0, 184]",184,l,0.0927183460444212,colour,0.5
001,78,0,1,7,28,328,489.38836131081916,490.0393625057768,"[87, 0, 167]",167,l,0.12765914713963866,colour,0.5
001,78,0,1,7,29,329,490.56031272921246,491.3673866689205,"[37, 0, 217]",217,l,0.28274530870839953,colour,0.5
001,78,0,1,7,30,330,491.8741395458346,492.663298236439,"[30, 0, 224]",224,a,0.26578789204359055,colour,0.5
001,78,0,1,7,31,331,493.1710479365429,493.751445610309,"[11, 0, 243]",243,a,0.057643637410365045,colour,0.5
001,78,0,1,7,32,332,494.2640711190179,496.5673456302611,"[54, 0, 200]",200,a,1.779739085235633,colour,0.5
001,78,0,1,7,33,333,497.07811021851376,497.7513030382106,"[96, 0, 158]",158,l,0.1499023656360805,colour,0.5
001,78,0,1,7,34,334,498.2658115228405,498.86335920379497,"[0, 0, 254]",254,a,0.07416743016801775,colour,0.5
001,78,0,1,7,35,335,499.37515999982134,501.1593172450084,"[46, 0, 208]",208,a,1.2610723786056042,colour,0.5
001,78,0,1,7,36,336,501.67229918402154,502.37538409791887,"[69, 0, 185]",185,a,0.1797097830567509,colour,0.5
001,78,0,1,7,37,337,502.8911111408379,503.5113415720407,"[91, 0, 163]",163,l,0.09686081414110959,colour,0.5
001,78,0,1,7,38,338,504.0317908239085,504.63132112356834,"[3, 0, 251]",251,a,0.07615359348710626,colour,0.5
001,78,0,1,7,39,339,505.14123776217457,505.67129999771714,"[24, 0, 230]",230,a,0.006520114140585065,colour,0.5
001,78,0,1,7,40,340,506.18820975907147,506.8315345091978,"[2, 0, 252]",252,a,0.11992835160344839,colour,0.5
001,78,0,1,7,41,341,507.34457670652773,507.9513088670792,"[89, 0, 165]",165,l,0.08348306023981422,colour,0.5
001,78,0,1,7,42,342,508.46966207260266,509.1752888660412,"[72, 0, 182]",182,l,0.1812556270742789,colour,0.5
001,78,0,1,7,43,343,509.6899190489203,510.439287123736,"[80, 0, 174]",174,l,0.2259909746935591,colour,0.5
001,78,0,1,7,44,344,510.9555466459133,511.56734602409415,"[74, 0, 180]",180,l,0.08835020440164953,colour,0.5
001,78,0,1,7,45,345,512.080708417925,512.7673191637732,"[98, 0, 156]",156,l,0.1631584211718291,colour,0.5
001,78,0,1,7,46,346,513.2839611101663,513.9192904004594,"[60, 0, 194]",194,a,0.11193683033343405,colour,0.5
001,78,0,1,7,47,347,514.4402169932146,515.0713250462431,"[4, 0, 250]",250,a,0.10776167293079197,colour,0.5
001,78,0,1,7,48,348,515.5809659929946,516.2953400975093,"[99, 0, 155]",155,l,0.1910489919828251,colour,0.5
001,78,0,1,7,49,349,516.8153829006478,517.4472857342334,"[50, 0, 204]",204,a,0.10843081667553633,colour,0.5
001,78,0,1,7,50,350,517.9561122081941,518.4953215080313,"[16, 0, 238]",238,a,0.01583298749756068,colour,0.5
001,78,0,1,8,1,351,523.7849547825754,524.5672834026627,"[29, 0, 225]",225,a,0.25819888105615973,colour,0.5
001,78,0,1,8,2,352,525.0828115534969,527.1513064252213,"[59, 0, 195]",195,a,1.5452209591167048,colour,0.5
001,78,0,1,8,3,353,527.6610119626857,528.2872497210046,"[36, 0, 218]",218,a,0.10309854103252292,colour,0.5
001,78,0,1,8,4,354,528.8016463534441,529.3752856365172,"[14, 0, 240]",240,a,0.05024957994464785,colour,0.5
001,78,0,1,8,5,355,529.8962969060522,530.4393170559779,"[35, 0, 219]",219,a,0.020369695033878088,colour,0.5
001,78,0,1,8,6,356,530.9581865930231,531.6152864872711,"[83, 0, 171]",171,l,0.13403905218001455,colour,0.5
001,78,0,1,8,7,357,532.1301234391285,532.703288138262,"[89, 0, 165]",165,l,0.05011370324064046,colour,0.5
001,78,0,1,8,8,358,533.2238626329927,533.7752634236822,"[75, 0, 179]",179,l,0.028000453719869256,colour,0.5
001,78,0,1,8,9,359,534.2865179558285,536.351340217283,"[98, 0, 156]",156,l,1.5414821829181165,colour,0.5
001,78,0,1,8,10,360,536.8662271874491,538.4072607801063,"[49, 0, 205]",205,a,1.0176470403093845,colour,0.5
001,78,0,1,8,11,361,538.928812799626,539.6232642239193,"[39, 0, 215]",215,a,0.171040847315453,colour,0.5
001,78,0,1,8,12,362,540.1321643471019,542.1272499414627,"[41, 0, 213]",213,a,1.4718085310887545,colour,0.5
001,78,0,1,8,13,363,542.6357148651732,543.2552938758163,"[68, 0, 186]",186,a,0.09640355943702161,colour,0.5
001,78,0,1,8,14,364,543.776485132752,545.583293226664,"[2, 0, 252]",252,a,1.2835928644053638,colour,0.5
001,78,0,1,8,15,365,546.1048393385718,546.7592402087757,"[5, 0, 249]",249,a,0.13104621937964112,colour,0.5
001,78,0,1,8,16,366,547.2767360124271,549.4952852742281,"[48, 0, 206]",206,a,1.6953363954089582,colour,0.5
001,78,0,1,8,17,367,550.0113494489342,550.6152502534678,"[93, 0, 161]",161,l,0.08082657167688012,colour,0.5
001,78,0,1,8,18,368,551.136600230122,551.8312922940822,"[77, 0, 177]",177,l,0.1712495854590088,colour,0.5
001,78,0,1,8,19,369,552.3398308668984,552.8712782574585,"[56, 0, 198]",198,a,0.008054142817854881,colour,0.5
001,78,0,1,8,20,370,553.3868056206265,555.2072525881231,"[38, 0, 216]",216,a,1.2969985813833773,colour,0.5
001,78,0,1,8,21,371,555.7404529855121,556.4072521155467,"[88, 0, 166]",166,l,0.1375509734498337,colour,0.5
001,78,0,1,8,22,372,556.9207334507955,557.4872614576016,"[78, 0, 176]",176,l,0.04310679598711431,colour,0.5
001,78,0,1,8,23,373,557.9989763952326,558.791259463178,"[90, 0, 164]",164,l,0.2689130570506677,colour,0.5
001,78,0,1,8,24,374,559.3116000135196,559.8552518918877,"[99, 0, 155]",155,l,0.020975823397748172,colour,0.5
001,78,0,1,8,25,375,560.3740469920449,562.159270377364,"[18, 0, 236]",236,a,1.264151857350953,colour,0.5
001,78,0,1,8,26,376,562.669511544751,563.2712265060982,"[0, 0, 254]",254,a,0.07833707355894148,colour,0.5
001,78,0,1,8,27,377,563.7789502124069,565.5752249055076,"[37, 0, 217]",217,a,1.2729688790859655,colour,0.5
001,78,0,1,8,28,378,566.0938148122514,567.1272428522352,"[94, 0, 160]",160,l,0.5112372029107064,colour,0.5
001,78,0,1,8,29,379,567.6399727300741,568.2312763826922,"[44, 0, 210]",210,a,0.06789662025403231,colour,0.5
001,78,0,1,8,30,380,568.7490301551297,569.46318055538,"[82, 0, 172]",172,l,0.1910533243790269,colour,0.5
001,78,0,1,8,31,381,569.9834289458813,570.5191995797213,"[17, 0, 237]",237,a,0.012625902658328414,colour,0.5
001,78,0,1,8,32,382,571.0304300872376,571.5992006509332,"[20, 0, 234]",234,a,0.04537298355717212,colour,0.5
001,78,0,1,8,33,383,572.1100790605415,572.9351990062278,"[65, 0, 189]",189,a,0.3018015285488218,colour,0.5
001,78,0,1,8,34,384,573.4539689003723,576.1672717448091,"[57, 0, 197]",197,a,2.1898914797930047,colour,0.5
001,78,0,1,8,35,385,576.6886721337214,577.3432246345328,"[7, 0, 247]",247,a,0.13128567743115127,colour,0.5
001,78,0,1,8,36,386,577.8604238723638,578.6552082537673,"[73, 0, 181]",181,l,0.2712627399014309,colour,0.5
001,78,0,1,8,37,387,579.1731538290624,580.7671828932362,"[33, 0, 221]",221,a,1.0706279395380989,colour,0.5
001,78,0,1,8,38,388,581.284092260641,581.8632761023473,"[52, 0, 202]",202,a,0.05569646484218538,colour,0.5
001,78,0,1,8,39,389,582.377940943581,583.0631992236013,"[84, 0, 170]",170,l,0.16231992386747152,colour,0.5
001,78,0,1,8,40,390,583.5812389280181,585.2951817715075,"[13, 0, 241]",241,a,1.1906516017625108,colour,0.5
001,78,0,1,8,41,391,585.8157046724809,586.4232343704207,"[31, 0, 223]",223,a,0.08408170565962791,colour,0.5
001,78,0,1,8,42,392,586.9408081554575,587.4872106515104,"[6, 0, 248]",248,a,0.022983648348599672,colour,0.5
001,78,0,1,8,43,393,588.0033425677102,588.8151647101622,"[66, 0, 188]",188,l,0.2883773009525612,colour,0.5
001,78,0,1,8,44,394,589.3316231244244,591.223162375507,"[1, 0, 253]",253,a,1.3681117388186976,colour,0.5
001,78,0,1,8,45,395,591.738097788766,592.4313507408369,"[67, 0, 187]",187,a,0.17073364777024835,colour,0.5
001,78,0,1,8,46,396,592.9427588727558,593.4712193381274,"[61, 0, 193]",193,a,0.0050967560382559896,colour,0.5
001,78,0,1,8,47,397,593.9896552511491,595.7271890529664,"[51, 0, 203]",203,a,1.2144780796952546,colour,0.5
001,78,0,1,8,48,398,596.239842918585,596.839191655512,"[11, 0, 243]",243,a,0.07596336607821286,colour,0.5
001,78,0,1,8,49,399,597.3492638631724,599.1992031715345,"[40, 0, 214]",214,a,1.3263920670142397,colour,0.5
001,78,0,1,8,50,400,599.7088437244529,600.3511917374562,"[74, 0, 180]",180,l,0.11890671611763537,colour,0.5
001,78,0,1,9,1,401,605.6319150427589,606.7512337213848,"[89, 0, 165]",165,l,0.5955599421868101,colour,0.5
001,78,0,1,9,2,402,607.2576392263873,609.5751835517585,"[66, 0, 188]",188,a,1.7942392990225926,colour,0.5
001,78,0,1,9,3,403,610.0859276599949,610.7351963281399,"[29, 0, 225]",225,a,0.12610936467535794,colour,0.5
001,78,0,1,9,4,404,611.24230799824,611.7912035370246,"[64, 0, 190]",190,a,0.02535302343312651,colour,0.5
001,78,0,1,9,5,405,612.3048790382454,615.9911664368119,"[17, 0, 237]",237,a,3.16340260556899,colour,0.5
001,78,0,1,9,6,406,616.5085314835887,617.1912238594377,"[51, 0, 203]",203,a,0.15966225368902087,colour,0.5
001,78,0,1,9,7,407,617.7115128161386,618.3111423649825,"[98, 0, 156]",156,l,0.07610633200965822,colour,0.5
001,78,0,1,9,8,408,618.8209888990968,622.1911655702861,"[92, 0, 162]",162,l,2.847006340045482,colour,0.5
001,78,0,1,9,9,409,622.7117739358218,623.3031969235744,"[88, 0, 166]",166,l,0.06825817050412297,colour,0.5
001,78,0,1,9,10,410,623.8214528491953,624.3516438722145,"[91, 0, 163]",163,l,0.0070856764214113355,colour,0.5
001,78,0,1,9,11,411,624.8839443322504,625.4391599115916,"[93, 0, 161]",161,l,0.03159626421984285,colour,0.5
001,78,0,1,9,12,412,625.9466996919364,626.5991541771218,"[21, 0, 233]",233,a,0.1294212123611942,colour,0.5
001,78,0,1,9,13,413,627.1185861257836,628.6551873799181,"[95, 0, 159]",159,l,1.0134707014076412,colour,0.5
001,78,0,1,9,14,414,629.1655463072238,630.4151302092941,"[20, 0, 234]",234,a,0.7263210172532126,colour,0.5
001,78,0,1,9,15,415,630.931407848373,631.8712691989494,"[7, 0, 247]",247,a,0.41627275536302477,colour,0.5
001,78,0,1,9,16,416,632.3846217467217,633.4631785860984,"[37, 0, 217]",217,a,0.5541675561107695,colour,0.5
001,78,0,1,9,17,417,633.9784696419956,634.6871960003627,"[38, 0, 216]",216,a,0.1854075473966077,colour,0.5
001,78,0,1,9,18,418,635.197226066608,635.8151371410349,"[15, 0, 239]",239,a,0.0948171493364498,colour,0.5
001,78,0,1,9,19,419,636.3223484541522,636.9431598075898,"[43, 0, 211]",211,a,0.09831804293207824,colour,0.5
001,78,0,1,9,20,420,637.4631462908583,638.1591455283342,"[82, 0, 172]",172,l,0.17372254212386906,colour,0.5
001,78,0,1,9,21,421,638.6663300599903,639.3432010038523,"[30, 0, 224]",224,a,0.15413856913801283,colour,0.5
001,78,0,1,9,22,422,639.8540534196654,640.4471774266567,"[5, 0, 249]",249,a,0.06957676564343274,colour,0.5
001,78,0,1,9,23,423,640.9652009833371,641.7751499960432,"[47, 0, 207]",207,a,0.2876951602520421,colour,0.5
001,78,0,1,9,24,424,642.2922413202468,643.1191146665951,"[65, 0, 189]",189,a,0.3035482339328155,colour,0.5
001,78,0,1,9,25,425,643.6361043785,644.1751360539347,"[57, 0, 197]",197,a,0.015649849199689925,colour,0.5
001,78,0,1,9,26,426,644.6830913415179,645.5591055923142,"[74, 0, 180]",180,l,0.35262966773007065,colour,0.5
001,78,0,1,9,27,427,646.073797609075,648.0231679680292,"[4, 0, 250]",250,a,1.4262197201605886,colour,0.5
001,78,0,1,9,28,428,648.5353397666477,649.2071742129046,"[84, 0, 170]",170,l,0.14905362844001502,colour,0.5
001,78,0,1,9,29,429,649.7152445033425,650.2711733370088,"[14, 0, 240]",240,a,0.03238277381751686,colour,0.5
001,78,0,1,9,30,430,650.7776706080185,651.3751048614504,"[78, 0, 176]",176,l,0.07429306686390191,colour,0.5
001,78,0,1,9,31,431,651.8872581492178,652.479108459549,"[0, 0, 254]",254,a,0.06845548714045435,colour,0.5
001,78,0,1,9,32,432,652.9966145030921,653.8391223386861,"[71, 0, 183]",183,l,0.3190657509258017,colour,0.5
001,78,0,1,9,33,433,654.3562030289322,655.0631275437772,"[69, 0, 185]",185,a,0.18360649154055864,colour,0.5
001,78,0,1,9,34,434,655.5750271950383,656.1671315358253,"[12, 0, 242]",242,a,0.06875008379574865,colour,0.5
001,78,0,1,9,35,435,656.6843591304496,657.447108897497,"[96, 0, 158]",158,l,0.23919976875185966,colour,0.5
001,78,0,1,9,36,436,657.9658587055746,658.7430996280164,"[13, 0, 241]",241,a,0.2538283762987703,colour,0.5
001,78,0,1,9,37,437,659.2628915514797,659.8871187279001,"[16, 0, 238]",238,a,0.10102494375314564,colour,0.5
001,78,0,1,9,38,438,660.4038028157083,661.1911387888249,"[68, 0, 186]",186,l,0.2642774941632524,colour,0.5
001,78,0,1,9,39,439,661.7004579636268,662.4070811865386,"[24, 0, 230]",230,a,0.18326857197098434,colour,0.5
001,78,0,1,9,40,440,662.9194089480443,663.4791037334362,"[35, 0, 219]",219,a,0.03646104515064508,colour,0.5
001,78,0,1,9,41,441,663.9976164463442,664.6230940825772,"[9, 0, 245]",245,a,0.10214031452778727,colour,0.5
001,78,0,1,9,42,442,665.1406871660147,665.6710928349057,"[31, 0, 223]",223,a,0.007039596443064511,colour,0.5
001,78,0,1,9,43,443,666.1876182028791,666.8551211351296,"[94, 0, 160]",160,l,0.1441404044162482,colour,0.5
001,78,0,1,9,44,444,667.3751470028656,667.9511174581712,"[40, 0, 214]",214,a,0.05419945763424039,colour,0.5
001,78,0,1,9,45,445,668.4673214481445,669.0711411203956,"[61, 0, 193]",193,a,0.08109596208669245,colour,0.5
001,78,0,1,9,46,446,669.5924528940814,670.2390469566453,"[90, 0, 164]",164,l,0.12318348558619618,colour,0.5
001,78,0,1,9,47,447,670.7516760099679,671.5750980871962,"[73, 0, 181]",181,l,0.30005127866752446,colour,0.5
001,78,0,1,9,48,448,672.0955682129133,672.975064846687,"[39, 0, 215]",215,a,0.35612347221467644,colour,0.5
001,78,0,1,9,49,449,673.4862744804705,675.1670953020221,"[52, 0, 202]",202,a,1.157480349065736,colour,0.5
001,78,0,1,9,50,450,675.6739706648514,676.3030582899228,"[8, 0, 246]",246,a,0.10573100496549159,colour,0.5
001,78,0,1,10,1,451,681.626744243782,682.4951005605981,"[17, 0, 237]",237,a,0.3443360668607056,colour,0.5
001,78,0,1,10,2,452,683.0041267143097,685.8950862246566,"[50, 0, 204]",204,a,2.36795341281686,colour,0.5
001,78,0,1,10,3,453,686.4105761725223,687.0550651302328,"[83, 0, 171]",171,l,0.1211280053248629,colour,0.5
001,78,0,1,10,4,454,687.5670246460941,689.2231029047398,"[3, 0, 251]",251,a,1.13293904135935,colour,0.5
001,78,0,1,10,5,455,689.738914624555,690.455100418767,"[34, 0, 220]",220,a,0.192738983547315,colour,0.5
001,78,0,1,10,6,456,690.9734390520025,691.5990722572897,"[81, 0, 173]",173,l,0.10219545301515609,colour,0.5
001,78,0,1,10,7,457,692.1142916332465,692.6630993443541,"[33, 0, 221]",221,a,0.02553537394851446,colour,0.5
001,78,0,1,10,8,458,693.1767374302726,693.7270232440205,"[47, 0, 207]",207,a,0.027021747431717813,colour,0.5
001,78,0,1,10,9,459,694.239281294751,694.8950818922604,"[32, 0, 222]",222,a,0.13233409449458122,colour,0.5
001,78,0,1,10,10,460,695.4112988791894,696.0232183802873,"[79, 0, 175]",175,l,0.08873341616708785,colour,0.5
001,78,0,1,10,11,461,696.5363720359746,697.1350618691649,"[88, 0, 166]",166,l,0.07532888068817556,colour,0.5
001,78,0,1,10,12,462,697.6458914419636,698.2150727865519,"[7, 0, 247]",247,a,0.04357901681214571,colour,0.5
001,78,0,1,10,13,463,698.7263351957081,699.4470427314518,"[64, 0, 190]",190,l,0.1973131065024063,colour,0.5
001,78,0,1,10,14,464,699.9606957833748,700.5270607380662,"[1, 0, 253]",253,a,0.0430571713950485,colour,0.5
001,78,0,1,10,15,465,701.0389875647379,702.5990312973736,"[35, 0, 219]",219,a,1.0366879001958296,colour,0.5
001,78,0,1,10,16,466,703.117231296841,703.783074957435,"[93, 0, 161]",161,l,0.14239645597990602,colour,0.5
001,78,0,1,10,17,467,704.2892421858851,704.8950074554887,"[73, 0, 181]",181,l,0.08238777564838529,colour,0.5
001,78,0,1,10,18,468,705.4143456688616,706.0390718476847,"[44, 0, 210]",210,a,0.10139870329294354,colour,0.5
001,78,0,1,10,19,469,706.5550084165297,707.1990897440119,"[12, 0, 242]",242,a,0.12066996283829212,colour,0.5
001,78,0,1,10,20,470,707.7113785147667,708.3030689237639,"[0, 0, 254]",254,a,0.06845115486066788,colour,0.5
001,78,0,1,10,21,471,708.8208136378089,709.5990246019792,"[23, 0, 231]",231,a,0.254803144140169,colour,0.5
001,78,0,1,10,22,472,710.1177401454188,710.6711089826422,"[16, 0, 238]",238,a,0.0298452265560627,colour,0.5
001,78,0,1,10,23,473,711.1815254113171,712.279015196953,"[62, 0, 192]",192,a,0.5739236397203058,colour,0.5
001,78,0,1,10,24,474,712.7911432787078,713.3270588476444,"[51, 0, 203]",203,a,0.01254792115651071,colour,0.5
001,78,0,1,10,25,475,713.8380585616687,715.6390275006415,"[13, 0, 241]",241,a,1.277549697435461,colour,0.5
001,78,0,1,10,26,476,716.1523233345943,716.7831218250794,"[86, 0, 168]",168,l,0.10742335952818394,colour,0.5
001,78,0,1,10,27,477,717.2930175899528,719.6390361653175,"[60, 0, 194]",194,a,1.822651321417652,colour,0.5
001,78,0,1,10,28,478,720.1526053281268,721.23103377386,"[58, 0, 196]",196,a,0.5549761211732402,colour,0.5
001,78,0,1,10,29,479,721.746449678787,722.5350191763137,"[14, 0, 240]",240,a,0.2651388344820589,colour,0.5
001,78,0,1,10,30,480,723.0434636201244,723.6950228943024,"[90, 0, 164]",164,l,0.128212500247173,colour,0.5
001,78,0,1,10,31,481,724.2154461522587,724.7590082337847,"[84, 0, 170]",170,l,0.017732898704707623,colour,0.5
001,78,0,1,10,32,482,725.2804503702791,725.943026293884,"[77, 0, 177]",177,l,0.15131390828173608,colour,0.5
001,78,0,1,10,33,483,726.450625938829,727.18311694148,"[10, 0, 244]",244,a,0.2090627026045695,colour,0.5
001,78,0,1,10,34,484,727.7006722156657,728.4870003379183,"[97, 0, 157]",157,l,0.26279624085873365,colour,0.5
001,78,0,1,10,35,485,728.9977802861249,729.5430583530106,"[75, 0, 179]",179,a,0.02192932367324829,colour,0.5
001,78,0,1,10,36,486,730.0603233630536,730.6469922404503,"[11, 0, 243]",243,a,0.06337684800382704,colour,0.5
001,78,0,1,10,37,487,731.155739157577,731.7190250273561,"[4, 0, 250]",250,a,0.040004080277867615,colour,0.5
001,78,0,1,10,38,488,732.2338592222659,732.807018013671,"[59, 0, 195]",195,a,0.04970804217737168,colour,0.5
001,78,0,1,10,39,489,733.3276035360759,734.9669791962951,"[25, 0, 229]",229,a,1.1167764051351696,colour,0.5
001,78,0,1,10,40,490,735.4831934262766,736.1990535102086,"[63, 0, 191]",191,a,0.19058189110364765,colour,0.5
001,78,0,1,10,41,491,736.7196051619248,737.3510172638344,"[26, 0, 228]",228,a,0.10805666341912001,colour,0.5
001,78,0,1,10,42,492,737.8603108386742,738.590998422238,"[43, 0, 211]",211,a,0.20738531416282058,colour,0.5
001,78,0,1,10,43,493,739.1104004385415,740.8390014281031,"[20, 0, 234]",234,a,1.2056563319638371,colour,0.5
001,78,0,1,10,44,494,741.3605530537898,742.0630078146933,"[65, 0, 189]",189,a,0.17925134673714638,colour,0.5
001,78,0,1,10,45,495,742.5794488997199,743.1190780389588,"[37, 0, 217]",217,a,0.014839708805084229,colour,0.5
001,78,0,1,10,46,496,743.6277643039357,745.0149779486237,"[21, 0, 233]",233,a,0.8640941196354106,colour,0.5
001,78,0,1,10,47,497,745.5340767038288,746.2550240915734,"[68, 0, 186]",186,a,0.19743756169918925,colour,0.5
001,78,0,1,10,48,498,746.7686062512221,749.223042646423,"[74, 0, 180]",180,a,1.931107344222255,colour,0.5
001,78,0,1,10,49,499,749.7375168664148,750.3589670375222,"[54, 0, 200]",200,a,0.09795176656916738,colour,0.5
001,78,0,1,10,50,500,750.8782331771217,751.4789942443604,"[95, 0, 159]",159,l,0.0774103548610583,colour,0.5
001,78,0,1,11,1,501,756.7719547266606,757.6310170748038,"[52, 0, 202]",202,a,0.3349322152789682,colour,0.5
001,78,0,1,11,2,502,758.1478638207773,758.8389888249803,"[80, 0, 174]",174,l,0.167768384097144,colour,0.5
001,78,0,1,11,3,503,759.350970790023,759.9189883208601,"[61, 0, 193]",193,a,0.04456678160931915,colour,0.5
001,78,0,1,11,4,504,760.4292995928554,761.3989466993371,"[81, 0, 173]",173,l,0.4462392864516005,colour,0.5
001,78,0,1,11,5,505,761.9137001559138,762.4469832608011,"[51, 0, 203]",203,a,0.00996823247987777,colour,0.5
001,78,0,1,11,6,506,762.9606248912169,763.5109654495027,"[3, 0, 251]",251,a,0.02697803045157343,colour,0.5
001,78,0,1,11,7,507,764.0232179864543,764.6309552410385,"[79, 0, 175]",175,l,0.08423924387898296,colour,0.5
001,78,0,1,11,8,508,765.1483691247413,767.0709524683189,"[58, 0, 196]",196,a,1.3992464158218354,colour,0.5
001,78,0,1,11,9,509,767.587145824451,768.1510008011246,"[83, 0, 171]",171,l,0.040393593604676425,colour,0.5
001,78,0,1,11,10,510,768.6653931012843,770.1989526858088,"[16, 0, 238]",238,a,1.0101257706992328,colour,0.5
001,78,0,1,11,11,511,770.7124592271866,771.302918474772,"[56, 0, 198]",198,a,0.06711089832242578,colour,0.5
001,78,0,1,11,12,512,771.8218766270438,772.4549074344104,"[91, 0, 163]",163,l,0.10961707960814238,colour,0.5
001,78,0,1,11,13,513,772.9626027838094,773.4869971871376,"[20, 0, 234]",234,a,0.0009200233034789562,colour,0.5
001,78,0,1,11,14,514,774.0095298822271,774.6309320040746,"[97, 0, 157]",157,l,0.09801753866486251,colour,0.5
001,78,0,1,11,15,515,775.150367103517,775.7269129671622,"[7, 0, 247]",247,a,0.0531856989255175,colour,0.5
001,78,0,1,11,16,516,776.2441677373135,777.9909624247812,"[35, 0, 219]",219,a,1.223533771932125,colour,0.5
001,78,0,1,11,17,517,778.509929241729,779.2469045703765,"[69, 0, 185]",185,a,0.21234343643300235,colour,0.5
001,78,0,1,11,18,518,779.7615182118025,780.4469466331648,"[48, 0, 206]",206,a,0.162225007195957,colour,0.5
001,78,0,1,11,19,519,780.9646956794895,781.5110119233141,"[60, 0, 194]",194,a,0.022891488508321345,colour,0.5
001,78,0,1,11,20,520,782.0272970454535,782.7029336772393,"[96, 0, 158]",158,l,0.15272623870987445,colour,0.5
001,78,0,1,11,21,521,783.2148234823253,783.8710356485099,"[64, 0, 190]",190,a,0.13268973701633513,colour,0.5
001,78,0,1,11,22,522,784.3812078930205,784.9589423827128,"[39, 0, 215]",215,l,0.06340205413289368,colour,0.5
001,78,0,1,11,23,523,785.4660635052714,786.4709633385064,"[95, 0, 159]",159,l,0.4816078038420528,colour,0.5
001,78,0,1,11,24,524,786.9816499452572,787.5350116932532,"[29, 0, 225]",225,a,0.029949201736599207,colour,0.5
001,78,0,1,11,25,525,788.0441796313971,788.6468918097671,"[4, 0, 250]",250,a,0.07947292423341423,colour,0.5
001,78,0,1,11,26,526,789.1536446866812,790.8789326469414,"[5, 0, 249]",249,a,1.2022042751777917,colour,0.5
001,78,0,1,11,27,527,791.3882723017596,792.0949278199114,"[37, 0, 217]",217,a,0.18326896580401808,colour,0.5
001,78,0,1,11,28,528,792.6070523570525,793.3589682190213,"[63, 0, 191]",191,a,0.22854151879437268,colour,0.5
001,78,0,1,11,29,529,793.8727921999525,795.5191011183197,"[10, 0, 244]",244,a,1.1229645074345171,colour,0.5
001,78,0,1,11,30,530,796.0291965628276,796.6629488953622,"[38, 0, 216]",216,a,0.11056782293599099,colour,0.5
001,78,0,1,11,31,531,797.1712641577469,797.8549383907812,"[74, 0, 180]",180,l,0.16001789644360542,colour,0.5
001,78,0,1,11,32,532,798.3745231514331,800.1189626421547,"[98, 0, 156]",156,l,1.2210064645623788,colour,0.5
001,78,0,1,11,33,533,800.6390531006036,801.2709559341893,"[92, 0, 162]",162,l,0.1083993089850992,colour,0.5
001,78,0,1,11,34,534,801.7797938296571,802.3748878524639,"[24, 0, 230]",230,a,0.07161019055638462,colour,0.5
001,78,0,1,11,35,535,802.8917405061657,804.3829148198711,"[36, 0, 218]",218,a,0.9678149366518483,colour,0.5
001,78,0,1,11,36,536,804.8919204935664,805.4629080141895,"[57, 0, 197]",197,a,0.047576155979186296,colour,0.5
001,78,0,1,11,37,537,805.9700397704728,806.5511841756525,"[15, 0, 239]",239,a,0.0576302467379719,colour,0.5
001,78,0,1,11,38,538,807.0639290196123,807.7509655124741,"[86, 0, 168]",168,l,0.16362552205100656,colour,0.5
001,78,0,1,11,39,539,808.2670568625908,808.8069108877098,"[31, 0, 223]",223,a,0.016379251261241734,colour,0.5
001,78,0,1,11,40,540,809.314072182402,811.6150860198541,"[84, 0, 170]",170,l,1.7778568969806656,colour,0.5
001,78,0,1,11,41,541,812.1281140387291,812.7988744679606,"[33, 0, 221]",221,a,0.14757907041348517,colour,0.5
001,78,0,1,11,42,542,813.31577005086,813.9669189378619,"[62, 0, 192]",192,a,0.12797776819206774,colour,0.5
001,78,0,1,11,43,543,814.487795512192,815.0468774738256,"[41, 0, 213]",213,a,0.03570407384540886,colour,0.5
001,78,0,1,11,44,544,815.5659435398411,817.2548941224813,"[19, 0, 235]",235,a,1.1655010149115697,colour,0.5
001,78,0,1,11,45,545,817.7692320719361,819.3829230905976,"[12, 0, 242]",242,a,1.0904293153434992,colour,0.5
001,78,0,1,11,46,546,819.8943749394966,820.4949568070006,"[25, 0, 229]",229,a,0.07731346890795976,colour,0.5
001,78,0,1,11,47,547,821.0052968296222,821.5589252110803,"[46, 0, 208]",208,a,0.030211109085939825,colour,0.5
001,78,0,1,11,48,548,822.0678017034661,823.5988745468203,"[54, 0, 200]",200,a,1.0075949188321829,colour,0.5
001,78,0,1,11,49,549,824.1149458107539,824.6948622051859,"[2, 0, 252]",252,a,0.05660427885595709,colour,0.5
001,78,0,1,11,50,550,825.2086948507931,825.7508705956861,"[18, 0, 236]",236,a,0.018685611081309617,colour,0.5
001,78,0,1,12,1,551,830.9285107200267,832.1508574412437,"[19, 0, 235]",235,a,0.6982898435089737,colour,0.5
001,78,0,1,12,2,552,832.6638472572668,833.2308904139791,"[73, 0, 181]",181,l,0.04367905354592949,colour,0.5
001,78,0,1,12,3,553,833.7419629895594,834.3908476581564,"[84, 0, 170]",170,l,0.12549063318874687,colour,0.5
001,78,0,1,12,4,554,834.8982696786989,835.4389141518623,"[13, 0, 241]",241,a,0.017368591390550137,colour,0.5
001,78,0,1,12,5,555,835.9469293039292,836.5508950928925,"[74, 0, 180]",180,l,0.0804012183798477,colour,0.5
001,78,0,1,12,6,556,837.0720512976404,837.7188615814084,"[63, 0, 191]",191,a,0.12377070938237011,colour,0.5
001,78,0,1,12,7,557,838.228254405316,838.8949015110265,"[94, 0, 160]",160,l,0.14305457205045968,colour,0.5
001,78,0,1,12,8,558,839.4159234144026,839.9589175705332,"[59, 0, 195]",195,a,0.019571369979530573,colour,0.5
001,78,0,1,12,9,559,840.4784393159207,841.0469034676207,"[17, 0, 237]",237,a,0.04496023338288069,colour,0.5
001,78,0,1,12,10,560,841.5566204265924,843.13487085409,"[16, 0, 238]",238,a,1.0536705229897052,colour,0.5
001,78,0,1,12,11,561,843.6520271627232,844.2308081003139,"[44, 0, 210]",210,a,0.05549284664448351,colour,0.5
001,78,0,1,12,12,562,844.7458411873085,846.2949064734858,"[6, 0, 248]",248,a,1.0255869678221643,colour,0.5
001,78,0,1,12,13,563,846.8084669717355,849.4468308425276,"[30, 0, 224]",224,a,2.1148327770642936,colour,0.5
001,78,0,1,12,14,564,849.9664660154376,850.6788039380917,"[98, 0, 156]",156,l,0.18895688408520073,colour,0.5
001,78,0,1,12,15,565,851.1995651156176,853.0308416559128,"[45, 0, 209]",209,a,1.3083271564682946,colour,0.5
001,78,0,1,12,16,566,853.5433994232444,854.8308862393023,"[32, 0, 222]",222,a,0.7617986298864707,colour,0.5
001,78,0,1,12,17,567,855.3427709244424,855.9749805637402,"[23, 0, 231]",231,a,0.11110817920416594,colour,0.5
001,78,0,1,12,18,568,856.4812655519927,858.0708197423955,"[9, 0, 245]",245,a,1.0661243150243536,colour,0.5
001,78,0,1,12,19,569,858.5908511240268,859.1988160213223,"[41, 0, 213]",213,a,0.0846519940532744,colour,0.5
001,78,0,1,12,20,570,859.7159290069249,860.3028412810527,"[43, 0, 211]",211,a,0.06348515558056533,colour,0.5
001,78,0,1,12,21,571,860.8097583914641,861.4068003746215,"[48, 0, 206]",206,a,0.07368733221665025,colour,0.5
001,78,0,1,12,22,572,861.9105289110448,862.5428216517903,"[29, 0, 225]",225,a,0.11638216581195593,colour,0.5
001,78,0,1,12,23,573,863.062010597554,863.694801159203,"[88, 0, 166]",166,l,0.10940479696728289,colour,0.5
001,78,0,1,12,24,574,864.2025772469351,864.7508430265589,"[31, 0, 223]",223,a,0.024761467473581433,colour,0.5
001,78,0,1,12,25,575,865.2652412343305,865.9508287693607,"[28, 0, 226]",226,a,0.16332462418358773,colour,0.5
001,78,0,1,12,26,576,866.4672277128557,867.1829314401839,"[72, 0, 182]",182,l,0.19220099051017314,colour,0.5
001,78,0,1,12,27,577,867.7017785280477,868.2308466971153,"[50, 0, 204]",204,a,0.005671770544722676,colour,0.5
001,78,0,1,12,28,578,868.7514865702251,869.3828632261138,"[61, 0, 193]",193,a,0.1079711988568306,colour,0.5
001,78,0,1,12,29,579,869.8921835824149,870.5188037648331,"[89, 0, 165]",165,l,0.10320842382498085,colour,0.5
001,78,0,1,12,30,580,871.0329475484323,871.6228152399417,"[78, 0, 176]",176,l,0.06637283158488572,colour,0.5
001,78,0,1,12,31,581,872.1423803083599,872.8708103687968,"[53, 0, 201]",201,a,0.20494386518839747,colour,0.5
001,78,0,1,12,32,582,873.3925152004231,873.9588317121379,"[87, 0, 167]",167,l,0.04295240843202919,colour,0.5
001,78,0,1,12,33,583,874.470701037324,875.2708208451513,"[37, 0, 217]",217,a,0.27708023344166577,colour,0.5
001,78,0,1,12,34,584,875.7833868832095,876.5027758238139,"[10, 0, 244]",244,a,0.19463889475446194,colour,0.5
001,78,0,1,12,35,585,877.0190018691355,877.7028486065101,"[69, 0, 185]",185,l,0.1604909049347043,colour,0.5
001,78,0,1,12,36,586,878.2221954844426,878.7748049873626,"[40, 0, 214]",214,a,0.029260365874506533,colour,0.5
001,78,0,1,12,37,587,879.2847909427946,879.8867965622339,"[1, 0, 253]",253,a,0.07865569472778589,colour,0.5
001,78,0,1,12,38,588,880.3941957396455,881.0387898542685,"[58, 0, 196]",196,a,0.12130090361461043,colour,0.5
001,78,0,1,12,39,589,881.5505233026342,882.1667699854588,"[4, 0, 250]",250,a,0.09263366914819926,colour,0.5
001,78,0,1,12,40,590,882.6756421455648,883.390815756633,"[64, 0, 190]",190,a,0.1918681908864528,colour,0.5
001,78,0,1,12,41,591,883.9101370346034,884.6307791920844,"[96, 0, 158]",158,l,0.19730247266124934,colour,0.5
001,78,0,1,12,42,592,885.1445626069326,885.7108164970996,"[90, 0, 164]",164,l,0.043032753048464656,colour,0.5
001,78,0,1,12,43,593,886.222777588293,886.8549049138092,"[33, 0, 221]",221,a,0.10870414553210139,colour,0.5
001,78,0,1,12,44,594,887.3635521880351,888.0387894603191,"[0, 0, 254]",254,a,0.15187474444974214,colour,0.5
001,78,0,1,12,45,595,888.5510010373546,889.102792129037,"[26, 0, 228]",228,a,0.028192256460897624,colour,0.5
001,78,0,1,12,46,596,889.6137823908357,890.2867932538502,"[65, 0, 189]",189,a,0.14821552485227585,colour,0.5
001,78,0,1,12,47,597,890.802797564189,891.3827769738855,"[68, 0, 186]",186,a,0.05657789122778922,colour,0.5
001,78,0,1,12,48,598,891.8966131641064,892.7508115188684,"[79, 0, 175]",175,l,0.33079762395936996,colour,0.5
001,78,0,1,12,49,599,893.2717979761073,893.9428045587847,"[76, 0, 178]",178,l,0.14767201791983098,colour,0.5
001,78,0,1,12,50,600,894.459337409935,895.1267702375771,"[82, 0, 172]",172,l,0.144065179862082,colour,0.5
001,78,0,1,13,1,601,900.4590632932959,901.5508127792273,"[35, 0, 219]",219,a,0.56762722984422,colour,0.5
001,78,0,1,13,2,602,902.070731521002,902.6627756033558,"[89, 0, 165]",165,l,0.06875559757463634,colour,0.5
001,78,0,1,13,3,603,903.1801816100487,903.8627259000205,"[83, 0, 171]",171,a,0.1591415898874402,colour,0.5
001,78,0,1,13,4,604,904.3833827084163,904.9907812557649,"[88, 0, 166]",166,l,0.08399190881755203,colour,0.5
001,78,0,1,13,5,605,905.5084936744533,907.7347374979872,"[41, 0, 213]",213,a,1.702932495623827,colour,0.5
001,78,0,1,13,6,606,908.2444776938064,908.9028008724563,"[97, 0, 157]",157,l,0.13512173376511782,colour,0.5
001,78,0,1,13,7,607,909.4164464413188,909.9427726573776,"[23, 0, 231]",231,a,0.0029404513770714402,colour,0.5
001,78,0,1,13,8,608,910.4633735397365,911.1027645599097,"[36, 0, 218]",218,l,0.11601313238497823,colour,0.5
001,78,0,1,13,9,609,911.6200614714762,912.8868079837412,"[66, 0, 188]",188,l,0.7432867046445608,colour,0.5
001,78,0,1,13,10,610,913.4021770210238,914.1427324062679,"[61, 0, 193]",193,a,0.21796755178365856,colour,0.5
001,78,0,1,13,11,611,914.6515447018901,915.2067614627304,"[90, 0, 164]",164,l,0.031784916180185974,colour,0.5
001,78,0,1,13,12,612,915.7141188925598,916.350850273273,"[63, 0, 191]",191,a,0.11316681012976915,colour,0.5
001,78,0,1,13,13,613,916.8714598203078,917.3987509580329,"[43, 0, 211]",211,a,0.0038754408014938235,colour,0.5
001,78,0,1,13,14,614,917.9184475708753,918.5587294697762,"[78, 0, 176]",176,l,0.11693709413520992,colour,0.5
001,78,0,1,13,15,615,919.0748346045148,919.6870695760008,"[73, 0, 181]",181,l,0.08894806203898042,colour,0.5
001,78,0,1,13,16,616,920.199852229096,920.822713155183,"[93, 0, 161]",161,l,0.0993243184639141,colour,0.5
001,78,0,1,13,17,617,921.3405409705592,922.6627247972647,"[62, 0, 192]",192,a,0.7986613975372165,colour,0.5
001,78,0,1,13,18,618,923.1712590378011,923.78274727799,"[38, 0, 216]",216,a,0.0880788448266685,colour,0.5
001,78,0,1,13,19,619,924.2963707915042,925.7907577038277,"[2, 0, 252]",252,a,0.9710133569315076,colour,0.5
001,78,0,1,13,20,620,926.3098229821771,927.206731530372,"[68, 0, 186]",186,a,0.3733837560284883,colour,0.5
001,78,0,1,13,21,621,927.7163141879719,928.3427598967683,"[84, 0, 170]",170,l,0.103010319522582,colour,0.5
001,78,0,1,13,22,622,928.8570135632763,930.3747409480857,"[57, 0, 197]",197,a,0.9943715523695573,colour,0.5
001,78,0,1,13,23,623,930.8884274768643,931.6307862813119,"[30, 0, 224]",224,a,0.21899785206187516,colour,0.5
001,78,0,1,13,24,624,932.1399294071598,933.7027710189577,"[6, 0, 248]",248,a,1.0394148872001097,colour,0.5
001,78,0,1,13,25,625,934.2181806223234,934.8707729534945,"[22, 0, 232]",232,a,0.1292120802681893,colour,0.5
001,78,0,1,13,26,626,935.3900465761544,936.0467612893553,"[71, 0, 183]",183,l,0.13337030226830393,colour,0.5
001,78,0,1,13,27,627,936.5619924806524,937.5827445997857,"[7, 0, 247]",247,a,0.4975676095345989,colour,0.5
001,78,0,1,13,28,628,938.0947919432074,939.446757981088,"[53, 0, 201]",201,a,0.8292368138208985,colour,0.5
001,78,0,1,13,29,629,939.9542709799716,940.5987209470477,"[28, 0, 226]",226,a,0.12100867019034922,colour,0.5
001,78,0,1,13,30,630,941.110688733519,941.6547147651436,"[49, 0, 205]",205,a,0.020763146691024303,colour,0.5
001,78,0,1,13,31,631,942.1731428012718,942.7507016359596,"[51, 0, 203]",203,a,0.05412462691310793,colour,0.5
001,78,0,1,13,32,632,943.266987545765,944.958761607646,"[34, 0, 220]",220,a,1.168437921674922,colour,0.5
001,78,0,1,13,33,633,945.4703134932788,946.4227782972157,"[40, 0, 214]",214,a,0.42901326704304665,colour,0.5
001,78,0,1,13,34,634,946.940751835471,947.4946968688164,"[21, 0, 233]",233,a,0.030404093442484736,colour,0.5
001,78,0,1,13,35,635,947.9923684536479,948.5747140877647,"[98, 0, 156]",156,l,0.05897522950544953,colour,0.5
001,78,0,1,13,36,636,949.0861738135573,949.6947145131417,"[26, 0, 228]",228,a,0.0851580856833607,colour,0.5
001,78,0,1,13,37,637,950.211280053365,951.7506984851789,"[9, 0, 245]",245,a,1.0162689745193347,colour,0.5
001,78,0,1,13,38,638,952.2582662286004,952.8226674690377,"[0, 0, 254]",254,a,0.04093394975643605,colour,0.5
001,78,0,1,13,39,639,953.3364248900907,953.9107407999691,"[59, 0, 195]",195,a,0.05088091443758458,colour,0.5
001,78,0,1,13,40,640,954.4303881820524,955.0546708907932,"[86, 0, 168]",168,l,0.1008811901556328,colour,0.5
001,78,0,1,13,41,641,955.5710288743721,956.1427225602092,"[55, 0, 199]",199,a,0.046703394153155386,colour,0.5
001,78,0,1,13,42,642,956.6507837921381,958.0707496379036,"[91, 0, 163]",163,l,0.896485164295882,colour,0.5
001,78,0,1,13,43,643,958.5885211334098,959.1666975178523,"[52, 0, 202]",202,a,0.055525929550640285,colour,0.5
001,78,0,1,13,44,644,959.6823197979247,960.246761604445,"[80, 0, 174]",174,l,0.04102217114996165,colour,0.5
001,78,0,1,13,45,645,960.7613023844315,961.3026908319443,"[25, 0, 229]",229,a,0.01770060323178768,colour,0.5
001,78,0,1,13,46,646,961.8243346175877,962.4706888281507,"[18, 0, 236]",236,a,0.12332723930012435,colour,0.5
001,78,0,1,13,47,647,962.9806168882642,964.3347061478999,"[10, 0, 244]",244,a,0.8305451690685004,colour,0.5
001,78,0,1,13,48,648,964.8558146972209,965.518681672751,"[37, 0, 217]",217,a,0.13945206627249718,colour,0.5
001,78,0,1,13,49,649,966.0279268046143,966.5747479584534,"[29, 0, 225]",225,a,0.023742982652038336,colour,0.5
001,78,0,1,13,50,650,967.0904029277153,967.630787856644,"[11, 0, 243]",243,a,0.01690267212688923,colour,0.5
001,78,0,1,14,1,651,975.0910480468301,980.9026622388046,"[64, 0, 190]",190,a,5.287397806881927,colour,0.5
001,78,0,1,14,2,652,981.4222355779493,982.126680046902,"[87, 0, 167]",167,l,0.1817416325211525,colour,0.5
001,78,0,1,14,3,653,982.6411097623641,984.6946388947545,"[88, 0, 166]",166,l,1.530442296527326,colour,0.5
001,78,0,1,14,4,654,985.2038631528849,985.75872466492,"[93, 0, 161]",161,l,0.031544670346193016,colour,0.5
001,78,0,1,14,5,655,986.2664550665068,986.9346810992574,"[55, 0, 199]",199,a,0.144873351091519,colour,0.5
001,78,0,1,14,6,656,987.4539858357748,989.64665904711,"[29, 0, 225]",225,a,1.6693035943899304,colour,0.5
001,78,0,1,14,7,657,990.158854082576,990.9106384001207,"[0, 0, 254]",254,a,0.22844384505879134,colour,0.5
001,78,0,1,14,8,658,991.424658122356,992.0546874323627,"[61, 0, 193]",193,a,0.1066529976669699,colour,0.5
001,78,0,1,14,9,659,992.5653066915693,993.1026735815685,"[22, 0, 232]",232,a,0.013883057865314186,colour,0.5
001,78,0,1,14,10,660,993.6122377283173,995.7346811780008,"[57, 0, 197]",197,a,1.5990127865225077,colour,0.5
001,78,0,1,14,11,661,996.2531572633889,996.8467491589254,"[43, 0, 211]",211,a,0.07026402617339045,colour,0.5
001,78,0,1,14,12,662,997.3625124356477,998.0626171198674,"[70, 0, 184]",184,a,0.1765794981038198,colour,0.5
001,78,0,1,14,13,663,998.5813807124505,999.2626150718424,"[98, 0, 156]",156,l,0.157863954664208,colour,0.5
001,78,0,1,14,14,664,999.7689910384361,1000.3186872652732,"[53, 0, 201]",201,a,0.02629628370050341,colour,0.5
001,78,0,1,14,15,665,1000.8315738936653,1001.4706478681182,"[12, 0, 242]",242,a,0.11571853584609926,colour,0.5
001,78,0,1,14,16,666,1001.9878896413138,1003.590613241191,"[13, 0, 241]",241,a,1.079426056589,colour,0.5
001,78,0,1,14,17,667,1004.0988146822201,1004.6306291368091,"[33, 0, 221]",221,a,0.008461379096843302,colour,0.5
001,78,0,1,14,18,668,1005.1457445375854,1006.7106262696907,"[11, 0, 243]",243,a,1.0414487059460953,colour,0.5
001,78,0,1,14,19,669,1007.2240733403014,1007.8386847762158,"[76, 0, 178]",178,l,0.09136745554860681,colour,0.5
001,78,0,1,14,20,670,1008.3491898202337,1009.710638872697,"[7, 0, 247]",247,a,0.8380250848131254,colour,0.5
001,78,0,1,14,21,671,1010.2242474200903,1010.8866535961861,"[97, 0, 157]",157,l,0.1389995375648141,colour,0.5
001,78,0,1,14,22,672,1011.3961917492561,1011.9746320103295,"[31, 0, 223]",223,a,0.05500762874726206,colour,0.5
001,78,0,1,14,23,673,1012.4900427953107,1014.1746382331476,"[78, 0, 176]",176,a,1.1611568978987634,colour,0.5
001,78,0,1,14,24,674,1014.6933841026621,1015.3266957219457,"[17, 0, 237]",237,a,0.11003494984470308,colour,0.5
001,78,0,1,14,25,675,1015.8339739888906,1017.3186313392362,"[19, 0, 235]",235,a,0.9610805705888197,colour,0.5
001,78,0,1,14,26,676,1017.8341890285956,1018.4466051689815,"[3, 0, 251]",251,a,0.08891222206875682,colour,0.5
001,78,0,1,14,27,677,1018.9607395002386,1020.6306192907505,"[9, 0, 245]",245,a,1.146657865610905,colour,0.5
001,78,0,1,14,28,678,1021.1483915739227,1022.1666801887332,"[71, 0, 183]",183,l,0.4951537298038602,colour,0.5
001,78,0,1,14,29,679,1022.6798149398528,1024.094625740312,"[32, 0, 222]",222,a,0.8915108941728249,colour,0.5
001,78,0,1,14,30,680,1024.6018220873084,1025.310603977996,"[5, 0, 249]",249,a,0.1853925813920796,colour,0.5
001,78,0,1,14,31,681,1025.820598598104,1026.926592691918,"[66, 0, 188]",188,l,0.5825638246024027,colour,0.5
001,78,0,1,14,32,682,1027.445741071715,1028.0786005562404,"[73, 0, 181]",181,a,0.10823350003920496,colour,0.5
001,78,0,1,14,33,683,1028.5880044079386,1029.1666187488008,"[49, 0, 205]",205,a,0.05527465615887195,colour,0.5
001,78,0,1,14,34,684,1029.6819129553623,1030.2545810152078,"[21, 0, 233]",233,a,0.04928032588213682,colour,0.5
001,78,0,1,14,35,685,1030.7745686799753,1031.446581538301,"[84, 0, 170]",170,l,0.1490150315221399,colour,0.5
001,78,0,1,14,36,686,1031.962099449127,1032.5027754299808,"[72, 0, 182]",182,l,0.017152370186522603,colour,0.5
001,78,0,1,14,37,687,1033.0090537229553,1033.6146315219812,"[46, 0, 208]",208,a,0.08245669864118099,colour,0.5
001,78,0,1,14,38,688,1034.1345471129753,1034.782652755035,"[99, 0, 155]",155,l,0.12439574243035167,colour,0.5
001,78,0,1,14,39,689,1035.2908679805696,1035.878780228668,"[63, 0, 191]",191,a,0.064072773209773,colour,0.5
001,78,0,1,14,40,690,1036.3849104355322,1036.9747340163449,"[82, 0, 172]",172,a,0.06638858537189662,colour,0.5
001,78,0,1,14,41,691,1037.4943707647035,1038.1105894844513,"[67, 0, 187]",187,a,0.09303539176471531,colour,0.5
001,78,0,1,14,42,692,1038.6195494721178,1039.294572886196,"[41, 0, 213]",213,a,0.151781796826981,colour,0.5
001,78,0,1,14,43,693,1039.806946333847,1040.3426062969957,"[96, 0, 158]",158,a,0.012224573991261423,colour,0.5
001,78,0,1,14,44,694,1040.8563940441236,1041.3986241397215,"[10, 0, 244]",244,a,0.02104041411075741,colour,0.5
001,78,0,1,14,45,695,1041.9167445824714,1042.4786890139803,"[44, 0, 210]",210,a,0.03830030409153551,colour,0.5
001,78,0,1,14,46,696,1042.9949197854148,1043.550641062553,"[85, 0, 169]",169,l,0.03223665710538626,colour,0.5
001,78,0,1,14,47,697,1044.0576192190638,1044.7107156725833,"[2, 0, 252]",252,a,0.12956890440545976,colour,0.5
001,78,0,1,14,48,698,1045.2295091975247,1046.5905478629284,"[26, 0, 228]",228,a,0.8350787258241326,colour,0.5
001,78,0,1,14,49,699,1047.1048247662839,1047.7346150119556,"[65, 0, 189]",189,a,0.1067790281958878,colour,0.5
001,78,0,1,14,50,700,1048.24570294749,1048.9186350413365,"[35, 0, 219]",219,a,0.14975309814326465,colour,0.5
001,78,0,1,15,1,701,1054.3704058894655,1055.3585676780203,"[6, 0, 248]",248,a,0.4640804926166311,colour,0.5
001,78,0,1,15,2,702,1055.8709986270405,1056.4385372416582,"[97, 0, 157]",157,l,0.04390039492864162,colour,0.5
001,78,0,1,15,3,703,1056.9494763035327,1057.4945456321584,"[32, 0, 222]",222,a,0.02167608088348061,colour,0.5
001,78,0,1,15,4,704,1058.0130142343696,1058.7105896420544,"[82, 0, 172]",172,l,0.17438459652476013,colour,0.5
001,78,0,1,15,5,705,1059.2161511358572,1059.814537707949,"[65, 0, 189]",189,a,0.07585033238865435,colour,0.5
001,78,0,1,15,6,706,1060.3255610527704,1062.3905333693838,"[70, 0, 184]",184,a,1.5417267609154806,colour,0.5
001,78,0,1,15,7,707,1062.9035432714736,1063.5025525133824,"[39, 0, 215]",215,a,0.07561835728120059,colour,0.5
001,78,0,1,15,8,708,1064.0143044725992,1064.6305243739625,"[78, 0, 176]",176,l,0.0927734844153747,colour,0.5
001,78,0,1,15,9,709,1065.1394012601813,1067.7105510451365,"[88, 0, 166]",166,l,2.047695885063149,colour,0.5
001,78,0,1,15,10,710,1068.232330707484,1068.8225465584546,"[94, 0, 160]",160,l,0.06691240007057786,colour,0.5
001,78,0,1,15,11,711,1069.3416728829034,1070.790554479463,"[56, 0, 198]",198,a,0.9254048535367474,colour,0.5
001,78,0,1,15,12,712,1071.3105618364643,1072.2625047951005,"[93, 0, 161]",161,l,0.4289151995908469,colour,0.5
001,78,0,1,15,13,713,1072.7808331882115,1074.4705482252175,"[33, 0, 221]",221,a,1.1663556599523872,colour,0.5
001,78,0,1,15,14,714,1074.9840500404825,1075.7025461330777,"[66, 0, 188]",188,a,0.19499532505869865,colour,0.5
001,78,0,1,15,15,715,1076.2111863180762,1076.814537314116,"[96, 0, 158]",158,l,0.08015388331841677,colour,0.5
001,78,0,1,15,16,716,1077.3207529855426,1077.8545807788614,"[57, 0, 197]",197,a,0.010833117295987904,colour,0.5
001,78,0,1,15,17,717,1078.3675749271642,1079.0305525732692,"[41, 0, 213]",213,a,0.1394248908618465,colour,0.5
001,78,0,1,15,18,718,1079.5395728192525,1080.0865239423001,"[43, 0, 211]",211,a,0.02344405383337289,colour,0.5
001,78,0,1,15,19,719,1080.60226595134,1082.2385152650531,"[42, 0, 212]",212,a,1.1130151796387509,colour,0.5
001,78,0,1,15,20,720,1082.7600322322687,1083.3025628321338,"[49, 0, 205]",205,a,0.019067641347646713,colour,0.5
001,78,0,1,15,21,721,1083.82252804772,1084.3905121017015,"[50, 0, 204]",204,a,0.04451006790623069,colour,0.5
001,78,0,1,15,22,722,1084.9007477553096,1085.5185702143935,"[63, 0, 191]",191,a,0.09428427612874657,colour,0.5
001,78,0,1,15,23,723,1086.0259229181102,1086.5985220549628,"[37, 0, 217]",217,a,0.04922558134421706,colour,0.5
001,78,0,1,15,24,724,1087.1197676626034,1088.5744872327195,"[29, 0, 225]",225,a,0.9314302975544706,colour,0.5
001,78,0,1,15,25,725,1089.0886711885687,1089.8705358584411,"[73, 0, 181]",181,a,0.25851041288115084,colour,0.5
001,78,0,1,15,26,726,1090.3856583483284,1091.198523000232,"[3, 0, 251]",251,a,0.2881291782250628,colour,0.5
001,78,0,1,15,27,727,1091.7141244063387,1092.294541772455,"[53, 0, 201]",201,a,0.05726790870539844,colour,0.5
001,78,0,1,15,28,728,1092.8079813601216,1094.1585197076201,"[2, 0, 252]",252,a,0.8270580598618835,colour,0.5
001,78,0,1,15,29,729,1094.66743125231,1096.022509852075,"[34, 0, 220]",220,a,0.8316136721987277,colour,0.5
001,78,0,1,15,30,730,1096.5426345750457,1097.2386219971813,"[69, 0, 185]",185,a,0.1725658174837008,colour,0.5
001,78,0,1,15,31,731,1097.7458352795802,1098.5664957114495,"[30, 0, 224]",224,a,0.2971986549673602,colour,0.5
001,78,0,1,15,32,732,1099.0740705440985,1099.6865225244546,"[91, 0, 163]",163,l,0.08906424650922418,colour,0.5
001,78,0,1,15,33,733,1100.1992331037764,1100.798520400771,"[5, 0, 249]",249,a,0.07588774769101292,colour,0.5
001,78,0,1,15,34,734,1101.3086162392283,1102.8304853044683,"[12, 0, 242]",242,a,0.998573491233401,colour,0.5
001,78,0,1,15,35,735,1103.3400522081647,1104.2864876297535,"[4, 0, 250]",250,a,0.4230149984359741,colour,0.5
001,78,0,1,15,36,736,1104.7932342049899,1105.6144881622167,"[48, 0, 206]",206,a,0.2978646479314193,colour,0.5
001,78,0,1,15,37,737,1106.109008982079,1106.6464715765323,"[62, 0, 192]",192,a,0.014004362164996564,colour,0.5
001,78,0,1,15,38,738,1107.156068018754,1107.7984727454605,"[81, 0, 173]",173,l,0.11907961429096758,colour,0.5
001,78,0,1,15,39,739,1108.312423938536,1108.9585052140756,"[90, 0, 164]",164,l,0.12540516862645745,colour,0.5
001,78,0,1,15,40,740,1109.466446717037,1110.0305041302927,"[99, 0, 155]",155,l,0.04067243624012917,colour,0.5
001,78,0,1,15,41,741,1110.5445340924198,1111.1665226503974,"[21, 0, 233]",233,a,0.09544454526621848,colour,0.5
001,78,0,1,15,42,742,1111.6882263005245,1112.2304910545936,"[22, 0, 232]",232,a,0.018914041575044394,colour,0.5
001,78,0,1,15,43,743,1112.7508481465047,1113.4224348638672,"[80, 0, 174]",174,l,0.14816314342897385,colour,0.5
001,78,0,1,15,44,744,1113.9384242079686,1114.7104801529786,"[18, 0, 236]",236,a,0.24870326335076243,colour,0.5
001,78,0,1,15,45,745,1115.2197930262191,1115.8864814856788,"[40, 0, 214]",214,a,0.1432432240108028,colour,0.5
001,78,0,1,15,46,746,1116.4073891738662,1117.006494120229,"[8, 0, 246]",246,a,0.0756671940907836,colour,0.5
001,78,0,1,15,47,747,1117.516774278367,1118.1024628741434,"[95, 0, 159]",159,l,0.060858599143102765,colour,0.5
001,78,0,1,15,48,748,1118.6120455317432,1119.190477128257,"[64, 0, 190]",190,a,0.05486899521201849,colour,0.5
001,78,0,1,15,49,749,1119.7058950023493,1120.2385085696587,"[27, 0, 227]",227,a,0.009509402210824192,colour,0.5
001,78,0,1,15,50,750,1120.7528492760612,1121.3024722476257,"[9, 0, 245]",245,a,0.02616552694234997,colour,0.5
001,78,0,1,16,1,751,1126.4243635258172,1127.3827364078024,"[86, 0, 168]",168,l,0.43264964362606406,colour,0.5
001,78,0,1,16,2,752,1127.895734888385,1128.5344673986547,"[2, 0, 252]",252,a,0.11533414258155972,colour,0.5
001,78,0,1,16,3,753,1129.0519821067574,1131.0624446154106,"[13, 0, 241]",241,a,1.4872177406214178,colour,0.5
001,78,0,1,16,4,754,1131.5834314664826,1132.3584369212622,"[54, 0, 200]",200,a,0.25158975773956627,colour,0.5
001,78,0,1,16,5,755,1132.8647089126753,1133.4704816653393,"[73, 0, 181]",181,a,0.08224284055177122,colour,0.5
001,78,0,1,16,6,756,1133.9898970724316,1134.5504780104384,"[4, 0, 250]",250,a,0.03722549951635301,colour,0.5
001,78,0,1,16,7,757,1135.0681325338082,1136.6704445650103,"[29, 0, 225]",225,a,1.0789282358018681,colour,0.5
001,78,0,1,16,8,758,1137.1789823501604,1137.7425254010595,"[5, 0, 249]",249,a,0.040136018535122275,colour,0.5
001,78,0,1,16,9,759,1138.2572205684846,1138.9425213838695,"[92, 0, 162]",162,l,0.16190126608125865,colour,0.5
001,78,0,1,16,10,760,1139.4624212210765,1140.158437787788,"[72, 0, 182]",182,l,0.1730404015397653,colour,0.5
001,78,0,1,16,11,761,1140.6655770271318,1143.1425173666794,"[55, 0, 199]",199,a,1.9535218856763095,colour,0.5
001,78,0,1,16,12,762,1143.6502198051894,1144.1824418900069,"[69, 0, 185]",185,a,0.008770547923631966,colour,0.5
001,78,0,1,16,13,763,1144.697067346773,1146.174444854958,"[47, 0, 207]",207,a,0.9542548323515803,colour,0.5
001,78,0,1,16,14,764,1146.6816293864977,1147.3904140341328,"[18, 0, 236]",236,a,0.18534177530091256,colour,0.5
001,78,0,1,16,15,765,1147.9004700941732,1148.5344288017368,"[85, 0, 169]",169,l,0.1105725490488112,colour,0.5
001,78,0,1,16,16,766,1149.041232878575,1149.5906790135195,"[33, 0, 221]",221,a,0.026053674868308008,colour,0.5
001,78,0,1,16,17,767,1150.103833456873,1150.7744454062777,"[99, 0, 155]",155,l,0.14722382160834968,colour,0.5
001,78,0,1,16,18,768,1151.2929912023246,1151.9024255375843,"[1, 0, 253]",253,a,0.0861344289733097,colour,0.5
001,78,0,1,16,19,769,1152.418075780617,1153.190451528295,"[61, 0, 193]",193,a,0.2491061674663797,colour,0.5
001,78,0,1,16,20,770,1153.6994682296645,1154.2704025810817,"[49, 0, 205]",205,a,0.04753283294849098,colour,0.5
001,78,0,1,16,21,771,1154.7775686020032,1155.374433748424,"[96, 0, 158]",158,l,0.07352624938357621,colour,0.5
001,78,0,1,16,22,772,1155.8870214479975,1156.4384127864614,"[79, 0, 175]",175,l,0.02787639235612005,colour,0.5
001,78,0,1,16,23,773,1156.9513415562687,1157.4946110105375,"[38, 0, 216]",216,a,0.019716699025593698,colour,0.5
001,78,0,1,16,24,774,1158.013933076174,1158.7184110219823,"[80, 0, 174]",174,l,0.18111856875475496,colour,0.5
001,78,0,1,16,25,775,1159.232697771513,1160.0064027480548,"[78, 0, 176]",176,l,0.2507103005191311,colour,0.5
001,78,0,1,16,26,776,1160.513332461589,1161.0464111606125,"[52, 0, 202]",202,a,0.009701992734335363,colour,0.5
001,78,0,1,16,27,777,1161.5602493199985,1162.158398797037,"[50, 0, 204]",204,a,0.07487398909870535,colour,0.5
001,78,0,1,16,28,778,1162.6696789291454,1164.0703806044767,"[58, 0, 196]",196,a,0.8772631352767348,colour,0.5
001,78,0,1,16,29,779,1164.5915553199593,1165.254426233936,"[7, 0, 247]",247,a,0.13938629406038672,colour,0.5
001,78,0,1,16,30,780,1165.764801702695,1166.3024049000815,"[9, 0, 245]",245,a,0.01424303266685456,colour,0.5
001,78,0,1,16,31,781,1166.8117484933464,1168.1984387172852,"[53, 0, 201]",201,a,0.8638901077210903,colour,0.5
001,78,0,1,16,32,782,1168.71821291768,1169.2544494707836,"[62, 0, 192]",192,a,0.012880720663815737,colour,0.5
001,78,0,1,16,33,783,1169.765001382446,1171.182410776266,"[12, 0, 242]",242,a,0.8938802693737671,colour,0.5
001,78,0,1,16,34,784,1171.7027655050624,1172.2304146485403,"[14, 0, 240]",240,a,0.004261015681549907,colour,0.5
001,78,0,1,16,35,785,1172.7497508926317,1173.5584092732752,"[83, 0, 171]",171,l,0.28531357587780803,colour,0.5
001,78,0,1,16,36,786,1174.0779298371635,1175.5103687733645,"[26, 0, 228]",228,a,0.9092910542385653,colour,0.5
001,78,0,1,16,37,787,1176.0170598165132,1176.7264009679202,"[16, 0, 238]",238,a,0.18597153446171433,colour,0.5
001,78,0,1,16,38,788,1177.2358512933133,1177.8544854682405,"[8, 0, 246]",246,a,0.09517515497282147,colour,0.5
001,78,0,1,16,39,789,1178.360996523872,1178.8864389504306,"[40, 0, 214]",214,a,0.0022780030267313123,colour,0.5
001,78,0,1,16,40,790,1179.4079744283808,1179.9744059429504,"[45, 0, 209]",209,a,0.04312373127322644,colour,0.5
001,78,0,1,16,41,791,1180.4861401790986,1181.5343823280418,"[57, 0, 197]",197,a,0.523419635486789,colour,0.5
001,78,0,1,16,42,792,1182.0503574936884,1182.7264238109346,"[82, 0, 172]",172,l,0.16379330039490014,colour,0.5
001,78,0,1,16,43,793,1183.2443071586313,1183.8543708592188,"[89, 0, 165]",165,l,0.08681381260976195,colour,0.5
001,78,0,1,16,44,794,1184.3693838600302,1185.2543880308513,"[90, 0, 164]",164,l,0.3615872922819108,colour,0.5
001,78,0,1,16,45,795,1185.7757864505984,1186.6224343911745,"[70, 0, 184]",184,l,0.3232606004457921,colour,0.5
001,78,0,1,16,46,796,1187.1366518239956,1187.7743898740737,"[48, 0, 206]",206,a,0.11433771310839802,colour,0.5
001,78,0,1,16,47,797,1188.293018771452,1189.9023991499562,"[31, 0, 223]",223,a,1.086051327525638,colour,0.5
001,78,0,1,16,48,798,1190.4181506113382,1191.0143871802138,"[21, 0, 233]",233,a,0.07286813342943788,colour,0.5
001,78,0,1,16,49,799,1191.527666078764,1193.0464202191215,"[0, 0, 254]",254,a,0.9955660861451179,colour,0.5
001,78,0,1,16,50,800,1193.5590508477762,1194.110351995565,"[24, 0, 230]",230,a,0.0279145953245461,colour,0.5
