id,age,condition,counterbalance,block,trialinblock,trial,tstart,tend,trialstim,trialintensity,response,RT,trialtype,colourfreq
165,23,1,2,Practice,1,NA,5.906447768211365e-06,1.354302354156971,"[93, 0, 161]",161,l,0.8311101384460926,colour,0.5
165,23,1,2,Practice,2,NA,1.8602890111505985,2.9222457259893417,"[76, 0, 178]",178,l,0.5398688409477472,colour,0.5
165,23,1,2,Practice,3,NA,3.438487347215414,4.322262581437826,"[31, 0, 223]",223,a,0.3614250607788563,colour,0.5
165,23,1,2,Practice,4,NA,4.8427983075380325,5.794293012470007,"[48, 0, 206]",206,a,0.42405722104012966,colour,0.5
165,23,1,2,Practice,5,NA,6.30758236348629,7.2502813041210175,"[1, 0, 253]",253,a,0.41315753012895584,colour,0.5
165,23,1,2,Practice,6,NA,7.759735776111484,8.698295000940561,"[56, 0, 198]",198,a,0.422551941126585,colour,0.5
165,23,1,2,Practice,7,NA,9.211306296288967,10.330296648666263,"[28, 0, 226]",226,a,0.6017247308045626,colour,0.5
165,23,1,2,Practice,8,NA,10.852883523330092,11.92228471674025,"[35, 0, 219]",219,a,0.5531060080975294,colour,0.5
165,23,1,2,Practice,9,NA,12.432010941207409,13.618306832388043,"[67, 0, 187]",187,l,0.6698723118752241,colour,0.5
165,23,1,2,Practice,10,NA,14.124297427013516,15.058989476412535,"[96, 0, 158]",158,l,0.41394994780421257,colour,0.5
165,23,1,2,1,1,1,4.3126275315880775,5.119994658976793,"[95, 0, 159]",159,l,0.2977815046906471,colour,0.5
165,23,1,2,1,2,2,5.631963051855564,6.496010929346085,"[99, 0, 155]",155,l,0.3478680904954672,colour,0.5
165,23,1,2,1,3,3,7.008204994723201,7.855981910601258,"[55, 0, 199]",199,a,0.3322146777063608,colour,0.5
165,23,1,2,1,4,4,8.367474142462015,9.279995810240507,"[63, 0, 191]",191,a,0.3958267290145159,colour,0.5
165,23,1,2,1,5,5,9.792054392397404,10.647980377078056,"[42, 0, 212]",212,a,0.3392491638660431,colour,0.5
165,23,1,2,1,6,6,11.168041517958045,12.000039778649807,"[97, 0, 157]",157,l,0.3162784855812788,colour,0.5
165,23,1,2,1,7,7,12.514322409406304,13.27999423444271,"[85, 0, 169]",169,l,0.24928566254675388,colour,0.5
165,23,1,2,1,8,8,13.797453626990318,14.576028637588024,"[45, 0, 209]",209,a,0.2546612676233053,colour,0.5
165,23,1,2,1,9,9,15.09097214229405,15.895995097234845,"[64, 0, 190]",190,a,0.2775090653449297,colour,0.5
165,23,1,2,1,10,10,16.415507216006517,17.312001317739487,"[28, 0, 226]",226,a,0.3802300300449133,colour,0.5
165,23,1,2,1,11,11,17.822597155347466,18.640006175264716,"[43, 0, 211]",211,a,0.3020204696804285,colour,0.5
165,23,1,2,1,12,12,19.15176031552255,19.960018714889884,"[50, 0, 204]",204,a,0.2920916099101305,colour,0.5
165,23,1,2,1,13,13,20.48251106776297,21.27999699115753,"[65, 0, 189]",189,l,0.2805298641324043,colour,0.5
165,23,1,2,1,14,14,21.798424065113068,22.567973697558045,"[77, 0, 177]",177,l,0.25290195643901825,colour,0.5
165,23,1,2,1,15,15,23.082532415166497,23.919998046010733,"[51, 0, 203]",203,a,0.32200382463634014,colour,0.5
165,23,1,2,1,16,16,24.435856061056256,25.176025565713644,"[83, 0, 171]",171,l,0.22221701592206955,colour,0.5
165,23,1,2,1,17,17,25.68486445583403,26.336001509800553,"[12, 0, 242]",242,a,0.13400061428546906,colour,0.5
165,23,1,2,1,18,18,26.844896325841546,27.52828622236848,"[35, 0, 219]",219,a,0.1681037452071905,colour,0.5
165,23,1,2,1,19,19,28.035569420084357,28.711994936689734,"[11, 0, 243]",243,a,0.14761350862681866,colour,0.5
165,23,1,2,1,20,20,29.221381668001413,29.760035887360573,"[13, 0, 241]",241,a,0.008072270080447197,colour,0.5
165,23,1,2,1,21,21,30.28539622761309,30.832013227045536,"[44, 0, 210]",210,a,0.029808634892106056,colour,0.5
165,23,1,2,1,22,22,31.352862847968936,31.872011052444577,"[90, 0, 164]",164,l,0.002083444967865944,colour,0.5
165,23,1,2,1,23,23,32.40454254113138,33.040013974532485,"[15, 0, 239]",239,a,0.11832002736628056,colour,0.5
165,23,1,2,1,24,24,33.548121098428965,36.85599490813911,"[22, 0, 232]",232,a,2.7915018256753683,colour,0.5
165,23,1,2,1,25,25,37.37067059800029,38.21597849205136,"[86, 0, 168]",168,l,0.32302231155335903,colour,0.5
165,23,1,2,1,26,26,38.73015399836004,39.46401881240308,"[21, 0, 233]",233,a,0.21162649244070053,colour,0.5
165,23,1,2,1,27,27,39.98335449025035,40.69602014683187,"[62, 0, 192]",192,l,0.19068806245923042,colour,0.5
165,23,1,2,1,28,28,41.2021379545331,41.85599175840616,"[49, 0, 205]",205,a,0.13157964311540127,colour,0.5
165,23,1,2,1,29,29,42.37404979765415,43.13602655753493,"[40, 0, 214]",214,a,0.23969235830008984,colour,0.5
165,23,1,2,1,30,30,43.655519772320986,44.30398458056152,"[4, 0, 250]",250,a,0.12629304639995098,colour,0.5
165,23,1,2,1,31,31,44.802286906167865,45.48802648857236,"[74, 0, 180]",180,l,0.1696255672723055,colour,0.5
165,23,1,2,1,32,32,46.0030649099499,46.63198589347303,"[0, 0, 254]",254,a,0.11273371241986752,colour,0.5
165,23,1,2,1,33,33,47.14560725726187,47.759993351995945,"[72, 0, 182]",182,l,0.09817873686552048,colour,0.5
165,23,1,2,1,34,34,48.27240285091102,48.94402029365301,"[91, 0, 163]",163,l,0.15580471977591515,colour,0.5
165,23,1,2,1,35,35,49.46247178502381,51.616000074893236,"[14, 0, 240]",240,a,1.6379585694521666,colour,0.5
165,23,1,2,1,36,36,52.12520169839263,52.91199588216841,"[32, 0, 222]",222,a,0.2702055834233761,colour,0.5
165,23,1,2,1,37,37,53.42530925758183,54.13604152388871,"[53, 0, 201]",201,l,0.19468756765127182,colour,0.5
165,23,1,2,1,38,38,54.65437171049416,55.23999640904367,"[76, 0, 178]",178,l,0.06367349065840244,colour,0.5
165,23,1,2,1,39,39,55.75630655884743,56.40799617767334,"[47, 0, 207]",207,a,0.13713090121746063,colour,0.5
165,23,1,2,1,40,40,56.92911597713828,57.50401033833623,"[75, 0, 179]",179,l,0.05874962545931339,colour,0.5
165,23,1,2,1,41,41,58.025597631931305,58.728012656793,"[94, 0, 160]",160,l,0.18851993791759014,colour,0.5
165,23,1,2,1,42,42,59.244403939694166,59.89597304165363,"[68, 0, 186]",186,a,0.13553346134722233,colour,0.5
165,23,1,2,1,43,43,60.41905261948705,61.080005498602986,"[66, 0, 188]",188,a,0.1436655968427658,colour,0.5
165,23,1,2,1,44,44,61.59514080546796,62.296007227152586,"[23, 0, 231]",231,a,0.18341687321662903,colour,0.5
165,23,1,2,1,45,45,62.81780641153455,63.43999617174268,"[24, 0, 230]",230,a,0.1045653447508812,colour,0.5
165,23,1,2,1,46,46,63.961943835020065,64.59997841715813,"[37, 0, 217]",217,a,0.114189762622118,colour,0.5
165,23,1,2,1,47,47,65.122184837237,65.72000734135509,"[38, 0, 216]",216,a,0.08242922648787498,colour,0.5
165,23,1,2,1,48,48,66.22824167832732,66.8400291763246,"[8, 0, 246]",246,a,0.08942708373069763,colour,0.5
165,23,1,2,1,49,49,67.35345322266221,68.0640196800232,"[2, 0, 252]",252,a,0.18838169798254967,colour,0.5
165,23,1,2,1,50,50,68.57222172059119,69.16799268126488,"[88, 0, 166]",166,l,0.07361377030611038,colour,0.5
165,23,1,2,2,1,51,74.53571573458612,75.26398675516248,"[53, 0, 201]",201,a,0.21454883180558681,colour,0.5
165,23,1,2,2,2,52,75.78509119339287,78.05598955228925,"[36, 0, 218]",218,a,1.7510869167745113,colour,0.5
165,23,1,2,2,3,53,78.57447806559503,79.1200190782547,"[67, 0, 187]",187,l,0.029193053022027016,colour,0.5
165,23,1,2,2,4,54,79.63945715501904,80.17600429803133,"[18, 0, 236]",236,a,0.020505202934145927,colour,0.5
165,23,1,2,2,5,55,80.69114236161113,81.23999010585248,"[39, 0, 215]",215,a,0.032558467239141464,colour,0.5
165,23,1,2,2,6,56,81.75779253989458,82.28840639255941,"[85, 0, 169]",169,l,0.014547493308782578,colour,0.5
165,23,1,2,2,7,57,82.80845965631306,83.36800544150174,"[13, 0, 241]",241,a,0.04228370822966099,colour,0.5
165,23,1,2,2,8,58,83.87631894089282,84.71998370997608,"[49, 0, 205]",205,a,0.3287031464278698,colour,0.5
165,23,1,2,2,9,59,85.22761073708534,85.77602052502334,"[86, 0, 168]",168,l,0.032419441267848015,colour,0.5
165,23,1,2,2,10,60,86.28978288546205,87.01603505015373,"[78, 0, 176]",176,l,0.21048040315508842,colour,0.5
165,23,1,2,2,11,61,87.52527448162436,89.98401536233723,"[4, 0, 250]",250,a,1.9425354935228825,colour,0.5
165,23,1,2,2,12,62,90.4995504245162,91.27997257187963,"[5, 0, 249]",249,a,0.2635673079639673,colour,0.5
165,23,1,2,2,13,63,91.79905776306987,92.55197763815522,"[6, 0, 248]",248,a,0.23541046306490898,colour,0.5
165,23,1,2,2,14,64,93.0675371196121,93.76796676591039,"[42, 0, 212]",212,a,0.18353109061717987,colour,0.5
165,23,1,2,2,15,65,94.2881212476641,95.02401200681925,"[19, 0, 235]",235,a,0.21149179711937904,colour,0.5
165,23,1,2,2,16,66,95.53171859122813,96.2319934554398,"[76, 0, 178]",178,l,0.1692344769835472,colour,0.5
165,23,1,2,2,17,67,96.74269011802971,97.47198671288788,"[55, 0, 199]",199,l,0.20778649486601353,colour,0.5
165,23,1,2,2,18,68,97.99202264845371,98.51999576203525,"[45, 0, 209]",209,a,0.0057084038853645325,colour,0.5
165,23,1,2,2,19,69,99.03890017792583,99.73596480302513,"[84, 0, 170]",170,l,0.17469948530197144,colour,0.5
165,23,1,2,2,20,70,100.24226417392492,100.99200846999884,"[80, 0, 174]",174,l,0.22439734637737274,colour,0.5
165,23,1,2,2,21,71,101.51094911806285,103.5599774401635,"[96, 0, 158]",158,l,1.526798665523529,colour,0.5
165,23,1,2,2,22,72,104.07361652702093,104.83197541721165,"[82, 0, 172]",172,l,0.23602250032126904,colour,0.5
165,23,1,2,2,23,73,105.3276700899005,105.98400748707354,"[56, 0, 198]",198,a,0.13901506178081036,colour,0.5
165,23,1,2,2,24,74,106.49130131863058,107.20801256224513,"[31, 0, 223]",223,a,0.201087960973382,colour,0.5
165,23,1,2,2,25,75,107.727673554793,108.37598436884582,"[63, 0, 191]",191,a,0.13185021467506886,colour,0.5
165,23,1,2,2,26,76,108.88644787482917,109.54395657032728,"[7, 0, 247]",247,a,0.14227216877043247,colour,0.5
165,23,1,2,2,27,77,110.06026908382773,110.71999513171613,"[41, 0, 213]",213,a,0.14341511018574238,colour,0.5
165,23,1,2,2,28,78,111.23525804653764,111.90397166274488,"[21, 0, 233]",233,a,0.15122311003506184,colour,0.5
165,23,1,2,2,29,79,112.41226704418659,113.03199999406934,"[51, 0, 203]",203,a,0.10297656990587711,colour,0.5
165,23,1,2,2,30,80,113.54101257026196,114.13599189929664,"[75, 0, 179]",179,l,0.07824736833572388,colour,0.5
165,23,1,2,2,31,81,114.65279593318701,115.23997435346246,"[38, 0, 216]",216,a,0.06239152140915394,colour,0.5
165,23,1,2,2,32,82,115.75696940161288,116.44796564802527,"[2, 0, 252]",252,a,0.17528592236340046,colour,0.5
165,23,1,2,2,33,83,116.96532894298434,117.51204125396907,"[3, 0, 251]",251,a,0.025080906227231026,colour,0.5
165,23,1,2,2,34,84,118.02779214270413,118.67200420051813,"[69, 0, 185]",185,l,0.12190126813948154,colour,0.5
165,23,1,2,2,35,85,119.18419826589525,119.73600497469306,"[91, 0, 163]",163,l,0.029622739180922508,colour,0.5
165,23,1,2,2,36,86,120.2466705236584,120.80000063031912,"[54, 0, 200]",200,a,0.028829138725996017,colour,0.5
165,23,1,2,2,37,87,121.31170553900301,121.93597283773124,"[8, 0, 246]",246,a,0.10273986868560314,colour,0.5
165,23,1,2,2,38,88,122.4524401333183,123.16797180660069,"[71, 0, 183]",183,l,0.19322679191827774,colour,0.5
165,23,1,2,2,39,89,123.68692505918443,124.22402201220393,"[27, 0, 227]",227,a,0.0148231852799654,colour,0.5
165,23,1,2,2,40,90,124.73384118452668,125.38400071300566,"[10, 0, 244]",244,a,0.1278869416564703,colour,0.5
165,23,1,2,2,41,91,125.88925954140723,128.00000866502523,"[83, 0, 171]",171,l,1.5951112676411867,colour,0.5
165,23,1,2,2,42,92,128.5053163319826,129.18398873880506,"[89, 0, 165]",165,l,0.15648843720555305,colour,0.5
165,23,1,2,2,43,93,129.70296759158373,131.71995850466192,"[70, 0, 184]",184,a,1.4947573188692331,colour,0.5
165,23,1,2,2,44,94,132.22816094011068,132.9119974579662,"[14, 0, 240]",240,a,0.16157614067196846,colour,0.5
165,23,1,2,2,45,95,133.43135125003755,134.01598621159792,"[30, 0, 224]",224,a,0.06232771649956703,colour,0.5
165,23,1,2,2,46,96,134.52520083263516,135.16800449602306,"[17, 0, 237]",237,a,0.12043419107794762,colour,0.5
165,23,1,2,2,47,97,135.67196835950017,136.20798184163868,"[37, 0, 217]",217,a,0.019182272255420685,colour,0.5
165,23,1,2,2,48,98,136.71909165009856,137.3279985561967,"[81, 0, 173]",173,l,0.09255304001271725,colour,0.5
165,23,1,2,2,49,99,137.847058147192,138.5119613017887,"[77, 0, 177]",177,l,0.148409865796566,colour,0.5
165,23,1,2,2,50,100,139.0214673690498,139.69599454663694,"[59, 0, 195]",195,a,0.1586124487221241,colour,0.5
165,23,1,2,3,1,101,144.997327754274,145.69600163586438,"[16, 0, 238]",238,a,0.18053589202463627,colour,0.5
165,23,1,2,3,2,102,146.20887469127774,147.75198921747506,"[89, 0, 165]",165,l,1.0170039106160402,colour,0.5
165,23,1,2,3,3,103,148.2607513088733,149.03998876735568,"[79, 0, 175]",175,l,0.2642632331699133,colour,0.5
165,23,1,2,3,4,104,149.55713190324605,150.12800194323063,"[49, 0, 205]",205,a,0.05577923730015755,colour,0.5
165,23,1,2,3,5,105,150.63780339434743,151.37600563652813,"[98, 0, 156]",156,l,0.2216845341026783,colour,0.5
165,23,1,2,3,6,106,151.89086013287306,152.42398120835423,"[5, 0, 249]",249,a,0.01549193449318409,colour,0.5
165,23,1,2,3,7,107,152.94378634914756,153.62399003095925,"[8, 0, 246]",246,a,0.16404319182038307,colour,0.5
165,23,1,2,3,8,108,154.1342680361122,154.71995614096522,"[54, 0, 200]",200,a,0.06951658986508846,colour,0.5
165,23,1,2,3,9,109,155.23303242214024,155.82398625090718,"[48, 0, 206]",206,a,0.059369539842009544,colour,0.5
165,23,1,2,3,10,110,156.3319330792874,156.89602030441165,"[81, 0, 173]",173,l,0.04036961682140827,colour,0.5
165,23,1,2,3,11,111,157.40414199978113,157.9679850395769,"[37, 0, 217]",217,a,0.047577787190675735,colour,0.5
165,23,1,2,3,12,112,158.4854909069836,159.0080017708242,"[3, 0, 251]",251,a,0.0063873957842588425,colour,0.5
165,23,1,2,3,13,113,159.53480319306254,160.90398505330086,"[11, 0, 243]",243,a,0.8531336169689894,colour,0.5
165,23,1,2,3,14,114,161.42299029231071,162.00796829350293,"[93, 0, 161]",161,l,0.06912313587963581,colour,0.5
165,23,1,2,3,15,115,162.521739711985,163.10396630503237,"[50, 0, 204]",204,a,0.06577662564814091,colour,0.5
165,23,1,2,3,16,116,163.62023313343525,164.2319796718657,"[55, 0, 199]",199,l,0.09471880085766315,colour,0.5
165,23,1,2,3,17,117,164.74999950826168,166.78398527391255,"[14, 0, 240]",240,a,1.5048070885241032,colour,0.5
165,23,1,2,3,18,118,167.3017900697887,168.71996244229376,"[58, 0, 196]",196,a,0.8960061240941286,colour,0.5
165,23,1,2,3,19,119,169.23944029770792,170.0479424893856,"[99, 0, 155]",155,l,0.2862741108983755,colour,0.5
165,23,1,2,3,20,120,170.56768540292978,171.22395072504878,"[36, 0, 218]",218,a,0.14483492448925972,colour,0.5
165,23,1,2,3,21,121,171.74440768174827,172.45595560222864,"[7, 0, 247]",247,a,0.18928911909461021,colour,0.5
165,23,1,2,3,22,122,172.9632628262043,173.58395597152412,"[70, 0, 184]",184,a,0.09845403581857681,colour,0.5
165,23,1,2,3,23,123,174.10399033129215,174.69598785042763,"[52, 0, 202]",202,a,0.06968594342470169,colour,0.5
165,23,1,2,3,24,124,175.21347953937948,175.8319722674787,"[66, 0, 188]",188,a,0.09640918672084808,colour,0.5
165,23,1,2,3,25,125,176.33665214292705,176.87200711481273,"[65, 0, 189]",189,a,0.01929333806037903,colour,0.5
165,23,1,2,3,26,126,177.3911970667541,177.951972046867,"[46, 0, 208]",208,a,0.03846852295100689,colour,0.5
165,23,1,2,3,27,127,178.46938496641815,179.00799822621047,"[21, 0, 233]",233,a,0.016345400363206863,colour,0.5
165,23,1,2,3,28,128,179.5166012030095,180.07197261415422,"[34, 0, 220]",220,a,0.03356001898646355,colour,0.5
165,23,1,2,3,29,129,180.57899232953787,181.09596098959446,"[45, 0, 209]",209,a,0.006698139011859894,colour,0.5
165,23,1,2,3,30,130,181.61419468559325,182.16800331510603,"[29, 0, 225]",225,a,0.031618356704711914,colour,0.5
165,23,1,2,3,31,131,182.67674846947193,183.22395899519324,"[78, 0, 176]",176,l,0.024931637570261955,colour,0.5
165,23,1,2,3,32,132,183.73931288905442,184.38399913720787,"[47, 0, 207]",207,a,0.12241878174245358,colour,0.5
165,23,1,2,3,33,133,184.89573830924928,185.47199892252684,"[4, 0, 250]",250,a,0.053918709978461266,colour,0.5
165,23,1,2,3,34,134,185.9890652578324,186.5759652275592,"[92, 0, 162]",162,l,0.06298583373427391,colour,0.5
165,23,1,2,3,35,135,187.09141639992595,187.73596401512623,"[94, 0, 160]",160,l,0.12843123637139797,colour,0.5
165,23,1,2,3,36,136,188.24955072067678,188.84798092767596,"[20, 0, 234]",234,a,0.08129770681262016,colour,0.5
165,23,1,2,3,37,137,189.36278737522662,189.90398662909865,"[40, 0, 214]",214,a,0.02388676628470421,colour,0.5
165,23,1,2,3,38,138,190.41281646117568,191.12799524888396,"[42, 0, 212]",212,a,0.18624823354184628,colour,0.5
165,23,1,2,3,39,139,191.64786419272423,192.25597986392677,"[75, 0, 179]",179,l,0.09090952016413212,colour,0.5
165,23,1,2,3,40,140,192.7782020382583,193.33596960827708,"[74, 0, 180]",180,l,0.04166891612112522,colour,0.5
165,23,1,2,3,41,141,193.84460803121328,194.4399835690856,"[64, 0, 190]",190,a,0.07868690229952335,colour,0.5
165,23,1,2,3,42,142,194.95798489451408,195.51196248456836,"[19, 0, 235]",235,a,0.03801875002682209,colour,0.5
165,23,1,2,3,43,143,196.02203135564923,196.6159835346043,"[86, 0, 168]",168,l,0.07877630554139614,colour,0.5
165,23,1,2,3,44,144,197.14777459204197,197.73594826087356,"[35, 0, 219]",219,a,0.07192968390882015,colour,0.5
165,23,1,2,3,45,145,198.258660774678,198.98398779332638,"[80, 0, 174]",174,l,0.20911375433206558,colour,0.5
165,23,1,2,3,46,146,199.49346353299916,200.1199820563197,"[96, 0, 158]",158,l,0.1111599039286375,colour,0.5
165,23,1,2,3,47,147,200.63547537103295,201.2639635168016,"[41, 0, 213]",213,a,0.11254939250648022,colour,0.5
165,23,1,2,3,48,148,201.77903817221522,202.38399756141007,"[57, 0, 197]",197,a,0.0890738032758236,colour,0.5
165,23,1,2,3,49,149,202.89190855063498,203.4479668289423,"[69, 0, 185]",185,a,0.03921525366604328,colour,0.5
165,23,1,2,3,50,150,203.95981391519308,204.5200048200786,"[18, 0, 236]",236,l,0.042772077023983,colour,0.5
165,23,1,2,4,1,151,209.6025947369635,210.3119702041149,"[83, 0, 171]",171,l,0.1926513835787773,colour,0.5
165,23,1,2,4,2,152,210.82375151850283,211.40798751451075,"[24, 0, 230]",230,a,0.06873323023319244,colour,0.5
165,23,1,2,4,3,153,211.92088341340423,212.5519796088338,"[40, 0, 214]",214,a,0.11472578719258308,colour,0.5
165,23,1,2,4,4,154,213.06531858444214,213.61599731817842,"[85, 0, 169]",169,l,0.03417126648128033,colour,0.5
165,23,1,2,4,5,155,214.1314768474549,214.7119547650218,"[90, 0, 164]",164,l,0.06302049197256565,colour,0.5
165,23,1,2,4,6,156,215.23037986829877,215.75999059528112,"[96, 0, 158]",158,l,0.004205489531159401,colour,0.5
165,23,1,2,4,7,157,216.28066298551857,216.79997227340937,"[23, 0, 231]",231,a,0.0024367254227399826,colour,0.5
165,23,1,2,4,8,158,217.33067316561937,217.9599856324494,"[16, 0, 238]",238,a,0.10020783171057701,colour,0.5
165,23,1,2,4,9,159,218.4699532855302,219.09596492908895,"[95, 0, 159]",159,l,0.10984879173338413,colour,0.5
165,23,1,2,4,10,160,219.61050119623542,220.19999858178198,"[77, 0, 177]",177,l,0.07437034882605076,colour,0.5
165,23,1,2,4,11,161,220.72112350165844,221.33597709052265,"[50, 0, 204]",204,a,0.09882464446127415,colour,0.5
165,23,1,2,4,12,162,221.84871033206582,222.55198905989528,"[91, 0, 163]",163,l,0.18652904592454433,colour,0.5
165,23,1,2,4,13,163,223.07047678530216,223.7199896182865,"[15, 0, 239]",239,a,0.13304356671869755,colour,0.5
165,23,1,2,4,14,164,224.22896950505674,224.87996910698712,"[39, 0, 215]",215,a,0.13342677988111973,colour,0.5
165,23,1,2,4,15,165,225.38949210755527,226.11196177452803,"[9, 0, 245]",245,a,0.2001769933849573,colour,0.5
165,23,1,2,4,16,166,226.62026897259057,227.27197946608067,"[2, 0, 252]",252,a,0.1351392213255167,colour,0.5
165,23,1,2,4,17,167,227.78161195665598,228.38393887877464,"[12, 0, 242]",242,a,0.08006024360656738,colour,0.5
165,23,1,2,4,18,168,228.89102436602116,229.47998218238354,"[99, 0, 155]",155,l,0.06682898290455341,colour,0.5
165,23,1,2,4,19,169,230.00049585290253,230.5679512489587,"[41, 0, 213]",213,a,0.04537422023713589,colour,0.5
165,23,1,2,4,20,170,231.07875149138272,231.7519226577133,"[98, 0, 156]",156,l,0.16241148672997952,colour,0.5
165,23,1,2,4,21,171,232.27065693214536,233.7199348732829,"[19, 0, 235]",235,a,0.927080973982811,colour,0.5
165,23,1,2,4,22,172,234.23951985500753,234.9919946845621,"[65, 0, 189]",189,a,0.2303672656416893,colour,0.5
165,23,1,2,4,23,173,235.50510877370834,236.10401317290962,"[14, 0, 240]",240,a,0.07653492502868176,colour,0.5
165,23,1,2,4,24,174,236.60506769642234,237.20798578113317,"[59, 0, 195]",195,a,0.08639249950647354,colour,0.5
165,23,1,2,4,25,175,237.7284781821072,238.27998950891197,"[67, 0, 187]",187,a,0.03603849187493324,colour,0.5
165,23,1,2,4,26,176,238.79238088987768,239.51195066794753,"[7, 0, 247]",247,a,0.20400714688003063,colour,0.5
165,23,1,2,4,27,177,240.02605291828513,241.83998821675777,"[53, 0, 201]",201,a,1.2969662435352802,colour,0.5
165,23,1,2,4,28,178,242.34939700178802,242.87998801097274,"[46, 0, 208]",208,a,0.012803541496396065,colour,0.5
165,23,1,2,4,29,179,243.4015410412103,244.14394798316061,"[5, 0, 249]",249,a,0.22445248439908028,colour,0.5
165,23,1,2,4,30,180,244.65613614208996,245.20003521069884,"[79, 0, 175]",175,l,0.025791799649596214,colour,0.5
165,23,1,2,4,31,181,245.72309785149992,246.31195641867816,"[57, 0, 197]",197,a,0.07230856455862522,colour,0.5
165,23,1,2,4,32,182,246.8170651923865,247.43198140338063,"[28, 0, 226]",226,a,0.09874390624463558,colour,0.5
165,23,1,2,4,33,183,247.94666575826705,248.5679681841284,"[82, 0, 172]",172,l,0.09901014715433121,colour,0.5
165,23,1,2,4,34,184,249.0873893238604,249.6399864833802,"[32, 0, 222]",222,a,0.030348990112543106,colour,0.5
165,23,1,2,4,35,185,250.14998840168118,250.82395198568702,"[17, 0, 237]",237,a,0.15190288797020912,colour,0.5
165,23,1,2,4,36,186,251.33757019788027,251.96796534769237,"[92, 0, 162]",162,l,0.11946375481784344,colour,0.5
165,23,1,2,4,37,187,252.4824815299362,253.1279625594616,"[55, 0, 199]",199,a,0.12334156408905983,colour,0.5
165,23,1,2,4,38,188,253.6388671733439,254.24797730520368,"[3, 0, 251]",251,a,0.0868170652538538,colour,0.5
165,23,1,2,4,39,189,254.76394481025636,255.36016514711082,"[30, 0, 224]",224,a,0.0738004520535469,colour,0.5
165,23,1,2,4,40,190,255.8733792733401,256.43996623903513,"[22, 0, 232]",232,a,0.04431910440325737,colour,0.5
165,23,1,2,4,41,191,256.9511622991413,257.64794650673866,"[71, 0, 183]",183,l,0.15327622927725315,colour,0.5
165,23,1,2,4,42,192,258.1580157727003,258.75197346508503,"[21, 0, 233]",233,a,0.07175639271736145,colour,0.5
165,23,1,2,4,43,193,259.26756405830383,259.90396378561854,"[34, 0, 220]",220,a,0.1142382062971592,colour,0.5
165,23,1,2,4,44,194,260.4238855037838,261.0239824689925,"[1, 0, 253]",253,a,0.0778452530503273,colour,0.5
165,23,1,2,4,45,195,261.5333569906652,262.3359707891941,"[63, 0, 191]",191,a,0.2900310065597296,colour,0.5
165,23,1,2,4,46,196,262.85190993733704,263.5359855182469,"[74, 0, 180]",180,a,0.16176873072981834,colour,0.5
165,23,1,2,4,47,197,264.0551061555743,264.6159496642649,"[45, 0, 209]",209,a,0.03850869461894035,colour,0.5
165,23,1,2,4,48,198,265.13340157456696,266.5359744913876,"[78, 0, 176]",176,l,0.880623284727335,colour,0.5
165,23,1,2,4,49,199,267.04103088378906,267.6479508392513,"[72, 0, 182]",182,l,0.06487314403057098,colour,0.5
165,23,1,2,4,50,200,268.1557806953788,268.6959819421172,"[89, 0, 165]",165,l,0.017979072406888008,colour,0.5
165,23,1,2,5,1,201,273.7372325938195,274.39194261841476,"[3, 0, 251]",251,a,0.13166589476168156,colour,0.4
165,23,1,2,5,2,202,274.9099695440382,276.3519837837666,"[86, 0, 168]",168,l,0.9197570141404867,colour,0.4
165,23,1,2,5,3,203,276.8530162498355,277.6159658115357,"[94, 0, 160]",160,l,0.24623414315283298,colour,0.4
165,23,1,2,5,4,204,278.1750444956124,279.1599550694227,"[18, 0, 236]",236,a,0.4685267750173807,colour,0.4
165,23,1,2,5,5,205,279.6758662555367,280.5839311592281,"[14, 0, 240]",240,a,0.39272952266037464,colour,0.4
165,23,1,2,5,6,206,281.09688377194107,282.0159287098795,"[71, 0, 183]",183,l,0.40320070646703243,colour,0.4
165,23,1,2,5,7,207,282.5346866156906,283.3519337642938,"[83, 0, 171]",171,l,0.3007392883300781,colour,0.4
165,23,1,2,5,8,208,283.8647619225085,284.647954383865,"[65, 0, 189]",189,a,0.2646429017186165,colour,0.4
165,23,1,2,5,9,209,285.1666689645499,285.9519779533148,"[58, 0, 196]",196,a,0.26926429010927677,colour,0.4
165,23,1,2,5,10,210,286.459795601666,287.20800941064954,"[51, 0, 203]",203,a,0.22760955430567265,colour,0.4
165,23,1,2,5,11,211,287.7578338943422,288.5199532266706,"[6, 0, 248]",248,a,0.24136777967214584,colour,0.4
165,23,1,2,5,12,212,289.0376922506839,289.7999277692288,"[70, 0, 184]",184,a,0.23991803266108036,colour,0.4
165,23,1,2,5,13,213,290.31904092244804,290.97594900242984,"[87, 0, 167]",167,l,0.13459532149136066,colour,0.4
165,23,1,2,5,14,214,291.49101696163416,292.1919680610299,"[57, 0, 197]",197,a,0.18871213495731354,colour,0.4
165,23,1,2,5,15,215,292.69985896348953,293.39192725904286,"[72, 0, 182]",182,a,0.16997924074530602,colour,0.4
165,23,1,2,5,16,216,293.9030709359795,294.65596009232104,"[23, 0, 231]",231,a,0.2305480409413576,colour,0.4
165,23,1,2,5,17,217,295.16882527060807,295.94396988116205,"[2, 0, 252]",252,a,0.25280940160155296,colour,0.4
165,23,1,2,5,18,218,296.450278704986,297.1759515218437,"[13, 0, 241]",241,a,0.2036774978041649,colour,0.4
165,23,1,2,5,19,219,297.69556682929397,298.4239690005779,"[32, 0, 222]",222,a,0.21412387304008007,colour,0.4
165,23,1,2,5,20,220,298.9460781402886,299.7119346782565,"[42, 0, 212]",212,a,0.24987879395484924,colour,0.4
165,23,1,2,5,21,221,300.22747879847884,301.04796572588384,"[0, 0, 254]",254,a,0.29059420712292194,colour,0.4
165,23,1,2,5,22,222,301.57043208554387,302.1679253336042,"[54, 0, 200]",200,a,0.08180419355630875,colour,0.4
165,23,1,2,5,23,223,302.68363053537905,303.2879589833319,"[36, 0, 218]",218,a,0.08736805617809296,colour,0.4
165,23,1,2,5,24,224,303.7973622549325,304.4559481199831,"[56, 0, 198]",198,a,0.14200789853930473,colour,0.4
165,23,1,2,5,25,225,304.97365918010473,305.73593211360276,"[88, 0, 166]",166,l,0.24599507823586464,colour,0.4
165,23,1,2,5,26,226,306.2564717773348,307.0159511603415,"[91, 0, 163]",163,l,0.23280714266002178,colour,0.4
165,23,1,2,5,27,227,307.5217964258045,308.1599574331194,"[11, 0, 243]",243,a,0.12271889299154282,colour,0.4
165,23,1,2,5,28,228,308.6705008894205,309.38395502604544,"[63, 0, 191]",191,l,0.19131270051002502,colour,0.4
165,23,1,2,5,29,229,309.88933673501015,310.6239585224539,"[67, 0, 187]",187,l,0.21244648098945618,colour,0.4
165,23,1,2,5,30,230,311.13930650800467,311.8239807356149,"[84, 0, 170]",170,l,0.16313813254237175,colour,0.4
165,23,1,2,5,31,231,312.3300430122763,313.04794209450483,"[95, 0, 159]",159,l,0.19579466804862022,colour,0.4
165,23,1,2,5,32,232,313.56449918821454,314.343927660957,"[60, 0, 194]",194,l,0.25706057623028755,colour,0.4
165,23,1,2,5,33,233,314.8616229686886,316.4639530405402,"[26, 0, 228]",228,a,1.0801516138017178,colour,0.4
165,23,1,2,5,34,234,316.97114092856646,317.7279559429735,"[98, 0, 156]",156,l,0.2322600893676281,colour,0.4
165,23,1,2,5,35,235,318.2430116944015,319.3359692133963,"[17, 0, 237]",237,a,0.5756497569382191,colour,0.4
165,23,1,2,5,36,236,319.8518091123551,320.6159343030304,"[21, 0, 233]",233,a,0.24840935319662094,colour,0.4
165,23,1,2,5,37,237,321.134412182495,321.8479706887156,"[53, 0, 201]",201,a,0.19806637428700924,colour,0.4
165,23,1,2,5,38,238,322.37096164934337,323.1919491570443,"[1, 0, 253]",253,a,0.30379041470587254,colour,0.4
165,23,1,2,5,39,239,323.7022874187678,324.44794280454516,"[85, 0, 169]",169,l,0.22895335778594017,colour,0.4
165,23,1,2,5,40,240,324.9709794521332,325.74395160749555,"[89, 0, 165]",165,l,0.2558400481939316,colour,0.4
165,23,1,2,5,41,241,326.25582508184016,327.0639279130846,"[41, 0, 213]",213,a,0.28698657639324665,colour,0.4
165,23,1,2,5,42,242,327.5777001194656,328.19997888989747,"[79, 0, 175]",175,l,0.08049623109400272,colour,0.4
165,23,1,2,5,43,243,328.7157159950584,329.4479794315994,"[37, 0, 217]",217,a,0.2101704441010952,colour,0.4
165,23,1,2,5,44,244,329.9658381845802,330.71992345154285,"[10, 0, 244]",244,a,0.2320036944001913,colour,0.4
165,23,1,2,5,45,245,331.23153935186565,331.88793306797743,"[97, 0, 157]",157,l,0.1342207733541727,colour,0.4
165,23,1,2,5,46,246,332.3991649672389,333.1519410908222,"[59, 0, 195]",195,a,0.23064256459474564,colour,0.4
165,23,1,2,5,47,247,333.6648901589215,334.3679373059422,"[96, 0, 158]",158,l,0.18082300387322903,colour,0.4
165,23,1,2,5,48,248,334.88372876122594,335.51197114773095,"[50, 0, 204]",204,a,0.10637388564646244,colour,0.4
165,23,1,2,5,49,249,336.0242877006531,336.81601362489164,"[16, 0, 238]",238,a,0.2697144579142332,colour,0.4
165,23,1,2,5,50,250,337.32138863764703,338.0479814801365,"[68, 0, 186]",186,l,0.20473497547209263,colour,0.4
165,23,1,2,6,1,251,344.8721236921847,345.6399738807231,"[99, 0, 155]",155,l,0.25036243721842766,colour,0.28
165,23,1,2,6,2,252,346.15925638750196,346.7839840911329,"[76, 0, 178]",178,l,0.10625573247671127,colour,0.28
165,23,1,2,6,3,253,347.2948032412678,347.8319458793849,"[53, 0, 201]",201,a,0.023071110248565674,colour,0.28
165,23,1,2,6,4,254,348.3424991816282,348.87215362489223,"[33, 0, 221]",221,a,0.008366471156477928,colour,0.28
165,23,1,2,6,5,255,349.3966817688197,349.9679637718946,"[82, 0, 172]",172,l,0.05636843107640743,colour,0.28
165,23,1,2,6,6,256,350.4771047439426,351.03195115737617,"[87, 0, 167]",167,l,0.03885764256119728,colour,0.28
165,23,1,2,6,7,257,351.5420625638217,352.0959542952478,"[64, 0, 190]",190,a,0.03750714287161827,colour,0.28
165,23,1,2,6,8,258,352.6084520164877,353.1999698318541,"[75, 0, 179]",179,a,0.07536914199590683,colour,0.28
165,23,1,2,6,9,259,353.7211873047054,354.33596094325185,"[36, 0, 218]",218,a,0.09808775968849659,colour,0.28
165,23,1,2,6,10,260,354.8509477712214,355.44793453253806,"[79, 0, 175]",175,a,0.07958211190998554,colour,0.28
165,23,1,2,6,11,261,355.9655656442046,356.5359488911927,"[65, 0, 189]",189,a,0.05391831509768963,colour,0.28
165,23,1,2,6,12,262,357.05620183609426,357.671966785565,"[15, 0, 239]",239,a,0.09841386415064335,colour,0.28
165,23,1,2,6,13,263,358.1855345852673,358.72798114828765,"[55, 0, 199]",199,a,0.020426826551556587,colour,0.28
165,23,1,2,6,14,264,359.2406946979463,359.84000081941485,"[11, 0, 243]",243,a,0.0839935839176178,colour,0.28
165,23,1,2,6,15,265,360.35244852118194,360.8721981290728,"[57, 0, 197]",197,a,0.004094816744327545,colour,0.28
165,23,1,2,6,16,266,361.401317730546,362.04795548692346,"[80, 0, 174]",174,l,0.13087662681937218,colour,0.28
165,23,1,2,6,17,267,362.5583776384592,363.1279861908406,"[10, 0, 244]",244,a,0.052281491458415985,colour,0.28
165,23,1,2,6,18,268,363.64035669900477,364.2639280706644,"[89, 0, 165]",165,l,0.10729548521339893,colour,0.28
165,23,1,2,6,19,269,364.7844027504325,365.3439481407404,"[72, 0, 182]",182,a,0.04288353584706783,colour,0.28
165,23,1,2,6,20,270,365.8520552664995,366.5119286123663,"[68, 0, 186]",186,a,0.1440799217671156,colour,0.28
165,23,1,2,6,21,271,367.02658027783036,367.64796107821167,"[96, 0, 158]",158,l,0.0979703925549984,colour,0.28
165,23,1,2,6,22,272,368.16557407192886,368.7359356582165,"[51, 0, 203]",203,a,0.054509084671735764,colour,0.28
165,23,1,2,6,23,273,369.25477587617934,369.8719444926828,"[71, 0, 183]",183,l,0.10111485980451107,colour,0.28
165,23,1,2,6,24,274,370.38232686556876,370.9519515670836,"[59, 0, 195]",195,a,0.05344885215163231,colour,0.28
165,23,1,2,6,25,275,371.4617703463882,372.04793933779,"[1, 0, 253]",253,a,0.06992067582905293,colour,0.28
165,23,1,2,6,26,276,372.55800624005497,373.08001376874745,"[42, 0, 212]",212,a,0.004446128383278847,colour,0.28
165,23,1,2,6,27,277,373.59504510089755,374.25595111213624,"[58, 0, 196]",196,a,0.1445356011390686,colour,0.28
165,23,1,2,6,28,278,374.7698879465461,375.28835085965693,"[63, 0, 191]",191,a,0.0018841587007045746,colour,0.28
165,23,1,2,6,29,279,375.8217566870153,376.3759512864053,"[70, 0, 184]",184,a,0.03704279847443104,colour,0.28
165,23,1,2,6,30,280,376.88896021805704,377.4959593359381,"[85, 0, 169]",169,l,0.08098774962127209,colour,0.28
165,23,1,2,6,31,281,378.00865949317813,378.6319236662239,"[61, 0, 193]",193,a,0.06580774113535881,colour,0.28
165,23,1,2,6,32,282,379.14862805604935,379.8159663621336,"[95, 0, 159]",159,l,0.14509013667702675,colour,0.28
165,23,1,2,6,33,283,380.3362145796418,380.97591001167893,"[77, 0, 177]",177,a,0.1173724327236414,colour,0.28
165,23,1,2,6,34,284,381.4926482718438,382.09594878181815,"[91, 0, 163]",163,l,0.08119215629994869,colour,0.28
165,23,1,2,6,35,285,382.60209573432803,383.2799158580601,"[28, 0, 226]",226,a,0.16165530309081078,colour,0.28
165,23,1,2,6,36,286,383.7999781817198,384.4319101180881,"[14, 0, 240]",240,a,0.11058843322098255,colour,0.28
165,23,1,2,6,37,287,384.9399821907282,385.52796878293157,"[56, 0, 198]",198,a,0.06581837497651577,colour,0.28
165,23,1,2,6,38,288,386.0337541848421,386.6879069171846,"[81, 0, 173]",173,l,0.13226690329611301,colour,0.28
165,23,1,2,6,39,289,387.2057262863964,388.4879449624568,"[32, 0, 222]",222,a,0.7600138317793608,colour,0.28
165,23,1,2,6,40,290,389.00281993858516,389.75995278544724,"[93, 0, 161]",161,l,0.2418545726686716,colour,0.28
165,23,1,2,6,41,291,390.28282126039267,390.94393522292376,"[74, 0, 180]",180,a,0.14387472718954086,colour,0.28
165,23,1,2,6,42,292,391.45700599066913,392.07994366437197,"[86, 0, 168]",168,l,0.10766727663576603,colour,0.28
165,23,1,2,6,43,293,392.5978961531073,393.16796274855733,"[60, 0, 194]",194,a,0.054197946563363075,colour,0.28
165,23,1,2,6,44,294,393.6808554958552,394.3679416384548,"[22, 0, 232]",232,a,0.16892097517848015,colour,0.28
165,23,1,2,6,45,295,394.88941511139274,395.4319944009185,"[48, 0, 206]",206,a,0.025458604097366333,colour,0.28
165,23,1,2,6,46,296,395.9414925891906,396.5679335258901,"[94, 0, 160]",160,l,0.10912293381989002,colour,0.28
165,23,1,2,6,47,297,397.0860033798963,397.6479134224355,"[54, 0, 200]",200,a,0.03391447849571705,colour,0.28
165,23,1,2,6,48,298,398.155096584931,399.2559101525694,"[92, 0, 162]",162,l,0.5846767090260983,colour,0.28
165,23,1,2,6,49,299,399.7699166983366,400.3279473576695,"[9, 0, 245]",245,a,0.03571041859686375,colour,0.28
165,23,1,2,6,50,300,400.84814988821745,401.55993490479887,"[24, 0, 230]",230,a,0.1902638878673315,colour,0.28
165,23,1,2,7,1,301,406.5076514445245,407.0959160923958,"[77, 0, 177]",177,l,0.06526935286819935,colour,0.14
165,23,1,2,7,2,302,407.602137086913,408.6799063272774,"[9, 0, 245]",245,a,0.5654597766697407,colour,0.14
165,23,1,2,7,3,303,409.2022119965404,409.9119198694825,"[67, 0, 187]",187,a,0.19317126087844372,colour,0.14
165,23,1,2,7,4,304,410.4238858986646,411.007952934131,"[57, 0, 197]",197,a,0.06685537099838257,colour,0.14
165,23,1,2,7,5,305,411.52147386595607,412.0559383518994,"[78, 0, 176]",176,a,0.018069658428430557,colour,0.14
165,23,1,2,7,6,306,412.57139228098094,413.2159398961812,"[12, 0, 242]",242,a,0.12847022712230682,colour,0.14
165,23,1,2,7,7,307,413.73029814474285,415.311908762902,"[83, 0, 171]",171,l,1.0642020292580128,colour,0.14
165,23,1,2,7,8,308,415.8218216728419,416.46394358947873,"[93, 0, 161]",161,l,0.12548251077532768,colour,0.14
165,23,1,2,7,9,309,416.98569354228675,417.5759345088154,"[98, 0, 156]",156,l,0.07521790638566017,colour,0.14
165,23,1,2,7,10,310,418.090658640489,418.76794628612697,"[54, 0, 200]",200,a,0.1614985540509224,colour,0.14
165,23,1,2,7,11,311,419.28584521077573,419.94392143934965,"[62, 0, 192]",192,a,0.12755611166357994,colour,0.14
165,23,1,2,7,12,312,420.458305682987,421.0559060573578,"[71, 0, 183]",183,a,0.08169588632881641,colour,0.14
165,23,1,2,7,13,313,421.57049470581114,422.1519588138908,"[92, 0, 162]",162,l,0.05124685913324356,colour,0.14
165,23,1,2,7,14,314,422.6655982937664,423.31191309541464,"[81, 0, 173]",173,a,0.13124211505055428,colour,0.14
165,23,1,2,7,15,315,423.82423713058233,424.37595601193607,"[29, 0, 225]",225,a,0.03485852852463722,colour,0.14
165,23,1,2,7,16,316,424.89069432392716,425.5119475182146,"[49, 0, 205]",205,a,0.10383161157369614,colour,0.14
165,23,1,2,7,17,317,426.0190160702914,426.59190417826176,"[27, 0, 227]",227,a,0.057027336210012436,colour,0.14
165,23,1,2,7,18,318,427.1017422564328,427.64791933074594,"[58, 0, 196]",196,a,0.023777669295668602,colour,0.14
165,23,1,2,7,19,319,428.1644405834377,428.8879488222301,"[56, 0, 198]",198,a,0.20442895591259003,colour,0.14
165,23,1,2,7,20,320,429.3992791827768,429.95991749688983,"[59, 0, 195]",195,a,0.031331636011600494,colour,0.14
165,23,1,2,7,21,321,430.47798341326416,431.2239389102906,"[80, 0, 174]",174,l,0.22972608357667923,colour,0.14
165,23,1,2,7,22,322,431.7453852072358,433.01594052650034,"[42, 0, 212]",212,a,0.7540675438940525,colour,0.14
165,23,1,2,7,23,323,433.5247754789889,434.1679170615971,"[95, 0, 159]",159,l,0.12629304453730583,colour,0.14
165,23,1,2,7,24,324,434.6845072377473,435.2159261107445,"[69, 0, 185]",185,a,0.01487635262310505,colour,0.14
165,23,1,2,7,25,325,435.73660125769675,436.3520015068352,"[52, 0, 202]",202,a,0.09984943270683289,colour,0.14
165,23,1,2,7,26,326,436.8663853555918,437.4799546133727,"[85, 0, 169]",169,l,0.0966848786920309,colour,0.14
165,23,1,2,7,27,327,437.99980228953063,439.1919141039252,"[90, 0, 164]",164,l,0.6670515853911638,colour,0.14
165,23,1,2,7,28,328,439.7042913082987,440.2799221612513,"[50, 0, 204]",204,a,0.060854339972138405,colour,0.14
165,23,1,2,7,29,329,440.7989947479218,441.40795049257576,"[88, 0, 166]",166,l,0.08012877218425274,colour,0.14
165,23,1,2,7,30,330,441.923029480502,442.45593787916005,"[65, 0, 189]",189,a,0.018269730731844902,colour,0.14
165,23,1,2,7,31,331,442.9714524615556,443.5199512578547,"[55, 0, 199]",199,a,0.018715566024184227,colour,0.14
165,23,1,2,7,32,332,444.0356600061059,444.639927405864,"[51, 0, 203]",203,a,0.08643779158592224,colour,0.14
165,23,1,2,7,33,333,445.1499706786126,445.67228698171675,"[60, 0, 194]",194,a,0.005884848535060883,colour,0.14
165,23,1,2,7,34,334,446.2017275672406,446.72001639939845,"[89, 0, 165]",165,l,0.0013469532132148743,colour,0.14
165,23,1,2,7,35,335,447.2365754619241,448.279891833663,"[86, 0, 168]",168,l,0.5270790830254555,colour,0.14
165,23,1,2,7,36,336,448.7916152533144,449.3919473439455,"[61, 0, 193]",193,a,0.08435080200433731,colour,0.14
165,23,1,2,7,37,337,449.8997106421739,450.48792645148933,"[79, 0, 175]",175,l,0.07246177084743977,colour,0.14
165,23,1,2,7,38,338,450.99582405015826,451.7119405865669,"[91, 0, 163]",163,a,0.19989736378192902,colour,0.14
165,23,1,2,7,39,339,452.2317622676492,452.87991436198354,"[82, 0, 172]",172,a,0.13240081071853638,colour,0.14
165,23,1,2,7,40,340,453.3905613999814,453.92795176804066,"[76, 0, 178]",178,a,0.021470125764608383,colour,0.14
165,23,1,2,7,41,341,454.4393833465874,455.08791904710233,"[70, 0, 184]",184,a,0.13049026392400265,colour,0.14
165,23,1,2,7,42,342,455.60143998079,456.47192566655576,"[75, 0, 179]",179,a,0.3540660459548235,colour,0.14
165,23,1,2,7,43,343,456.9927469305694,457.743920493871,"[41, 0, 213]",213,a,0.2339433878660202,colour,0.14
165,23,1,2,7,44,344,458.2523935008794,458.8879377953708,"[74, 0, 180]",180,a,0.12377558276057243,colour,0.14
165,23,1,2,7,45,345,459.4075838215649,460.055928112939,"[97, 0, 157]",157,l,0.12316157668828964,colour,0.14
165,23,1,2,7,46,346,460.5752551238984,461.1919113472104,"[66, 0, 188]",188,a,0.10009716264903545,colour,0.14
165,23,1,2,7,47,347,461.7012165505439,462.3119103386998,"[96, 0, 158]",158,l,0.09532492980360985,colour,0.14
165,23,1,2,7,48,348,462.8272977080196,463.4959762711078,"[72, 0, 182]",182,a,0.1535542830824852,colour,0.14
165,23,1,2,7,49,349,464.01728629879653,464.8239165395498,"[68, 0, 186]",186,a,0.29052804224193096,colour,0.14
165,23,1,2,7,50,350,465.3323249556124,466.0238914899528,"[87, 0, 167]",167,l,0.17550096102058887,colour,0.14
165,23,1,2,8,1,351,471.0260414965451,471.6719262190163,"[82, 0, 172]",172,l,0.13062220253050327,colour,0.06
165,23,1,2,8,2,352,472.18370359390974,473.4158986993134,"[50, 0, 204]",204,a,0.7150133717805147,colour,0.06
165,23,1,2,8,3,353,473.9338287394494,474.4559465441853,"[32, 0, 222]",222,a,0.005445709452033043,colour,0.06
165,23,1,2,8,4,354,474.9846510309726,475.5039630755782,"[54, 0, 200]",200,a,0.002812059596180916,colour,0.06
165,23,1,2,8,5,355,476.0213307030499,476.6239305604249,"[73, 0, 181]",181,l,0.08750629611313343,colour,0.06
165,23,1,2,8,6,356,477.1336252782494,478.1999103613198,"[80, 0, 174]",174,l,0.5500722117722034,colour,0.06
165,23,1,2,8,7,357,478.7071860767901,479.4639002662152,"[77, 0, 177]",177,l,0.2396403718739748,colour,0.06
165,23,1,2,8,8,358,479.9762372970581,480.74391931295395,"[52, 0, 202]",202,a,0.24533814378082752,colour,0.06
165,23,1,2,8,9,359,481.2575922701508,482.0159082300961,"[71, 0, 183]",183,a,0.23595003224909306,colour,0.06
165,23,1,2,8,10,360,482.5233147032559,483.27988553233445,"[96, 0, 158]",158,l,0.234317934140563,colour,0.06
165,23,1,2,8,11,361,483.7769460622221,484.42393158376217,"[76, 0, 178]",178,a,0.12467000633478165,colour,0.06
165,23,1,2,8,12,362,484.933328948915,485.58390477113426,"[67, 0, 187]",187,a,0.12837688624858856,colour,0.06
165,23,1,2,8,13,363,486.08962400630116,486.77593033388257,"[61, 0, 193]",193,a,0.16410384513437748,colour,0.06
165,23,1,2,8,14,364,487.29283086024225,487.95990568213165,"[97, 0, 157]",157,l,0.1450460273772478,colour,0.06
165,23,1,2,8,15,365,488.480405960232,489.14392514154315,"[65, 0, 189]",189,a,0.13969562761485577,colour,0.06
165,23,1,2,8,16,366,489.6639693453908,490.3519357331097,"[98, 0, 156]",156,l,0.16709707491099834,colour,0.06
165,23,1,2,8,17,367,490.87271879427135,491.6239589173347,"[86, 0, 168]",168,l,0.2215313296765089,colour,0.06
165,23,1,2,8,18,368,492.1367335114628,492.74392797611654,"[90, 0, 164]",164,l,0.0917688924819231,colour,0.06
165,23,1,2,8,19,369,493.2635708525777,493.95191572606564,"[95, 0, 159]",159,l,0.17349943704903126,colour,0.06
165,23,1,2,8,20,370,494.46871345862746,495.1599294692278,"[64, 0, 190]",190,a,0.17332417331635952,colour,0.06
165,23,1,2,8,21,371,495.6771068703383,496.40802492946386,"[84, 0, 170]",170,l,0.21287931874394417,colour,0.06
165,23,1,2,8,22,372,496.91734864376485,497.5998961031437,"[29, 0, 225]",225,a,0.1658946629613638,colour,0.06
165,23,1,2,8,23,373,498.12264288030565,498.82395513541996,"[58, 0, 196]",196,a,0.18505251593887806,colour,0.06
165,23,1,2,8,24,374,499.3322308268398,499.9519220273942,"[57, 0, 197]",197,a,0.09028606116771698,colour,0.06
165,23,1,2,8,25,375,500.4732419010252,501.07193244062364,"[66, 0, 188]",188,a,0.0830861609429121,colour,0.06
165,23,1,2,8,26,376,501.58553293161094,502.3118910398334,"[83, 0, 171]",171,l,0.21094750240445137,colour,0.06
165,23,1,2,8,27,377,502.8215916659683,503.52788252942264,"[69, 0, 185]",185,a,0.19009295850992203,colour,0.06
165,23,1,2,8,28,378,504.0430536773056,504.8399082645774,"[88, 0, 166]",166,l,0.2804881166666746,colour,0.06
165,23,1,2,8,29,379,505.35806319117546,506.143930260092,"[70, 0, 184]",184,a,0.2693556621670723,colour,0.06
165,23,1,2,8,30,380,506.657335402444,507.4638900253922,"[60, 0, 194]",194,a,0.28981518000364304,colour,0.06
165,23,1,2,8,31,381,507.97191483713686,508.9919426962733,"[68, 0, 186]",186,a,0.5039071496576071,colour,0.06
165,23,1,2,8,32,382,509.49957366101444,510.319901868701,"[56, 0, 198]",198,a,0.29341690242290497,colour,0.06
165,23,1,2,8,33,383,510.8378968928009,511.42390755936503,"[72, 0, 182]",182,a,0.070588244125247,colour,0.06
165,23,1,2,8,34,384,511.93304341100156,512.5360788609833,"[92, 0, 162]",162,l,0.08681076392531395,colour,0.06
165,23,1,2,8,35,385,513.0446389075369,513.711879145354,"[75, 0, 179]",179,a,0.13738256879150867,colour,0.06
165,23,1,2,8,36,386,514.2325944658369,514.9998897239566,"[55, 0, 199]",199,a,0.2508299332112074,colour,0.06
165,23,1,2,8,37,387,515.5153495594859,516.0879210159183,"[62, 0, 192]",192,a,0.0561289731413126,colour,0.06
165,23,1,2,8,38,388,516.5972994770855,517.3039081748575,"[53, 0, 201]",201,a,0.1908775009214878,colour,0.06
165,23,1,2,8,39,389,517.8182880859822,518.36793888174,"[10, 0, 244]",244,a,0.032748300582170486,colour,0.06
165,23,1,2,8,40,390,518.8861804530025,519.5438896156847,"[51, 0, 203]",203,a,0.13531054556369781,colour,0.06
165,23,1,2,8,41,391,520.0640795435756,520.7678923290223,"[85, 0, 169]",169,l,0.1880213301628828,colour,0.06
165,23,1,2,8,42,392,521.283342320472,521.8478990085423,"[91, 0, 163]",163,l,0.04883139953017235,colour,0.06
165,23,1,2,8,43,393,522.3635581322014,523.0399418994784,"[94, 0, 160]",160,l,0.15851044282317162,colour,0.06
165,23,1,2,8,44,394,523.5552205685526,524.2319398932159,"[87, 0, 167]",167,l,0.158250505104661,colour,0.06
165,23,1,2,8,45,395,524.749429218471,525.383936515078,"[63, 0, 191]",191,a,0.11756344698369503,colour,0.06
165,23,1,2,8,46,396,525.8945555891842,526.7358813080937,"[93, 0, 161]",161,a,0.3243960477411747,colour,0.06
165,23,1,2,8,47,397,527.2557711247355,527.927894661203,"[81, 0, 173]",173,l,0.15573894791305065,colour,0.06
165,23,1,2,8,48,398,528.446191765368,529.2079243399203,"[59, 0, 195]",195,a,0.23713944852352142,colour,0.06
165,23,1,2,8,49,399,529.7218690514565,530.4879347216338,"[89, 0, 165]",165,l,0.2451065592467785,colour,0.06
165,23,1,2,8,50,400,531.0088260900229,531.6159079149365,"[74, 0, 180]",180,a,0.09064958058297634,colour,0.06
165,23,1,2,9,1,401,536.7362586129457,538.0318944435567,"[67, 0, 187]",187,a,0.7777534481137991,colour,0.06
165,23,1,2,9,2,402,538.547869823873,539.5679169837385,"[72, 0, 182]",182,a,0.49800930544734,colour,0.06
165,23,1,2,9,3,403,540.0895948633552,540.9599037133157,"[61, 0, 193]",193,a,0.3418749365955591,colour,0.06
165,23,1,2,9,4,404,541.4777148105204,542.2639213763177,"[80, 0, 174]",174,l,0.26933872886002064,colour,0.06
165,23,1,2,9,5,405,542.7755924127996,543.5358846951276,"[89, 0, 165]",165,l,0.2451057732105255,colour,0.06
165,23,1,2,9,6,406,544.0557213425636,544.735913997516,"[81, 0, 173]",173,l,0.1634283997118473,colour,0.06
165,23,1,2,9,7,407,545.2469395212829,545.9599289186299,"[54, 0, 200]",200,a,0.19642600417137146,colour,0.06
165,23,1,2,9,8,408,546.4685964863747,547.2159198094159,"[82, 0, 172]",172,l,0.22982887737452984,colour,0.06
165,23,1,2,9,9,409,547.7366847526282,548.4479282312095,"[64, 0, 190]",190,a,0.1955473329871893,colour,0.06
165,23,1,2,9,10,410,548.9641895461828,549.6718895900995,"[59, 0, 195]",195,a,0.18344483710825443,colour,0.06
165,23,1,2,9,11,411,550.1926415376365,550.9199090376496,"[94, 0, 160]",160,l,0.20454750396311283,colour,0.06
165,23,1,2,9,12,412,551.4368741549551,552.0879202280194,"[53, 0, 201]",201,a,0.13537119701504707,colour,0.06
165,23,1,2,9,13,413,552.595062430948,553.3278922177851,"[97, 0, 157]",157,l,0.2175479680299759,colour,0.06
165,23,1,2,9,14,414,553.8451696559787,554.5599026102573,"[92, 0, 162]",162,l,0.19875166565179825,colour,0.06
165,23,1,2,9,15,415,555.0832779649645,555.8239248096943,"[90, 0, 164]",164,l,0.22315279208123684,colour,0.06
165,23,1,2,9,16,416,556.3375977668911,557.0958948247135,"[87, 0, 167]",167,l,0.24183212593197823,colour,0.06
165,23,1,2,9,17,417,557.6051200777292,558.3278961572796,"[86, 0, 168]",168,l,0.205324562266469,colour,0.06
165,23,1,2,9,18,418,558.8393990229815,559.5759175736457,"[69, 0, 185]",185,a,0.21562324464321136,colour,0.06
165,23,1,2,9,19,419,560.097035009414,560.8079137858003,"[66, 0, 188]",188,a,0.18294189684092999,colour,0.06
165,23,1,2,9,20,420,561.3215296361595,562.0078808609396,"[88, 0, 166]",166,l,0.1641172356903553,colour,0.06
165,23,1,2,9,21,421,562.5247416067868,563.1919085904956,"[4, 0, 250]",250,a,0.144927479326725,colour,0.06
165,23,1,2,9,22,422,563.7123635765165,564.4159109089524,"[93, 0, 161]",161,l,0.1814035326242447,colour,0.06
165,23,1,2,9,23,423,564.9235032759607,565.6078864522278,"[65, 0, 189]",189,a,0.16219920478761196,colour,0.06
165,23,1,2,9,24,424,566.1267187930644,566.9038692619652,"[58, 0, 196]",196,a,0.25488497130572796,colour,0.06
165,23,1,2,9,25,425,567.4237133935094,568.2959142811596,"[79, 0, 175]",175,a,0.349999587982893,colour,0.06
165,23,1,2,9,26,426,568.8143823128194,569.583894925192,"[85, 0, 169]",169,a,0.24716361984610558,colour,0.06
165,23,1,2,9,27,427,570.0934391934425,570.7118724510074,"[98, 0, 156]",156,l,0.0930792186409235,colour,0.06
165,23,1,2,9,28,428,571.2301065400243,571.8318836521357,"[57, 0, 197]",197,a,0.08559496141970158,colour,0.06
165,23,1,2,9,29,429,572.3425113912672,572.927897810936,"[50, 0, 204]",204,a,0.0671558752655983,colour,0.06
165,23,1,2,9,30,430,573.4391726404428,573.999913353473,"[74, 0, 180]",180,a,0.04560068063437939,colour,0.06
165,23,1,2,9,31,431,574.5189083535224,575.1038780845702,"[84, 0, 170]",170,a,0.06881121173501015,colour,0.06
165,23,1,2,9,32,432,575.6168397553265,576.2879156600684,"[56, 0, 198]",198,a,0.15508713200688362,colour,0.06
165,23,1,2,9,33,433,576.8071004934609,577.3438977301121,"[83, 0, 171]",171,l,0.020588697865605354,colour,0.06
165,23,1,2,9,34,434,577.8578700087965,578.6078951172531,"[55, 0, 199]",199,a,0.23401073552668095,colour,0.06
165,23,1,2,9,35,435,579.1209221668541,579.8639096394181,"[99, 0, 155]",155,l,0.2301423791795969,colour,0.06
165,23,1,2,9,36,436,580.3851523175836,581.0478688403964,"[95, 0, 159]",159,l,0.1481778919696808,colour,0.06
165,23,1,2,9,37,437,581.5650690831244,582.1998548284173,"[60, 0, 194]",194,a,0.11263367719948292,colour,0.06
165,23,1,2,9,38,438,582.7056650426239,583.3118894640356,"[51, 0, 203]",203,a,0.08388015441596508,colour,0.06
165,23,1,2,9,39,439,583.8308781627566,584.5038610696793,"[73, 0, 181]",181,l,0.1510305181145668,colour,0.06
165,23,1,2,9,40,440,585.0089399125427,585.5759226921946,"[78, 0, 176]",176,l,0.04559595324099064,colour,0.06
165,23,1,2,9,41,441,586.0871246606112,586.6159114595503,"[76, 0, 178]",178,l,0.006537843495607376,colour,0.06
165,23,1,2,9,42,442,587.1340652052313,588.2398865260184,"[91, 0, 163]",163,l,0.5838413629680872,colour,0.06
165,23,1,2,9,43,443,588.7591359484941,589.3759008739144,"[96, 0, 158]",158,l,0.09446831420063972,colour,0.06
165,23,1,2,9,44,444,589.8846507556736,590.5599124561995,"[63, 0, 191]",191,a,0.1164382304996252,colour,0.06
165,23,1,2,9,45,445,591.0695429779589,591.6639102697372,"[62, 0, 192]",192,a,0.07731986232101917,colour,0.06
165,23,1,2,9,46,446,592.1819423157722,592.9279017504305,"[23, 0, 231]",231,a,0.2142026424407959,colour,0.06
165,23,1,2,9,47,447,593.4501983597875,594.1278822142631,"[39, 0, 215]",215,a,0.1616281270980835,colour,0.06
165,23,1,2,9,48,448,594.6384619046003,595.3999341484159,"[68, 0, 186]",186,a,0.2444015759974718,colour,0.06
165,23,1,2,9,49,449,595.9079727437347,596.503878004849,"[70, 0, 184]",184,a,0.07947301678359509,colour,0.06
165,23,1,2,9,50,450,597.0206631347537,597.5758762191981,"[77, 0, 177]",177,a,0.037862787023186684,colour,0.06
165,23,1,2,10,1,451,602.40130433999,603.0079249702394,"[92, 0, 162]",162,a,0.08997374214231968,colour,0.06
165,23,1,2,10,2,452,603.5287253614515,604.0559836439788,"[59, 0, 195]",195,a,0.011210829019546509,colour,0.06
165,23,1,2,10,3,453,604.5788119472563,605.1359470002353,"[7, 0, 247]",247,a,0.03959531523287296,colour,0.06
165,23,1,2,10,4,454,605.6480181869119,606.279905224219,"[55, 0, 199]",199,a,0.11559579148888588,colour,0.06
165,23,1,2,10,5,455,606.7919795606285,607.4238894432783,"[93, 0, 161]",161,l,0.11465843953192234,colour,0.06
165,23,1,2,10,6,456,607.9383918400854,608.6238754224032,"[85, 0, 169]",169,l,0.16997884772717953,colour,0.06
165,23,1,2,10,7,457,609.1434068400413,609.7919051237404,"[52, 0, 202]",202,a,0.1300716046243906,colour,0.06
165,23,1,2,10,8,458,610.3020815160125,611.031866479665,"[94, 0, 160]",160,l,0.20752537436783314,colour,0.06
165,23,1,2,10,9,459,611.5433701332659,612.2958882860839,"[95, 0, 159]",159,l,0.237649479880929,colour,0.06
165,23,1,2,10,10,460,612.8076794464141,613.5759329330176,"[87, 0, 167]",167,l,0.25089531019330025,colour,0.06
165,23,1,2,10,11,461,614.0926062092185,614.6639157831669,"[71, 0, 183]",183,a,0.0549497976899147,colour,0.06
165,23,1,2,10,12,462,615.1734313014895,615.8318690788001,"[84, 0, 170]",170,l,0.14125171303749084,colour,0.06
165,23,1,2,10,13,463,616.3496230691671,617.1039993893355,"[96, 0, 158]",158,l,0.23716898821294308,colour,0.06
165,23,1,2,10,14,464,617.6191157922149,618.2638882920146,"[76, 0, 178]",178,a,0.12785779498517513,colour,0.06
165,23,1,2,10,15,465,618.7792886588722,619.4321468193084,"[73, 0, 181]",181,a,0.13283994980156422,colour,0.06
165,23,1,2,10,16,466,619.9403287749738,620.707401510328,"[21, 0, 233]",233,a,0.25188898481428623,colour,0.06
165,23,1,2,10,17,467,621.2245686706156,621.8798722214997,"[83, 0, 171]",171,a,0.1331341527402401,colour,0.06
165,23,1,2,10,18,468,622.3965057190508,623.0239352080971,"[80, 0, 174]",174,a,0.10524945706129074,colour,0.06
165,23,1,2,10,19,469,623.5372328292578,624.1519013121724,"[90, 0, 164]",164,l,0.09244630858302116,colour,0.06
165,23,1,2,10,20,470,624.6622958946973,625.2639048341662,"[79, 0, 175]",175,l,0.09120333008468151,colour,0.06
165,23,1,2,10,21,471,625.7758590467274,626.3999077621847,"[64, 0, 190]",190,a,0.10228537209331989,colour,0.06
165,23,1,2,10,22,472,626.9165428355336,627.5439396351576,"[78, 0, 176]",176,a,0.10526914894580841,colour,0.06
165,23,1,2,10,23,473,628.0572916064411,628.6079167779535,"[66, 0, 188]",188,a,0.028316350653767586,colour,0.06
165,23,1,2,10,24,474,629.1197969485074,629.7199281789362,"[58, 0, 196]",196,a,0.07839466817677021,colour,0.06
165,23,1,2,10,25,475,630.2310663424432,630.8479143679142,"[91, 0, 163]",163,l,0.10011724755167961,colour,0.06
165,23,1,2,10,26,476,631.3622308708727,632.1518847700208,"[62, 0, 192]",192,a,0.26739982329308987,colour,0.06
165,23,1,2,10,27,477,632.659210504964,633.38388492167,"[54, 0, 200]",200,a,0.2024561818689108,colour,0.06
165,23,1,2,10,28,478,633.8936702236533,634.4718980975449,"[72, 0, 182]",182,a,0.055952923372387886,colour,0.06
165,23,1,2,10,29,479,634.9874886926264,635.6398911718279,"[69, 0, 185]",185,a,0.12689838744699955,colour,0.06
165,23,1,2,10,30,480,636.1470956020057,636.7678631842136,"[70, 0, 184]",184,a,0.09847293980419636,colour,0.06
165,23,1,2,10,31,481,637.2878487072885,637.9119308982044,"[75, 0, 179]",179,a,0.10175958648324013,colour,0.06
165,23,1,2,10,32,482,638.42840882577,638.9758922886103,"[74, 0, 180]",180,a,0.02503640204668045,colour,0.06
165,23,1,2,10,33,483,639.4911256637424,640.0958995502442,"[61, 0, 193]",193,a,0.08234573155641556,colour,0.06
165,23,1,2,10,34,484,640.6151383407414,641.2558821905404,"[98, 0, 156]",156,l,0.11560957878828049,colour,0.06
165,23,1,2,10,35,485,641.7659376710653,642.5519197434187,"[89, 0, 165]",165,l,0.2701484765857458,colour,0.06
165,23,1,2,10,36,486,643.064200848341,643.7679013870656,"[63, 0, 191]",191,a,0.18668264523148537,colour,0.06
165,23,1,2,10,37,487,644.2854927200824,644.8878960460424,"[97, 0, 157]",157,l,0.08597896061837673,colour,0.06
165,23,1,2,10,38,488,645.3976092748344,646.4078744798899,"[86, 0, 168]",168,l,0.49436977319419384,colour,0.06
165,23,1,2,10,39,489,646.9280797690153,647.5998768042773,"[68, 0, 186]",186,a,0.1552832666784525,colour,0.06
165,23,1,2,10,40,490,648.1190884187818,648.8398550953716,"[60, 0, 194]",194,a,0.2031914908438921,colour,0.06
165,23,1,2,10,41,491,649.3570163473487,650.2398743163794,"[77, 0, 177]",177,l,0.35783082246780396,colour,0.06
165,23,1,2,10,42,492,650.7490586098284,651.3839002810419,"[57, 0, 197]",197,a,0.10586267337203026,colour,0.06
165,23,1,2,10,43,493,651.9038054589182,652.5919057540596,"[50, 0, 204]",204,a,0.17191775143146515,colour,0.06
165,23,1,2,10,44,494,653.1091024521738,653.7678753938526,"[82, 0, 172]",172,a,0.14177040942013264,colour,0.06
165,23,1,2,10,45,495,654.2827976308763,654.983864126727,"[51, 0, 203]",203,a,0.1851624008268118,colour,0.06
165,23,1,2,10,46,496,655.5034979432821,656.8558649383485,"[67, 0, 187]",187,a,0.8376215938478708,colour,0.06
165,23,1,2,10,47,497,657.3751821052283,658.6958767864853,"[53, 0, 201]",201,a,0.8034456018358469,colour,0.06
165,23,1,2,10,48,498,659.2173274159431,659.8079027570784,"[88, 0, 166]",166,l,0.062220195308327675,colour,0.06
165,23,1,2,10,49,499,660.3146845903248,660.9198818616569,"[44, 0, 210]",210,a,0.08991939201951027,colour,0.06
165,23,1,2,10,50,500,661.4380167014897,662.0158830247819,"[81, 0, 173]",173,l,0.06249510124325752,colour,0.06
165,23,1,2,11,1,501,666.4516807980835,667.0878631211817,"[85, 0, 169]",169,l,0.11767923831939697,colour,0.06
165,23,1,2,11,2,502,667.5974538642913,668.6558750215918,"[88, 0, 166]",166,l,0.5415513515472412,colour,0.06
165,23,1,2,11,3,503,669.1743788942695,669.9118588231504,"[92, 0, 162]",162,l,0.22022494114935398,colour,0.06
165,23,1,2,11,4,504,670.4220872037113,671.1621294934303,"[54, 0, 200]",200,a,0.22401216439902782,colour,0.06
165,23,1,2,11,5,505,671.6757863033563,672.3598642498255,"[95, 0, 159]",159,l,0.1617281660437584,colour,0.06
165,23,1,2,11,6,506,672.8790908306837,673.6638984531164,"[86, 0, 168]",168,l,0.262527160346508,colour,0.06
165,23,1,2,11,7,507,674.1761133931577,674.919893283397,"[68, 0, 186]",186,a,0.22151675634086132,colour,0.06
165,23,1,2,11,8,508,675.4139318317175,676.1438633073121,"[93, 0, 161]",161,l,0.2077404148876667,colour,0.06
165,23,1,2,11,9,509,676.6639740727842,677.3201330564916,"[98, 0, 156]",156,l,0.13385803997516632,colour,0.06
165,23,1,2,11,10,510,677.835891822353,678.5518819335848,"[39, 0, 215]",215,a,0.19363008998334408,colour,0.06
165,23,1,2,11,11,511,679.0704567003995,679.7758732251823,"[58, 0, 196]",196,a,0.18312779068946838,colour,0.06
165,23,1,2,11,12,512,680.2893484719098,680.9198519289494,"[83, 0, 171]",171,l,0.10920524597167969,colour,0.06
165,23,1,2,11,13,513,681.4330550283194,682.0638960115612,"[77, 0, 177]",177,l,0.11568677052855492,colour,0.06
165,23,1,2,11,14,514,682.5745383240283,683.3038821797818,"[99, 0, 155]",155,l,0.2140289545059204,colour,0.06
165,23,1,2,11,15,515,683.8256187420338,684.3839617222548,"[71, 0, 183]",183,a,0.042978059500455856,colour,0.06
165,23,1,2,11,16,516,684.9052768684924,685.5438770130277,"[79, 0, 175]",175,a,0.12229196354746819,colour,0.06
165,23,1,2,11,17,517,686.0639928989112,686.6799000259489,"[73, 0, 181]",181,a,0.09947685338556767,colour,0.06
165,23,1,2,11,18,518,687.1928112860769,687.8238421026617,"[81, 0, 173]",173,a,0.11412989720702171,colour,0.06
165,23,1,2,11,19,519,688.336687983945,688.9838397074491,"[60, 0, 194]",194,a,0.1295312475413084,colour,0.06
165,23,1,2,11,20,520,689.4975595325232,690.1358505096287,"[62, 0, 192]",192,a,0.11746695637702942,colour,0.06
165,23,1,2,11,21,521,690.6489787772298,691.3372543342412,"[72, 0, 182]",182,a,0.17115250788629055,colour,0.06
165,23,1,2,11,22,522,691.8551977630705,692.4238756578416,"[75, 0, 179]",179,a,0.04634741134941578,colour,0.06
165,23,1,2,11,23,523,692.9334624633193,693.6078978739679,"[65, 0, 189]",189,a,0.15236644446849823,colour,0.06
165,23,1,2,11,24,524,694.1211045179516,694.8158848360181,"[96, 0, 158]",158,l,0.17260186187922955,colour,0.06
165,23,1,2,11,25,525,695.3242148775607,695.9598615709692,"[59, 0, 195]",195,a,0.1257345713675022,colour,0.06
165,23,1,2,11,26,526,696.4682924374938,697.0478975903243,"[63, 0, 191]",191,a,0.05739912763237953,colour,0.06
165,23,1,2,11,27,527,697.5624094400555,698.1838583759964,"[55, 0, 199]",199,a,0.09954498894512653,colour,0.06
165,23,1,2,11,28,528,698.7028482556343,699.3438796121627,"[57, 0, 197]",197,a,0.118790278211236,colour,0.06
165,23,1,2,11,29,529,699.8592185378075,700.4478723052889,"[64, 0, 190]",190,a,0.06675572879612446,colour,0.06
165,23,1,2,11,30,530,700.9535277392715,701.6158523838967,"[76, 0, 178]",178,a,0.14682581834495068,colour,0.06
165,23,1,2,11,31,531,702.1309207379818,702.7358261682093,"[50, 0, 204]",204,a,0.08266277611255646,colour,0.06
165,23,1,2,11,32,532,703.2567809466273,704.1678749211133,"[91, 0, 163]",163,l,0.3894310612231493,colour,0.06
165,23,1,2,11,33,533,704.6780587956309,705.4879339355975,"[80, 0, 174]",174,l,0.28758404217660427,colour,0.06
165,23,1,2,11,34,534,705.9950513243675,706.5518642105162,"[53, 0, 201]",201,a,0.034523364156484604,colour,0.06
165,23,1,2,11,35,535,707.0576783642173,707.7358864266425,"[48, 0, 206]",206,a,0.15593941509723663,colour,0.06
165,23,1,2,11,36,536,708.2452188078314,708.9838716089725,"[94, 0, 160]",160,l,0.2165279071778059,colour,0.06
165,23,1,2,11,37,537,709.4954457618296,710.071837130934,"[70, 0, 184]",184,a,0.05417274124920368,colour,0.06
165,23,1,2,11,38,538,710.5892149973661,711.20786290057,"[90, 0, 164]",164,l,0.09703382663428783,colour,0.06
165,23,1,2,11,39,539,711.7183610647917,712.3278646487743,"[30, 0, 224]",224,a,0.09297484904527664,colour,0.06
165,23,1,2,11,40,540,712.8457033168525,713.4878961257637,"[84, 0, 170]",170,l,0.12710082530975342,colour,0.06
165,23,1,2,11,41,541,714.0036781281233,714.7118598483503,"[61, 0, 193]",193,a,0.19235560670495033,colour,0.06
165,23,1,2,11,42,542,715.2227171994746,715.823863370344,"[67, 0, 187]",187,a,0.08517590910196304,colour,0.06
165,23,1,2,11,43,543,716.336562346667,716.8560980968177,"[87, 0, 167]",167,l,0.0021114088594913483,colour,0.06
165,23,1,2,11,44,544,717.389002950862,717.9918855894357,"[89, 0, 165]",165,l,0.08694742992520332,colour,0.06
165,23,1,2,11,45,545,718.5020903386176,719.4558949507773,"[97, 0, 157]",157,l,0.43703169375658035,colour,0.06
165,23,1,2,11,46,546,719.9718624539673,721.7358864266425,"[82, 0, 172]",172,l,1.249075347557664,colour,0.06
165,23,1,2,11,47,547,722.2463318165392,722.9838716089725,"[52, 0, 202]",202,a,0.21534636989235878,colour,0.06
165,23,1,2,11,48,548,723.4964114706963,724.2318894807249,"[74, 0, 180]",180,a,0.21314319595694542,colour,0.06
165,23,1,2,11,49,549,724.7465592622757,725.3758835438639,"[56, 0, 198]",198,a,0.10706744901835918,colour,0.06
165,23,1,2,11,50,550,725.8755678776652,726.5438884347677,"[51, 0, 203]",203,a,0.14601370692253113,colour,0.06
165,23,1,2,12,1,551,730.8645567279309,731.5118856839836,"[80, 0, 174]",174,l,0.1298947688192129,colour,0.06
165,23,1,2,12,2,552,732.0204051658511,733.2158764861524,"[87, 0, 167]",167,l,0.6793415509164333,colour,0.06
165,23,1,2,12,3,553,733.7379064634442,734.4718768298626,"[63, 0, 191]",191,a,0.21861765533685684,colour,0.06
165,23,1,2,12,4,554,734.9893830921501,735.6958736348897,"[52, 0, 202]",202,a,0.19028555043041706,colour,0.06
165,23,1,2,12,5,555,736.2122330162674,736.9918532948941,"[92, 0, 162]",162,l,0.2617331687361002,colour,0.06
165,23,1,2,12,6,556,737.5135898552835,738.2318847551942,"[72, 0, 182]",182,a,0.20059762336313725,colour,0.06
165,23,1,2,12,7,557,738.7514023873955,739.4318537972867,"[85, 0, 169]",169,l,0.16496518440544605,colour,0.06
165,23,1,2,12,8,558,739.941637525335,740.487918574363,"[53, 0, 201]",201,a,0.023185718804597855,colour,0.06
165,23,1,2,12,9,559,741.0018833726645,741.8078551031649,"[83, 0, 171]",171,l,0.2876990456134081,colour,0.06
165,23,1,2,12,10,560,742.3170543629676,743.3438599202782,"[59, 0, 195]",195,a,0.5048559252172709,colour,0.06
165,23,1,2,12,11,561,743.8639864400029,744.4238449372351,"[69, 0, 185]",185,a,0.037569763138890266,colour,0.06
165,23,1,2,12,12,562,744.9421747308224,746.4638640321791,"[74, 0, 180]",180,a,0.9992906842380762,colour,0.06
165,23,1,2,12,13,563,746.9775826744735,747.575864797458,"[70, 0, 184]",184,a,0.07599732652306557,colour,0.06
165,23,1,2,12,14,564,748.0870963037014,748.6318488363177,"[96, 0, 158]",158,l,0.022466162219643593,colour,0.06
165,23,1,2,12,15,565,749.1496607214212,749.8318363893777,"[67, 0, 187]",187,a,0.160017691552639,colour,0.06
165,23,1,2,12,16,566,750.3372708745301,750.9038641415536,"[68, 0, 186]",186,a,0.04449712298810482,colour,0.06
165,23,1,2,12,17,567,751.4153008405119,752.0558784883469,"[60, 0, 194]",194,a,0.12429939769208431,colour,0.06
165,23,1,2,12,18,568,752.5632120985538,753.1038989573717,"[99, 0, 155]",155,l,0.01837252452969551,colour,0.06
165,23,1,2,12,19,569,753.6101719420403,754.2078451775014,"[79, 0, 175]",175,a,0.07538450136780739,colour,0.06
165,23,1,2,12,20,570,754.7196587882936,755.2718565873802,"[76, 0, 178]",178,a,0.029968930408358574,colour,0.06
165,23,1,2,12,21,571,755.7823173347861,756.3438536189497,"[78, 0, 176]",176,a,0.03687935322523117,colour,0.06
165,23,1,2,12,22,572,756.8629959169775,757.6318496242166,"[56, 0, 198]",198,a,0.2465381920337677,colour,0.06
165,23,1,2,12,23,573,758.1442894488573,759.1278318017721,"[94, 0, 160]",160,l,0.46120793372392654,colour,0.06
165,23,1,2,12,24,574,759.6445125620812,760.2478489112109,"[18, 0, 236]",236,a,0.08106691390275955,colour,0.06
165,23,1,2,12,25,575,760.7538926769048,761.3678731098771,"[88, 0, 166]",166,l,0.10129327327013016,colour,0.06
165,23,1,2,12,26,576,761.8780967630446,762.4558386299759,"[77, 0, 177]",177,a,0.06072200648486614,colour,0.06
165,23,1,2,12,27,577,762.9665348995477,764.0078694391996,"[66, 0, 188]",188,a,0.5191174857318401,colour,0.06
165,23,1,2,12,28,578,764.5136812273413,765.2798552066088,"[91, 0, 163]",163,l,0.2446500938385725,colour,0.06
165,23,1,2,12,29,579,765.7949274983257,766.4558780156076,"[98, 0, 156]",156,l,0.15065518394112587,colour,0.06
165,23,1,2,12,30,580,766.9707573223859,767.6718462686986,"[55, 0, 199]",199,a,0.1788636203855276,colour,0.06
165,23,1,2,12,31,581,768.1896010451019,768.7358545251191,"[57, 0, 197]",197,a,0.024121496826410294,colour,0.06
165,23,1,2,12,32,582,769.2522044554353,769.8318816833198,"[44, 0, 210]",210,a,0.05740818567574024,colour,0.06
165,23,1,2,12,33,583,770.3460091389716,770.9838897269219,"[75, 0, 179]",179,l,0.11557964608073235,colour,0.06
165,23,1,2,12,34,584,771.5028634574264,772.5998354516923,"[93, 0, 161]",161,l,0.5361505411565304,colour,0.06
165,23,1,2,12,35,585,773.1166115216911,773.7278562989086,"[71, 0, 183]",183,a,0.08897376619279385,colour,0.06
165,23,1,2,12,36,586,774.2418313361704,775.4798478800803,"[62, 0, 192]",192,a,0.7157085109502077,colour,0.06
165,23,1,2,12,37,587,775.991931669414,776.6878856495023,"[90, 0, 164]",164,a,0.18424710258841515,colour,0.06
165,23,1,2,12,38,588,777.2002081088722,777.8558507598937,"[81, 0, 173]",173,a,0.1335732899606228,colour,0.06
165,23,1,2,12,39,589,778.3720707204193,779.0158385206014,"[58, 0, 196]",196,a,0.12136839516460896,colour,0.06
165,23,1,2,12,40,590,779.528505988419,780.2558321710676,"[89, 0, 165]",165,l,0.20506501756608486,colour,0.06
165,23,1,2,12,41,591,780.7629767358303,781.3518841397017,"[86, 0, 168]",168,l,0.06663048453629017,colour,0.06
165,23,1,2,12,42,592,781.8728428557515,782.4718784056604,"[65, 0, 189]",189,a,0.07152953743934631,colour,0.06
165,23,1,2,12,43,593,782.9811461940408,783.5998626258224,"[4, 0, 250]",250,a,0.10233696363866329,colour,0.06
165,23,1,2,12,44,594,784.1086743418127,784.7198466528207,"[73, 0, 181]",181,a,0.09568451158702374,colour,0.06
165,23,1,2,12,45,595,785.2343904040754,786.2558585591614,"[50, 0, 204]",204,a,0.5041013155132532,colour,0.06
165,23,1,2,12,46,596,786.766194852069,787.3118492923677,"[64, 0, 190]",190,a,0.02880156971514225,colour,0.06
165,23,1,2,12,47,597,787.8326177801937,788.4478919971734,"[84, 0, 170]",170,l,0.09765452705323696,colour,0.06
165,23,1,2,12,48,598,788.9630493614823,789.4958766289055,"[54, 0, 200]",200,a,0.015369055792689323,colour,0.06
165,23,1,2,12,49,599,790.014143800363,790.6718450859189,"[61, 0, 193]",193,a,0.14332767575979233,colour,0.06
165,23,1,2,12,50,600,791.1774761006236,791.7278811112046,"[51, 0, 203]",203,a,0.0222676619887352,colour,0.06
165,23,1,2,13,1,601,796.5206759348512,797.3518833518028,"[39, 0, 215]",215,a,0.3081613164395094,colour,0.06
165,23,1,2,13,2,602,797.8652707710862,798.4558709263802,"[88, 0, 166]",166,l,0.06836459040641785,colour,0.06
165,23,1,2,13,3,603,798.9754425156862,799.528167674318,"[67, 0, 187]",187,a,0.031202061101794243,colour,0.06
165,23,1,2,13,4,604,800.0372483860701,801.3038963582367,"[77, 0, 177]",177,a,0.7443513609468937,colour,0.06
165,23,1,2,13,5,605,801.8188138697296,802.3838526252657,"[74, 0, 180]",180,a,0.048649441450834274,colour,0.06
165,23,1,2,13,6,606,802.9041551947594,803.6398320961744,"[66, 0, 188]",188,a,0.21351971291005611,colour,0.06
165,23,1,2,13,7,607,804.154137570411,804.8078417126089,"[98, 0, 156]",156,l,0.13141855970025063,colour,0.06
165,23,1,2,13,8,608,805.3260466549546,805.9358798898757,"[65, 0, 189]",189,a,0.08744091913104057,colour,0.06
165,23,1,2,13,9,609,806.4512574132532,806.9998393114656,"[96, 0, 158]",158,l,0.023824144154787064,colour,0.06
165,23,1,2,13,10,610,807.5163885261863,808.0558257121593,"[90, 0, 164]",164,l,0.01738869771361351,colour,0.06
165,23,1,2,13,11,611,808.5632506944239,809.2078668400645,"[99, 0, 155]",155,l,0.12231717072427273,colour,0.06
165,23,1,2,13,12,612,809.7196197975427,810.3838471118361,"[72, 0, 182]",182,a,0.14194330759346485,colour,0.06
165,23,1,2,13,13,613,810.8916399478912,811.5198756400496,"[18, 0, 236]",236,a,0.10611158609390259,colour,0.06
165,23,1,2,13,14,614,812.0297519210726,812.7038297206163,"[91, 0, 163]",163,l,0.15715600736439228,colour,0.06
165,23,1,2,13,15,615,813.216170296073,813.7438496015966,"[56, 0, 198]",198,a,0.010738607496023178,colour,0.06
165,23,1,2,13,16,616,814.252109143883,814.8478686828166,"[95, 0, 159]",159,l,0.07993421331048012,colour,0.06
165,23,1,2,13,17,617,815.3632080014795,815.9838369507343,"[70, 0, 184]",184,a,0.10444285906851292,colour,0.06
165,23,1,2,13,18,618,816.491786537692,817.0958723742515,"[63, 0, 191]",191,a,0.08735899813473225,colour,0.06
165,23,1,2,13,19,619,817.6046856660396,818.1598538514227,"[89, 0, 165]",165,l,0.03757961094379425,colour,0.06
165,23,1,2,13,20,620,818.6705808397382,819.1918743252754,"[92, 0, 162]",162,l,0.004673771560192108,colour,0.06
165,23,1,2,13,21,621,819.7211116850376,820.2558388672769,"[64, 0, 190]",190,a,0.019175972789525986,colour,0.06
165,23,1,2,13,22,622,820.7700730543584,821.3518494814634,"[80, 0, 174]",174,a,0.06649145670235157,colour,0.06
165,23,1,2,13,23,623,821.8443252500147,822.4398614764214,"[58, 0, 196]",196,a,0.07925679720938206,colour,0.06
165,23,1,2,13,24,624,822.9539105575532,823.4799778498709,"[93, 0, 161]",161,l,0.00947987474501133,colour,0.06
165,23,1,2,13,25,625,824.0029286388308,824.6318448968232,"[83, 0, 171]",171,l,0.11387980543076992,colour,0.06
165,23,1,2,13,26,626,825.1431090924889,825.6958492174745,"[50, 0, 204]",204,a,0.03631379082798958,colour,0.06
165,23,1,2,13,27,627,826.2069160938263,826.927860789001,"[84, 0, 170]",170,a,0.20563294366002083,colour,0.06
165,23,1,2,13,28,628,827.4428480118513,828.0318779014051,"[87, 0, 167]",167,l,0.07178947515785694,colour,0.06
165,23,1,2,13,29,629,828.5416584778577,829.17586960271,"[57, 0, 197]",197,a,0.1174220573157072,colour,0.06
165,23,1,2,13,30,630,829.6862673349679,830.3518703561276,"[78, 0, 176]",176,a,0.1479825433343649,colour,0.06
165,23,1,2,13,31,631,830.8626977745444,831.391863849014,"[73, 0, 181]",181,a,0.002878621220588684,colour,0.06
165,23,1,2,13,32,632,831.9049515519291,832.4798632413149,"[75, 0, 179]",179,a,0.059087151661515236,colour,0.06
165,23,1,2,13,33,633,832.9974943511188,833.6238250099123,"[71, 0, 183]",183,a,0.1108976025134325,colour,0.06
165,23,1,2,13,34,634,834.1389323547482,835.4878744632006,"[48, 0, 206]",206,a,0.8334090169519186,colour,0.06
165,23,1,2,13,35,635,836.0092687737197,836.5518642105162,"[69, 0, 185]",185,a,0.026535378769040108,colour,0.06
165,23,1,2,13,36,636,837.0736350379884,837.7038643788546,"[68, 0, 186]",186,a,0.11350447125732899,colour,0.06
165,23,1,2,13,37,637,838.2184805963188,838.7998718433082,"[82, 0, 172]",172,a,0.06416540406644344,colour,0.06
165,23,1,2,13,38,638,839.3175722695887,840.6558513902128,"[51, 0, 203]",203,a,0.821320304647088,colour,0.06
165,23,1,2,13,39,639,841.1745415534824,841.8078176863492,"[61, 0, 193]",193,a,0.11957245506346226,colour,0.06
165,23,1,2,13,40,640,842.3163722213358,842.9118603989482,"[94, 0, 160]",160,l,0.07823791727423668,colour,0.06
165,23,1,2,13,41,641,843.4262182544917,844.3518455438316,"[86, 0, 168]",168,l,0.4088976923376322,colour,0.06
165,23,1,2,13,42,642,844.8658985625952,845.4718394149095,"[76, 0, 178]",178,a,0.08961888775229454,colour,0.06
165,23,1,2,13,43,643,845.9937331210822,846.5598317179829,"[85, 0, 169]",169,a,0.049953073263168335,colour,0.06
165,23,1,2,13,44,644,847.074964268133,847.6558462716639,"[52, 0, 202]",202,a,0.06452025845646858,colour,0.06
165,23,1,2,13,45,645,848.1724080890417,848.7438629921526,"[53, 0, 201]",201,a,0.05414910987019539,colour,0.06
165,23,1,2,13,46,646,849.254290657118,849.8638470172882,"[62, 0, 192]",192,a,0.0923797469586134,colour,0.06
165,23,1,2,13,47,647,850.3833544105291,850.9438410941511,"[59, 0, 195]",195,a,0.0301914531737566,colour,0.06
165,23,1,2,13,48,648,851.458396660164,852.1198768988252,"[81, 0, 173]",173,l,0.13741722702980042,colour,0.06
165,23,1,2,13,49,649,852.6421959605068,853.2238664422184,"[79, 0, 175]",175,l,0.05448348447680473,colour,0.06
165,23,1,2,13,50,650,853.7344993017614,854.4558268152177,"[54, 0, 200]",200,a,0.20586334355175495,colour,0.06
165,23,1,2,14,1,651,858.9631730280817,859.5998283624649,"[85, 0, 169]",169,a,0.11911008134484291,colour,0.06
165,23,1,2,14,2,652,860.107600716874,861.5918687321246,"[68, 0, 186]",186,a,0.9688861593604088,colour,0.06
165,23,1,2,14,3,653,862.0983906276524,863.271835712716,"[67, 0, 187]",187,a,0.6561971884220839,colour,0.06
165,23,1,2,14,4,654,863.7895243242383,864.3358742967248,"[89, 0, 165]",165,l,0.02406950853765011,colour,0.06
165,23,1,2,14,5,655,864.8520615678281,865.5838149748743,"[5, 0, 249]",249,a,0.2093992941081524,colour,0.06
165,23,1,2,14,6,656,866.1022408660501,866.663836620748,"[66, 0, 188]",188,a,0.03942359983921051,colour,0.06
165,23,1,2,14,7,657,867.1682498622686,867.719867920503,"[45, 0, 209]",209,a,0.02947898581624031,colour,0.06
165,23,1,2,14,8,658,868.2307331487536,868.7838509716094,"[51, 0, 203]",203,a,0.030897224321961403,colour,0.06
165,23,1,2,14,9,659,869.2932987492532,870.4638632442802,"[39, 0, 215]",215,a,0.6482344083487988,colour,0.06
165,23,1,2,14,10,660,870.981004409492,871.511855751276,"[97, 0, 157]",157,l,0.00854409672319889,colour,0.06
165,23,1,2,14,11,661,872.0279248692095,872.5598427448422,"[91, 0, 163]",163,l,0.011109216138720512,colour,0.06
165,23,1,2,14,12,662,873.081821128726,873.7358336523175,"[58, 0, 196]",196,a,0.13986655697226524,colour,0.06
165,23,1,2,14,13,663,874.2540511991829,874.8878842312843,"[50, 0, 204]",204,a,0.11745080724358559,colour,0.06
165,23,1,2,14,14,664,875.3968936577439,875.9998219814152,"[70, 0, 184]",184,l,0.08657130599021912,colour,0.06
165,23,1,2,14,15,665,876.5075746439397,877.1678445953876,"[65, 0, 189]",189,a,0.1454993449151516,colour,0.06
165,23,1,2,14,16,666,877.6802123468369,878.2078404519707,"[71, 0, 183]",183,a,0.01077759824693203,colour,0.06
165,23,1,2,14,17,667,878.7166513781995,879.303867213428,"[94, 0, 160]",160,l,0.06999432481825352,colour,0.06
165,23,1,2,14,18,668,879.8144772313535,880.4638573359698,"[93, 0, 161]",161,a,0.1333637647330761,colour,0.06
165,23,1,2,14,19,669,880.9733181092888,881.5598659813404,"[59, 0, 195]",195,a,0.0703602060675621,colour,0.06
165,23,1,2,14,20,670,882.0732467062771,882.7278070691973,"[79, 0, 175]",175,a,0.1364523060619831,colour,0.06
165,23,1,2,14,21,671,883.2465216498822,884.6238734517246,"[72, 0, 182]",182,a,0.8558952640742064,colour,0.06
165,23,1,2,14,22,672,885.1387736350298,887.1279038768262,"[75, 0, 179]",179,a,1.472123771905899,colour,0.06
165,23,1,2,14,23,673,887.6470272690058,888.3118173908442,"[53, 0, 201]",201,l,0.14778837747871876,colour,0.06
165,23,1,2,14,24,674,888.8224801830947,889.3598654307425,"[52, 0, 202]",202,a,0.0206981860101223,colour,0.06
165,23,1,2,14,25,675,889.8751291316003,890.4638746660203,"[90, 0, 164]",164,l,0.07207580097019672,colour,0.06
165,23,1,2,14,26,676,890.9869440030307,891.5518602728844,"[84, 0, 170]",170,l,0.04853719659149647,colour,0.06
165,23,1,2,14,27,677,892.062168603763,892.5998488422483,"[55, 0, 199]",199,a,0.012592440471053123,colour,0.06
165,23,1,2,14,28,678,893.1357748899609,893.7198163252324,"[98, 0, 156]",156,l,0.06492906995117664,colour,0.06
165,23,1,2,14,29,679,894.226529629901,894.8638411108404,"[69, 0, 185]",185,a,0.11501132510602474,colour,0.06
165,23,1,2,14,30,680,895.3835316412151,896.5838512089103,"[87, 0, 167]",167,l,0.678827190771699,colour,0.06
165,23,1,2,14,31,681,897.1018568668514,898.2318095304072,"[96, 0, 158]",158,l,0.6195143647491932,colour,0.06
165,23,1,2,14,32,682,898.746393058449,899.4958415757865,"[56, 0, 198]",198,a,0.22726375795900822,colour,0.06
165,23,1,2,14,33,683,900.0120564159006,900.7118377927691,"[63, 0, 191]",191,a,0.17814721539616585,colour,0.06
165,23,1,2,14,34,684,901.2309450376779,902.1758184023201,"[80, 0, 174]",174,a,0.4225791171193123,colour,0.06
165,23,1,2,14,35,685,902.6845541056246,903.7678403407335,"[83, 0, 171]",171,a,0.540278835222125,colour,0.06
165,23,1,2,14,36,686,904.2786484621465,904.887887775898,"[77, 0, 177]",177,a,0.08706046268343925,colour,0.06
165,23,1,2,14,37,687,905.4037453979254,905.9758308473974,"[74, 0, 180]",180,a,0.04974157735705376,colour,0.06
165,23,1,2,14,38,688,906.4819230567664,907.2238073647022,"[86, 0, 168]",168,a,0.21966016478836536,colour,0.06
165,23,1,2,14,39,689,907.7414223272353,908.7838234025985,"[82, 0, 172]",172,a,0.5201158858835697,colour,0.06
165,23,1,2,14,40,690,909.3040743768215,909.9518117513508,"[99, 0, 155]",155,l,0.12545100413262844,colour,0.06
165,23,1,2,14,41,691,910.46038637124,911.2158327698708,"[76, 0, 178]",178,a,0.23324943147599697,colour,0.06
165,23,1,2,14,42,692,911.7261312548071,912.4958640262485,"[78, 0, 176]",176,a,0.24744206853210926,colour,0.06
165,23,1,2,14,43,693,913.005520934239,913.6878120005131,"[88, 0, 166]",166,l,0.16756299510598183,colour,0.06
165,23,1,2,14,44,694,914.2083079461008,914.919839721173,"[81, 0, 173]",173,a,0.19546541385352612,colour,0.06
165,23,1,2,14,45,695,915.4285687282681,916.0558268930763,"[60, 0, 194]",194,a,0.11159392260015011,colour,0.06
165,23,1,2,14,46,696,916.5698716416955,917.1918136738241,"[64, 0, 190]",190,l,0.10653930343687534,colour,0.06
165,23,1,2,14,47,697,917.7125731036067,918.4561529196799,"[62, 0, 192]",192,a,0.22716135904192924,colour,0.06
165,23,1,2,14,48,698,918.966795232147,919.7598220296204,"[54, 0, 200]",200,a,0.27711364440619946,colour,0.06
165,23,1,2,14,49,699,920.2807602640241,921.0158444270492,"[95, 0, 159]",159,l,0.21831242367625237,colour,0.06
165,23,1,2,14,50,700,921.5331411622465,922.2558211442083,"[61, 0, 193]",193,a,0.2011785451322794,colour,0.06
165,23,1,2,15,1,701,926.7804572004825,927.3678632639349,"[10, 0, 244]",244,a,0.0706429909914732,colour,0.06
165,23,1,2,15,2,702,927.8777675069869,928.4878847040236,"[56, 0, 198]",198,a,0.09248726814985275,colour,0.06
165,23,1,2,15,3,703,929.0070892293006,930.8318269383162,"[89, 0, 165]",165,l,1.3071589805185795,colour,0.06
165,23,1,2,15,4,704,931.3469925709069,931.9038188494742,"[71, 0, 183]",183,a,0.040462957695126534,colour,0.06
165,23,1,2,15,5,705,932.4094817657024,932.951834987849,"[53, 0, 201]",201,a,0.021927380934357643,colour,0.06
165,23,1,2,15,6,706,933.4634662475437,934.0878288559616,"[66, 0, 188]",188,a,0.07512810826301575,colour,0.06
165,23,1,2,15,7,707,934.6000237092376,935.1518138777465,"[91, 0, 163]",163,l,0.02974798157811165,colour,0.06
165,23,1,2,15,8,708,935.6625711917877,936.2958154249936,"[77, 0, 177]",177,a,0.11096888966858387,colour,0.06
165,23,1,2,15,9,709,936.8032931834459,937.4478108659387,"[52, 0, 202]",202,a,0.1222025603055954,colour,0.06
165,23,1,2,15,10,710,937.9476617947221,938.6558458767831,"[57, 0, 197]",197,a,0.18595166690647602,colour,0.06
165,23,1,2,15,11,711,939.166405480355,939.823841707781,"[79, 0, 175]",175,a,0.13524241000413895,colour,0.06
165,23,1,2,15,12,712,940.3384244497865,941.1198390908539,"[65, 0, 189]",189,a,0.2590396534651518,colour,0.06
165,23,1,2,15,13,713,941.6355994325131,942.4718169663101,"[98, 0, 156]",156,l,0.314090671017766,colour,0.06
165,23,1,2,15,14,714,942.967539601028,943.6398419421166,"[51, 0, 203]",203,a,0.15576651692390442,colour,0.06
165,23,1,2,15,15,715,944.1531580742449,944.871842879802,"[94, 0, 160]",160,l,0.19638622552156448,colour,0.06
165,23,1,2,15,16,716,945.3876512721181,946.1358182132244,"[78, 0, 176]",176,a,0.2258935682475567,colour,0.06
165,23,1,2,15,17,717,946.6533217169344,947.4158116597682,"[87, 0, 167]",167,a,0.24016339890658855,colour,0.06
165,23,1,2,15,18,718,947.9296539705247,948.6158114243299,"[90, 0, 164]",164,a,0.16393094696104527,colour,0.06
165,23,1,2,15,19,719,949.1328041087836,949.823813745752,"[97, 0, 157]",157,l,0.16891585662961006,colour,0.06
165,23,1,2,15,20,720,950.3360464069992,951.0318400915712,"[70, 0, 184]",184,a,0.1735526043921709,colour,0.06
165,23,1,2,15,21,721,951.5392682254314,952.2958138491958,"[99, 0, 155]",155,l,0.23426594771444798,colour,0.06
165,23,1,2,15,22,722,952.80467912741,953.5278013981879,"[92, 0, 162]",162,l,0.20024670660495758,colour,0.06
165,23,1,2,15,23,723,954.0368671435863,954.791808238253,"[69, 0, 185]",185,a,0.23945447616279125,colour,0.06
165,23,1,2,15,24,724,955.301599053666,956.0558895152062,"[68, 0, 186]",186,a,0.23873649537563324,colour,0.06
165,23,1,2,15,25,725,956.5694155674428,957.3278358988464,"[83, 0, 171]",171,l,0.2428966909646988,colour,0.06
165,23,1,2,15,26,726,957.8495504055172,958.5918159577996,"[84, 0, 170]",170,l,0.2250830326229334,colour,0.06
165,23,1,2,15,27,727,959.1044188346714,959.8718523327261,"[55, 0, 199]",199,a,0.24996819719672203,colour,0.06
165,23,1,2,15,28,728,960.388878101483,961.2478020433336,"[64, 0, 190]",190,a,0.3418142832815647,colour,0.06
165,23,1,2,15,29,729,961.7653571423143,962.5198350735009,"[81, 0, 173]",173,a,0.23774715326726437,colour,0.06
165,23,1,2,15,30,730,963.0263010412455,963.7663189135492,"[86, 0, 168]",168,l,0.22342060878872871,colour,0.06
165,23,1,2,15,31,731,964.2791817300022,965.0318184308708,"[74, 0, 180]",180,a,0.23042634315788746,colour,0.06
165,23,1,2,15,32,732,965.5449175536633,966.295809911564,"[67, 0, 187]",187,a,0.22865364141762257,colour,0.06
165,23,1,2,15,33,733,966.8106537722051,967.5598474722356,"[63, 0, 191]",191,a,0.22693411074578762,colour,0.06
165,23,1,2,15,34,734,968.0652185473591,968.76779701747,"[61, 0, 193]",193,a,0.18045633286237717,colour,0.06
165,23,1,2,15,35,735,969.284064238891,970.0477963723242,"[88, 0, 166]",166,l,0.2416812814772129,colour,0.06
165,23,1,2,15,36,736,970.5653833709657,971.4478289820254,"[62, 0, 192]",192,a,0.36015490628778934,colour,0.06
165,23,1,2,15,37,737,971.9561716280878,972.719867920503,"[39, 0, 215]",215,a,0.2413406055420637,colour,0.06
165,23,1,2,15,38,738,973.2268458884209,973.9838196225464,"[54, 0, 200]",200,a,0.24021656811237335,colour,0.06
165,23,1,2,15,39,739,974.4968084692955,975.3598390426487,"[96, 0, 158]",158,l,0.3409289177507162,colour,0.06
165,23,1,2,15,40,740,975.8718251567334,976.5118305459619,"[58, 0, 196]",196,a,0.11776037141680717,colour,0.06
165,23,1,2,15,41,741,977.0282513666898,977.6559254340827,"[76, 0, 178]",178,l,0.10547197982668877,colour,0.06
165,23,1,2,15,42,742,978.1564234532416,978.8159415498376,"[95, 0, 159]",159,l,0.13740147463977337,colour,0.06
165,23,1,2,15,43,743,979.3284223359078,979.9118091985583,"[50, 0, 204]",204,a,0.061083950102329254,colour,0.06
165,23,1,2,15,44,744,980.422205356881,981.9758410882205,"[59, 0, 195]",195,a,1.0313615687191486,colour,0.06
165,23,1,2,15,45,745,982.4849324338138,983.135822545737,"[60, 0, 194]",194,a,0.12867817841470242,colour,0.06
165,23,1,2,15,46,746,983.6548230592161,984.2238451745361,"[80, 0, 174]",174,l,0.04194500111043453,colour,0.06
165,23,1,2,15,47,747,984.7470007631928,985.3278327472508,"[75, 0, 179]",179,l,0.06431112438440323,colour,0.06
165,23,1,2,15,48,748,985.843589939177,986.4398027937859,"[82, 0, 172]",172,l,0.08123469166457653,colour,0.06
165,23,1,2,15,49,749,986.9529381506145,987.5038205031306,"[93, 0, 161]",161,l,0.03472265042364597,colour,0.06
165,23,1,2,15,50,750,988.0184142738581,988.6798098348081,"[30, 0, 224]",224,a,0.14510785974562168,colour,0.06
165,23,1,2,16,1,751,993.2035487107933,993.9598068259656,"[70, 0, 184]",184,a,0.23845646902918816,colour,0.06
165,23,1,2,16,2,752,994.4730154387653,996.1358233336359,"[94, 0, 160]",160,l,1.140484107658267,colour,0.06
165,23,1,2,16,3,753,996.6450926978141,997.1838197801262,"[87, 0, 167]",167,l,0.016452526673674583,colour,0.06
165,23,1,2,16,4,754,997.6920552980155,998.3438154160976,"[96, 0, 158]",158,l,0.1296123806387186,colour,0.06
165,23,1,2,16,5,755,998.8520477823913,999.543833296746,"[63, 0, 191]",191,a,0.16960429958999157,colour,0.06
165,23,1,2,16,6,756,1000.0551687777042,1000.7038143593818,"[53, 0, 201]",201,a,0.12651320546865463,colour,0.06
165,23,1,2,16,7,757,1001.211591836065,1001.9037920683622,"[64, 0, 190]",190,a,0.16998042166233063,colour,0.06
165,23,1,2,16,8,758,1002.4147218875587,1002.9998074099422,"[50, 0, 204]",204,a,0.06276016123592854,colour,0.06
165,23,1,2,16,9,759,1003.4974027816206,1004.2237876728177,"[89, 0, 165]",165,l,0.20913738571107388,colour,0.06
165,23,1,2,16,10,760,1004.7354516219348,1005.4878661930561,"[99, 0, 155]",155,l,0.23011599108576775,colour,0.06
165,23,1,2,16,11,761,1006.0012701544911,1006.7278051003814,"[62, 0, 192]",192,a,0.20450615137815475,colour,0.06
165,23,1,2,16,12,762,1007.2356936391443,1008.015831431374,"[83, 0, 171]",171,l,0.25787387043237686,colour,0.06
165,23,1,2,16,13,763,1008.5218334477395,1009.1678284462541,"[81, 0, 173]",173,l,0.12366766668856144,colour,0.06
165,23,1,2,16,14,764,1009.6781611964107,1010.3918063472956,"[82, 0, 172]",172,l,0.19136665761470795,colour,0.06
165,23,1,2,16,15,765,1010.897075811401,1011.5918238349259,"[56, 0, 198]",198,a,0.17251206561923027,colour,0.06
165,23,1,2,16,16,766,1012.1003547366709,1012.8318489938974,"[67, 0, 187]",187,a,0.20940756611526012,colour,0.06
165,23,1,2,16,17,767,1013.3500925339758,1014.0638093668967,"[58, 0, 196]",196,a,0.1907810103148222,colour,0.06
165,23,1,2,16,18,768,1014.5855530165136,1015.3678089119494,"[74, 0, 180]",180,a,0.2655979786068201,colour,0.06
165,23,1,2,16,19,769,1015.8824436422437,1016.6798433121294,"[14, 0, 240]",240,a,0.26616393588483334,colour,0.06
165,23,1,2,16,20,770,1017.1972452048212,1017.8398424927145,"[92, 0, 162]",162,l,0.12687475606799126,colour,0.06
165,23,1,2,16,21,771,1018.3562644962221,1019.1278203818947,"[90, 0, 164]",164,l,0.2537412438541651,colour,0.06
165,23,1,2,16,22,772,1019.6417595781386,1020.2637996766716,"[66, 0, 188]",188,a,0.10505528934299946,colour,0.06
165,23,1,2,16,23,773,1020.7717882543802,1021.4637915641069,"[75, 0, 179]",179,a,0.17461047694087029,colour,0.06
165,23,1,2,16,24,774,1021.9783668220043,1022.7278314866126,"[60, 0, 194]",194,a,0.2333951536566019,colour,0.06
165,23,1,2,16,25,775,1023.2478489112109,1023.9838306494057,"[61, 0, 193]",193,a,0.20694090612232685,colour,0.06
165,23,1,2,16,26,776,1024.5076738931239,1025.3838120605797,"[85, 0, 169]",169,l,0.34648884274065495,colour,0.06
165,23,1,2,16,27,777,1025.8957698177546,1026.76779701747,"[57, 0, 197]",197,a,0.3569115847349167,colour,0.06
165,23,1,2,16,28,778,1027.28565104492,1027.9598233681172,"[79, 0, 175]",175,l,0.15715009905397892,colour,0.06
165,23,1,2,16,29,779,1028.4764785282314,1029.183811115101,"[5, 0, 249]",249,a,0.1904828678816557,colour,0.06
165,23,1,2,16,30,780,1029.6989157032222,1030.4637958966196,"[86, 0, 168]",168,l,0.24803835153579712,colour,0.06
165,23,1,2,16,31,781,1030.9826703798026,1031.5838260017335,"[65, 0, 189]",189,a,0.08469974994659424,colour,0.06
165,23,1,2,16,32,782,1032.0960303079337,1032.8398031089455,"[59, 0, 195]",195,a,0.22710503824055195,colour,0.06
165,23,1,2,16,33,783,1033.3470347132534,1034.0638266950846,"[84, 0, 170]",170,l,0.19779225625097752,colour,0.06
165,23,1,2,16,34,784,1034.5986881777644,1035.2238290272653,"[55, 0, 199]",199,a,0.11115439049899578,colour,0.06
165,23,1,2,16,35,785,1035.740265602246,1036.3278579544276,"[91, 0, 163]",163,l,0.0714877899736166,colour,0.06
165,23,1,2,16,36,786,1036.836419576779,1037.5197988394648,"[80, 0, 174]",174,a,0.16763309948146343,colour,0.06
165,23,1,2,16,37,787,1038.0406126193702,1038.6798070780933,"[68, 0, 186]",186,a,0.12301939725875854,colour,0.06
165,23,1,2,16,38,788,1039.1997504588217,1039.9278127402067,"[95, 0, 159]",159,l,0.20957022346556187,colour,0.06
165,23,1,2,16,39,789,1040.438642917201,1041.1278203818947,"[51, 0, 203]",203,a,0.17242935672402382,colour,0.06
165,23,1,2,16,40,790,1041.6459300145507,1042.3678427822888,"[52, 0, 202]",202,a,0.20439823530614376,colour,0.06
165,23,1,2,16,41,791,1042.8832466937602,1043.5278033670038,"[72, 0, 182]",182,a,0.13084669411182404,colour,0.06
165,23,1,2,16,42,792,1044.040653185919,1044.6878084558994,"[54, 0, 200]",200,a,0.13125353679060936,colour,0.06
165,23,1,2,16,43,793,1045.2048869989812,1045.9199346378446,"[69, 0, 185]",185,a,0.1935064233839512,colour,0.06
165,23,1,2,16,44,794,1046.4393337219954,1047.015817252919,"[76, 0, 178]",178,a,0.05424048192799091,colour,0.06
165,23,1,2,16,45,795,1047.533185273409,1048.159823525697,"[78, 0, 176]",176,a,0.10452084057033062,colour,0.06
165,23,1,2,16,46,796,1048.673795806244,1049.2238022461534,"[18, 0, 236]",236,a,0.025453878566622734,colour,0.06
165,23,1,2,16,47,797,1049.7386728879064,1050.415777394548,"[88, 0, 166]",166,l,0.1549177784472704,colour,0.06
165,23,1,2,16,48,798,1050.9262369628996,1051.631833082065,"[71, 0, 183]",183,a,0.1832664255052805,colour,0.06
165,23,1,2,16,49,799,1052.1450424827635,1052.703809633851,"[73, 0, 181]",181,a,0.0365410391241312,colour,0.06
165,23,1,2,16,50,800,1053.2233063932508,1053.8877806495875,"[93, 0, 161]",161,l,0.1367240585386753,colour,0.06
