id,age,condition,counterbalance,block,trialinblock,trial,tstart,tend,trialstim,trialintensity,response,RT,trialtype,colourfreq
046,68,0,2,Practice,1,NA,5.907684681005776e-06,5.359733602716005,"[84, 0, 170]",170,l,4.8354146112833405,colour,0.5
046,68,0,2,Practice,2,NA,5.876315494082519,7.303728340935777,"[95, 0, 159]",159,l,0.9034337443154072,colour,0.5
046,68,0,2,Practice,3,NA,7.814486828807276,10.151707419849117,"[59, 0, 195]",195,l,1.8123588801390724,colour,0.5
046,68,0,2,Practice,4,NA,10.6599291471357,11.71973029441142,"[43, 0, 211]",211,a,0.5365352994122077,colour,0.5
046,68,0,2,Practice,5,NA,12.238870214030612,13.367692437954247,"[42, 0, 212]",212,a,0.6054776069067884,colour,0.5
046,68,0,2,Practice,6,NA,13.88010625957395,14.903775208586012,"[57, 0, 197]",197,a,0.5009403067670064,colour,0.5
046,68,0,2,Practice,7,NA,15.4109800261067,16.35169599832443,"[34, 0, 220]",220,a,0.4174032567098038,colour,0.5
046,68,0,2,Practice,8,NA,16.864222853677347,17.903819713159464,"[8, 0, 246]",246,a,0.5163983592501609,colour,0.5
046,68,0,2,Practice,9,NA,18.41122381662717,19.65569057900575,"[99, 0, 155]",155,l,0.7302329794620164,colour,0.5
046,68,0,2,Practice,10,NA,20.16765699183452,23.767693225643598,"[29, 0, 225]",225,a,3.076646324523608,colour,0.5
046,68,0,2,1,1,1,5.748910721071297,7.040046237496426,"[54, 0, 200]",200,a,0.7669882417394547,colour,0.5
046,68,0,2,1,2,2,7.546706366323633,8.591964364837622,"[72, 0, 182]",182,l,0.5217948339268332,colour,0.5
046,68,0,2,1,3,3,9.112592627599952,9.935956739980611,"[79, 0, 175]",175,l,0.3000773906969698,colour,0.5
046,68,0,2,1,4,4,10.443843304528855,11.103954802267253,"[0, 0, 254]",254,a,0.13674521920620464,colour,0.5
046,68,0,2,1,5,5,11.615804242901504,12.408019093651092,"[46, 0, 208]",208,a,0.26865164932678454,colour,0.5
046,68,0,2,1,6,6,12.928626482593245,13.567940166947665,"[10, 0, 244]",244,a,0.1159828519448638,colour,0.5
046,68,0,2,1,7,7,14.085030907051987,15.151972871899488,"[61, 0, 193]",193,l,0.5435630832507741,colour,0.5
046,68,0,2,1,8,8,15.663105513245682,16.199952344672056,"[12, 0, 242]",242,a,0.01328126693260856,colour,0.5
046,68,0,2,1,9,9,16.710170082296827,24.151971690371283,"[86, 0, 168]",168,a,6.918544818661758,colour,0.5
046,68,0,2,1,10,10,24.66394676780328,25.39198602635588,"[97, 0, 157]",157,l,0.20468203847121913,colour,0.5
046,68,0,2,1,11,11,25.905324203995406,26.847966475848807,"[34, 0, 220]",220,a,0.4194284116383642,colour,0.5
046,68,0,2,1,12,12,27.35843863784976,28.031995242345147,"[11, 0, 243]",243,a,0.1505443933128845,colour,0.5
046,68,0,2,1,13,13,28.546039585446124,29.295985333184944,"[44, 0, 210]",210,a,0.2264987308299169,colour,0.5
046,68,0,2,1,14,14,29.81189256675134,30.43991351146542,"[85, 0, 169]",169,l,0.10465151541575324,colour,0.5
046,68,0,2,1,15,15,30.952595148221008,31.775955322140362,"[75, 0, 179]",179,l,0.2998844062676653,colour,0.5
046,68,0,2,1,16,16,32.29645755425736,33.01591963971441,"[76, 0, 178]",178,l,0.1960646931111114,colour,0.5
046,68,0,2,1,17,17,33.53091984648199,34.14394865826762,"[84, 0, 170]",170,l,0.0898196777125122,colour,0.5
046,68,0,2,1,18,18,34.65599817255861,35.231915685508284,"[96, 0, 158]",158,l,0.05276115420565475,colour,0.5
046,68,0,2,1,19,19,35.74983665246691,36.28795009186433,"[15, 0, 239]",239,a,0.014819234638707712,colour,0.5
046,68,0,2,1,20,20,36.79667515405163,37.40796986292116,"[91, 0, 163]",163,l,0.08774962436291389,colour,0.5
046,68,0,2,1,21,21,37.92199805834389,38.50394889457675,"[37, 0, 217]",217,a,0.05862236689426936,colour,0.5
046,68,0,2,1,22,22,39.01590349203616,42.8159216089407,"[71, 0, 183]",183,l,3.276623481477145,colour,0.5
046,68,0,2,1,23,23,43.32874699939566,44.007928509119665,"[19, 0, 235]",235,a,0.1547459399444051,colour,0.5
046,68,0,2,1,24,24,44.51726363839407,45.4799286351481,"[33, 0, 221]",221,a,0.4392829643911682,colour,0.5
046,68,0,2,1,25,25,45.9861338721239,46.6479534789396,"[55, 0, 199]",199,a,0.13848010980291292,colour,0.5
046,68,0,2,1,26,26,47.15811607816431,47.75195396730851,"[13, 0, 241]",241,a,0.07045270601520315,colour,0.5
046,68,0,2,1,27,27,48.267561090397066,48.87990815516969,"[5, 0, 249]",249,a,0.08896424471458886,colour,0.5
046,68,0,2,1,28,28,49.39272921331576,49.93595083229593,"[20, 0, 234]",234,a,0.020134577091084793,colour,0.5
046,68,0,2,1,29,29,50.45617107085127,51.20794544449018,"[57, 0, 197]",197,l,0.2293564757128479,colour,0.5
046,68,0,2,1,30,30,51.72097642242443,53.59197933097312,"[7, 0, 247]",247,a,1.3480135404097382,colour,0.5
046,68,0,2,1,31,31,54.111829354515066,55.055986751031014,"[67, 0, 187]",187,l,0.42085689023952,colour,0.5
046,68,0,2,1,32,32,55.564991443709005,56.10391738692124,"[28, 0, 226]",226,a,0.015540366250206716,colour,0.5
046,68,0,2,1,33,33,56.6119937851181,57.239955259123235,"[26, 0, 228]",228,a,0.11708837702462915,colour,0.5
046,68,0,2,1,34,34,57.75589321265579,58.28796781493293,"[14, 0, 240]",240,a,0.008804422104731202,colour,0.5
046,68,0,2,1,35,35,58.802908157143975,59.51197350205621,"[36, 0, 218]",218,a,0.18570615560747683,colour,0.5
046,68,0,2,1,36,36,60.02164300638833,60.61601495038485,"[74, 0, 180]",180,l,0.07093044092471246,colour,0.5
046,68,0,2,1,37,37,61.121981910662726,61.839907209941885,"[94, 0, 160]",160,l,0.1945475992106367,colour,0.5
046,68,0,2,1,38,38,62.35906642800546,63.03188575322565,"[88, 0, 166]",166,l,0.14951921277679503,colour,0.5
046,68,0,2,1,39,39,63.54655985569116,64.20792260143207,"[43, 0, 211]",211,a,0.13784838120045606,colour,0.5
046,68,0,2,1,40,40,64.71863894780108,65.25598044949584,"[78, 0, 176]",176,l,0.014449807305936702,colour,0.5
046,68,0,2,1,41,41,65.76623245171504,66.37594626368082,"[38, 0, 216]",216,a,0.08419516633148305,colour,0.5
046,68,0,2,1,42,42,66.89355451711162,67.46388532787387,"[87, 0, 167]",167,l,0.047056298280949704,colour,0.5
046,68,0,2,1,43,43,67.97175495704869,68.55197050883726,"[4, 0, 250]",250,a,0.056870934771723114,colour,0.5
046,68,0,2,1,44,44,69.06549970166816,71.15995258097246,"[39, 0, 215]",215,a,1.5711236222850857,colour,0.5
046,68,0,2,1,45,45,71.675124110654,72.3679248069675,"[95, 0, 159]",159,l,0.16944465777487494,colour,0.5
046,68,0,2,1,46,46,72.87833986133046,73.53591499233153,"[99, 0, 155]",155,l,0.1341615909768734,colour,0.5
046,68,0,2,1,47,47,74.05023542130948,76.79188165722007,"[51, 0, 203]",203,a,2.2182756250695093,colour,0.5
046,68,0,2,1,48,48,77.29595658244216,78.51196483745298,"[69, 0, 185]",185,a,0.6920516016689362,colour,0.5
046,68,0,2,1,49,49,79.03098305872118,79.7759624113678,"[48, 0, 206]",206,a,0.2216323725442635,colour,0.5
046,68,0,2,1,50,50,80.29663675407937,80.84789046361402,"[42, 0, 212]",212,a,0.02768184350861702,colour,0.5
046,68,0,2,2,1,51,86.92365339209209,87.66388769094192,"[87, 0, 167]",167,l,0.2160669380245963,colour,0.5
046,68,0,2,2,2,52,88.17461270192871,91.111945932862,"[58, 0, 196]",196,a,2.4143194443749962,colour,0.5
046,68,0,2,2,3,53,91.62795123402611,94.88786580887972,"[26, 0, 228]",228,a,2.7365136378939496,colour,0.5
046,68,0,2,2,4,54,95.39388318141573,96.12790298790787,"[37, 0, 217]",217,a,0.21069251869630534,colour,0.5
046,68,0,2,2,5,55,96.64688024923089,97.24791488205665,"[88, 0, 166]",166,l,0.07712524099042639,colour,0.5
046,68,0,2,2,6,56,97.75693847933144,99.62386784111732,"[6, 0, 248]",248,a,1.3438836737186648,colour,0.5
046,68,0,2,2,7,57,100.13218763600162,100.71988822658022,"[97, 0, 157]",157,l,0.06443474271509331,colour,0.5
046,68,0,2,2,8,58,101.24165509744489,103.5279085017537,"[27, 0, 227]",227,a,1.7629753472283483,colour,0.5
046,68,0,2,2,9,59,104.03865517425584,106.32786124026461,"[61, 0, 193]",193,a,1.7659524273767602,colour,0.5
046,68,0,2,2,10,60,106.8357655278669,109.52788684023835,"[96, 0, 158]",158,l,2.168798750717542,colour,0.5
046,68,0,2,2,11,61,110.03916047836537,110.76784682550351,"[81, 0, 173]",173,l,0.20518025335331913,colour,0.5
046,68,0,2,2,12,62,111.28916234913049,111.84784753443091,"[24, 0, 230]",230,a,0.035329934442415833,colour,0.5
046,68,0,2,2,13,63,112.3552642409777,112.96788699777971,"[38, 0, 216]",216,a,0.08931870591186453,colour,0.5
046,68,0,2,2,14,64,113.47729459466063,114.07192056918575,"[47, 0, 207]",207,a,0.07133137591881678,colour,0.5
046,68,0,2,2,15,65,114.58863439888228,116.75986435952655,"[53, 0, 201]",201,a,1.6479971958178794,colour,0.5
046,68,0,2,2,16,66,117.27624854030728,118.0318656670861,"[25, 0, 229]",229,a,0.23219767906994093,colour,0.5
046,68,0,2,2,17,67,118.54204914014554,122.25588001882716,"[36, 0, 218]",218,a,3.1904835047462257,colour,0.5
046,68,0,2,2,18,68,122.7767808228673,124.52786163410929,"[93, 0, 161]",161,l,1.2277787295752205,colour,0.5
046,68,0,2,2,19,69,125.04253888735548,125.63184912556608,"[94, 0, 160]",160,l,0.06600500577769708,colour,0.5
046,68,0,2,2,20,70,126.14895522565348,127.11981969741464,"[9, 0, 245]",245,a,0.4475312762806425,colour,0.5
046,68,0,2,2,21,71,127.63340599788353,128.75188189353503,"[29, 0, 225]",225,a,0.5950922879128484,colour,0.5
046,68,0,2,2,22,72,129.26126467814902,130.22382963808195,"[41, 0, 213]",213,a,0.4392790259444155,colour,0.5
046,68,0,2,2,23,73,130.72994310897775,131.47991051824647,"[84, 0, 170]",170,l,0.22652748157270253,colour,0.5
046,68,0,2,2,24,74,131.99579412107414,132.5678377670556,"[14, 0, 240]",240,a,0.04875180430826731,colour,0.5
046,68,0,2,2,25,75,133.08958297641948,133.8798683767527,"[71, 0, 183]",183,l,0.2781886245647911,colour,0.5
046,68,0,2,2,26,76,134.3909124027996,135.13588230313326,"[85, 0, 169]",169,l,0.22198486450361088,colour,0.5
046,68,0,2,2,27,77,135.65658185198845,136.27182998466014,"[44, 0, 210]",210,a,0.092103983159177,colour,0.5
046,68,0,2,2,28,78,136.78180235638865,137.4798289921746,"[32, 0, 222]",222,a,0.17460482500609942,colour,0.5
046,68,0,2,2,29,79,137.98695858515566,142.87184967695794,"[57, 0, 197]",197,a,4.36151024098217,colour,0.5
046,68,0,2,2,30,80,143.3781017815636,144.75983954724506,"[62, 0, 192]",192,a,0.8587531236989889,colour,0.5
046,68,0,2,2,31,81,145.26873829540273,146.0238532688236,"[2, 0, 252]",252,a,0.2316919810982654,colour,0.5
046,68,0,2,2,32,82,146.53723201257526,147.1518145459122,"[98, 0, 156]",156,l,0.09130053779517766,colour,0.5
046,68,0,2,2,33,83,147.6623095509567,148.28007790270203,"[77, 0, 177]",177,l,0.09453795000445098,colour,0.5
046,68,0,2,2,34,84,148.77549176567118,150.03987097613572,"[60, 0, 194]",194,a,0.7393926504446426,colour,0.5
046,68,0,2,2,35,85,150.558449271688,151.31981694049318,"[20, 0, 234]",234,a,0.23706128043704666,colour,0.5
046,68,0,2,2,36,86,151.84073586143495,153.51189473290287,"[48, 0, 206]",206,a,1.1478662420995533,colour,0.5
046,68,0,2,2,37,87,154.02842069817416,154.91983387585788,"[72, 0, 182]",182,l,0.3680374468531227,colour,0.5
046,68,0,2,2,38,88,155.43470608275675,160.71982757432852,"[17, 0, 237]",237,l,4.762052960446454,colour,0.5
046,68,0,2,2,39,89,161.23208425148914,161.83181958713976,"[89, 0, 165]",165,l,0.0764604293362936,colour,0.5
046,68,0,2,2,40,90,162.34147924531135,163.10389769462927,"[65, 0, 189]",189,l,0.2389552847307641,colour,0.5
046,68,0,2,2,41,91,163.62323453712452,165.4078355615202,"[69, 0, 185]",185,l,1.261547459405847,colour,0.5
046,68,0,2,2,42,92,165.92035453996505,166.8558359081071,"[90, 0, 164]",164,l,0.412182043393841,colour,0.5
046,68,0,2,2,43,93,167.3749392000609,168.2318113163783,"[68, 0, 186]",186,l,0.3335219854634488,colour,0.5
046,68,0,2,2,44,94,168.75003593842848,170.3837975790375,"[86, 0, 168]",168,l,1.1103705497953342,colour,0.5
046,68,0,2,2,45,95,170.890916932025,171.4877996427822,"[35, 0, 219]",219,a,0.07843123354541603,colour,0.5
046,68,0,2,2,46,96,171.9954317829688,172.64781996521924,"[22, 0, 232]",232,a,0.12755010210094042,colour,0.5
046,68,0,2,2,47,97,173.1687889045861,175.43184755017865,"[40, 0, 214]",214,l,1.7468544523289893,colour,0.5
046,68,0,2,2,48,98,175.94305817299755,176.7038138054777,"[45, 0, 209]",209,a,0.2373263386252802,colour,0.5
046,68,0,2,2,49,99,177.22441646826337,177.85579100968607,"[15, 0, 239]",239,a,0.10791098297340795,colour,0.5
046,68,0,2,2,50,100,178.3651954558154,179.1038925746252,"[49, 0, 205]",205,a,0.21528988031786866,colour,0.5
046,68,0,2,3,1,101,184.27107025617443,184.89580928413488,"[21, 0, 233]",233,a,0.1006252301594941,colour,0.5
046,68,0,2,3,2,102,185.4126570213848,186.19980701558234,"[58, 0, 196]",196,l,0.26395425088412594,colour,0.5
046,68,0,2,3,3,103,186.70954938136856,187.51977479898778,"[64, 0, 190]",190,l,0.28685323140234686,colour,0.5
046,68,0,2,3,4,104,188.0377934397111,188.67175988011877,"[45, 0, 209]",209,a,0.11055802037299145,colour,0.5
046,68,0,2,3,5,105,189.1785007473227,189.7357929001446,"[54, 0, 200]",200,a,0.03393808350665495,colour,0.5
046,68,0,2,3,6,106,190.24298865921446,190.92784863719135,"[12, 0, 242]",242,a,0.16156577321817167,colour,0.5
046,68,0,2,3,7,107,191.44613154842227,192.0397784223751,"[25, 0, 229]",229,a,0.07028650310530793,colour,0.5
046,68,0,2,3,8,108,192.55562382216158,193.29581519181374,"[4, 0, 250]",250,a,0.21695348485081922,colour,0.5
046,68,0,2,3,9,109,193.79393004905432,196.63984025616082,"[8, 0, 246]",246,l,2.322572285469505,colour,0.5
046,68,0,2,3,10,110,197.15358291339362,197.92780610185582,"[68, 0, 186]",186,l,0.24906806246144697,colour,0.5
046,68,0,2,3,11,111,198.43663947161986,199.0237811950501,"[93, 0, 161]",161,l,0.0729166051314678,colour,0.5
046,68,0,2,3,12,112,199.53693111440225,201.2477612822113,"[84, 0, 170]",170,l,1.1875091815309133,colour,0.5
046,68,0,2,3,13,113,201.7576265278767,202.48782169814513,"[95, 0, 159]",159,l,0.2068162886716891,colour,0.5
046,68,0,2,3,14,114,203.0077221339452,203.62378158888896,"[49, 0, 205]",205,a,0.09270420410030056,colour,0.5
046,68,0,2,3,15,115,204.13278588771936,204.69576517339738,"[40, 0, 214]",214,a,0.03962127790146042,colour,0.5
046,68,0,2,3,16,116,205.2115570101596,207.9677983824804,"[46, 0, 208]",208,l,2.2327896292554215,colour,0.5
046,68,0,2,3,17,117,208.47749230524641,209.23976188084634,"[74, 0, 180]",180,l,0.24347387718444224,colour,0.5
046,68,0,2,3,18,118,209.754491121741,210.32779980031773,"[5, 0, 249]",249,a,0.04995618465181906,colour,0.5
046,68,0,2,3,19,119,210.8484016754228,211.40778948157094,"[42, 0, 212]",212,a,0.03634369345672894,colour,0.5
046,68,0,2,3,20,120,211.9265646999993,212.5118171452923,"[96, 0, 158]",158,l,0.06181369913974777,colour,0.5
046,68,0,2,3,21,121,213.02037009687047,213.66382506946684,"[56, 0, 198]",198,a,0.12003513103991281,colour,0.5
046,68,0,2,3,22,122,214.17680445361475,214.81578139985504,"[80, 0, 174]",174,l,0.12819403993489686,colour,0.5
046,68,0,2,3,23,123,215.33660146550392,215.9597481750243,"[18, 0, 236]",236,a,0.10015852292417549,colour,0.5
046,68,0,2,3,24,124,216.4770255980111,217.1357527278742,"[36, 0, 218]",218,a,0.13786059041740373,colour,0.5
046,68,0,2,3,25,125,217.64712837206025,218.1837704036734,"[24, 0, 230]",230,a,0.013400602183537558,colour,0.5
046,68,0,2,3,26,126,218.69409172274754,219.51980079281202,"[67, 0, 187]",187,l,0.30098993133287877,colour,0.5
046,68,0,2,3,27,127,220.03935779510357,221.07179690161138,"[65, 0, 189]",189,l,0.5092473016557051,colour,0.5
046,68,0,2,3,28,128,221.58637293649372,222.351780675177,"[29, 0, 225]",225,a,0.24280670247389935,colour,0.5
046,68,0,2,3,29,129,222.8698670573649,223.61574162142642,"[75, 0, 179]",179,l,0.22257248239475302,colour,0.5
046,68,0,2,3,30,130,224.13554595885216,224.72775214498688,"[69, 0, 185]",185,a,0.06884935990092345,colour,0.5
046,68,0,2,3,31,131,225.24580229337153,226.07179414469283,"[19, 0, 235]",235,a,0.30259091436164454,colour,0.5
046,68,0,2,3,32,132,226.58970959782891,227.319761408231,"[32, 0, 222]",222,a,0.2191243627021322,colour,0.5
046,68,0,2,3,33,133,227.82740181917325,228.52780925262778,"[51, 0, 203]",203,a,0.1769942872779211,colour,0.5
046,68,0,2,3,34,134,229.04673570783052,229.65582921273017,"[23, 0, 231]",231,a,0.0856035587930819,colour,0.5
046,68,0,2,3,35,135,230.17388448110432,230.76779405017442,"[77, 0, 177]",177,l,0.07073312420106959,colour,0.5
046,68,0,2,3,36,136,231.2833385517879,231.8557713173941,"[6, 0, 248]",248,a,0.04909799473534804,colour,0.5
046,68,0,2,3,37,137,232.37710850253643,233.03178532255697,"[11, 0, 243]",243,a,0.13115772932360414,colour,0.5
046,68,0,2,3,38,138,233.54913048700837,234.1437426769262,"[76, 0, 178]",178,l,0.07122149293718394,colour,0.5
046,68,0,2,3,39,139,234.65862079150975,235.2077879061835,"[28, 0, 226]",226,a,0.025870546844089404,colour,0.5
046,68,0,2,3,40,140,235.7212324221764,236.25577052970766,"[13, 0, 241]",241,l,0.011265564287896268,colour,0.5
046,68,0,2,3,41,141,236.76813905905874,237.9437092000444,"[85, 0, 169]",169,l,0.6524913698522141,colour,0.5
046,68,0,2,3,42,142,238.45585087424843,239.00776388158556,"[99, 0, 155]",155,l,0.028677879454335198,colour,0.5
046,68,0,2,3,43,143,239.51842233263596,240.0877957043267,"[97, 0, 157]",157,l,0.04596613319881726,colour,0.5
046,68,0,2,3,44,144,240.5965845695173,241.16773457945965,"[17, 0, 237]",237,a,0.047760100656887516,colour,0.5
046,68,0,2,3,45,145,241.67482754478988,242.36773851791804,"[73, 0, 181]",181,l,0.16959825762023684,colour,0.5
046,68,0,2,3,46,146,242.87807047081878,245.31971335905837,"[3, 0, 251]",251,l,1.9182439205033006,colour,0.5
046,68,0,2,3,47,147,245.83404796647665,246.37572571005148,"[90, 0, 164]",164,l,0.018289409679709934,colour,0.5
046,68,0,2,3,48,148,246.89653159726004,247.47172640322242,"[43, 0, 211]",211,a,0.06126113352365792,colour,0.5
046,68,0,2,3,49,149,247.98101427100482,248.55187244123954,"[87, 0, 167]",167,l,0.04746511019766331,colour,0.5
046,68,0,2,3,50,150,249.04672428630874,249.59989563087584,"[82, 0, 172]",172,l,0.030165041069267318,colour,0.5
046,68,0,2,4,1,151,254.7339477327332,255.85574571741745,"[63, 0, 191]",191,a,0.5976089623436565,colour,0.5
046,68,0,2,4,2,152,256.375481919531,257.1917438112141,"[53, 0, 201]",201,a,0.3053604378073942,colour,0.5
046,68,0,2,4,3,153,257.709840039548,261.49574193650915,"[41, 0, 213]",213,l,3.262599027599208,colour,0.5
046,68,0,2,4,4,154,262.0095708459703,262.67173191707116,"[83, 0, 171]",171,l,0.13880660795257427,colour,0.5
046,68,0,2,4,5,155,263.1815243012679,263.7356983771606,"[26, 0, 228]",228,a,0.03073966203373857,colour,0.5
046,68,0,2,4,6,156,264.2441292365547,264.807691807815,"[49, 0, 205]",205,a,0.03833418994327076,colour,0.5
046,68,0,2,4,7,157,265.32457853580127,265.9996924064617,"[74, 0, 180]",180,l,0.15167709373054095,colour,0.5
046,68,0,2,4,8,158,266.5122039018315,267.24774080222414,"[37, 0, 217]",217,a,0.21246679387695622,colour,0.5
046,68,0,2,4,9,159,267.7623585847614,268.54370880620263,"[38, 0, 216]",216,a,0.25800757366232574,colour,0.5
046,68,0,2,4,10,160,269.05938367077033,269.623731964326,"[99, 0, 155]",155,l,0.04113325179787353,colour,0.5
046,68,0,2,4,11,161,270.1374525662104,270.6877240243921,"[19, 0, 235]",235,a,0.026788995150127448,colour,0.5
046,68,0,2,4,12,162,271.20005198764557,271.7918001311482,"[75, 0, 179]",179,l,0.06698056173627265,colour,0.5
046,68,0,2,4,13,163,272.31132089962193,272.8557142097561,"[93, 0, 161]",161,l,0.020923056319588795,colour,0.5
046,68,0,2,4,14,164,273.37391992722405,273.919687759073,"[12, 0, 242]",242,a,0.03480651341669727,colour,0.5
046,68,0,2,4,15,165,274.4396445148159,275.08770984594594,"[9, 0, 245]",245,a,0.12475616023584735,colour,0.5
046,68,0,2,4,16,166,275.59603161006817,276.15173183829756,"[59, 0, 195]",195,l,0.03236978966742754,colour,0.5
046,68,0,2,4,17,167,276.6616183516453,277.2237618966028,"[39, 0, 215]",215,a,0.03820579622697551,colour,0.5
046,68,0,2,4,18,168,277.7404958124389,278.3517086014035,"[3, 0, 251]",251,a,0.08803910101414658,colour,0.5
046,68,0,2,4,19,169,278.8654839478404,279.4237327520241,"[90, 0, 164]",164,l,0.034821873414330184,colour,0.5
046,68,0,2,4,20,170,279.93448769528186,280.4877354459313,"[25, 0, 229]",229,a,0.029923613619757816,colour,0.5
046,68,0,2,4,21,171,280.99699613834673,281.80774537083926,"[16, 0, 238]",238,a,0.2872951263561845,colour,0.5
046,68,0,2,4,22,172,282.32526382744254,282.9677652994287,"[86, 0, 168]",168,l,0.11912337808462325,colour,0.5
046,68,0,2,4,23,173,283.4723226857168,284.02368588437093,"[45, 0, 209]",209,a,0.02808514157368336,colour,0.5
046,68,0,2,4,24,174,284.534879965664,286.7516802445025,"[85, 0, 169]",169,l,1.693483624883811,colour,0.5
046,68,0,2,4,25,175,287.2694826638908,289.38371684064623,"[42, 0, 212]",212,l,1.5907922798360232,colour,0.5
046,68,0,2,4,26,176,289.89474826362857,290.99174459889764,"[54, 0, 200]",200,a,0.5736127275158651,colour,0.5
046,68,0,2,4,27,177,291.5043053249974,292.15969343045435,"[21, 0, 233]",233,a,0.13206357457966078,colour,0.5
046,68,0,2,4,28,178,292.6762197895732,293.27170592325274,"[65, 0, 189]",189,l,0.07218090124661103,colour,0.5
046,68,0,2,4,29,179,293.7856970971625,294.5596831904695,"[43, 0, 211]",211,a,0.2506572301208507,colour,0.5
046,68,0,2,4,30,180,295.06707547856786,295.5996943756909,"[34, 0, 220]",220,a,0.009277824719902128,colour,0.5
046,68,0,2,4,31,181,296.1140262261906,296.6556657667388,"[96, 0, 158]",158,l,0.018362271162914112,colour,0.5
046,68,0,2,4,32,182,297.1765902015177,297.71168638850213,"[70, 0, 184]",184,l,0.011842942185467109,colour,0.5
046,68,0,2,4,33,183,298.22360672138166,298.82370085050934,"[44, 0, 210]",210,a,0.07697715496760793,colour,0.5
046,68,0,2,4,34,184,299.3330332228652,299.90371022403997,"[40, 0, 214]",214,a,0.047367830280563794,colour,0.5
046,68,0,2,4,35,185,300.4112663519918,301.3676904687454,"[58, 0, 196]",196,l,0.43305114285612945,colour,0.5
046,68,0,2,4,36,186,301.8800097673811,302.57570641161874,"[82, 0, 172]",172,l,0.17220591045042966,colour,0.5
046,68,0,2,4,37,187,303.08332476719806,305.5436442154896,"[20, 0, 234]",234,l,1.9369878282013815,colour,0.5
046,68,0,2,4,38,188,306.0397634562396,306.7116899331013,"[77, 0, 177]",177,l,0.14870592126681004,colour,0.5
046,68,0,2,4,39,189,307.22623958032636,308.8316750457452,"[87, 0, 167]",167,l,1.082240509800613,colour,0.5
046,68,0,2,4,40,190,309.35137265095545,309.8956576535129,"[2, 0, 252]",252,a,0.020921087096212432,colour,0.5
046,68,0,2,4,41,191,310.41391142015345,313.6396988655324,"[18, 0, 236]",236,l,2.702513720607385,colour,0.5
046,68,0,2,4,42,192,314.1406182984647,316.09565017043496,"[97, 0, 157]",157,l,1.4318920547520975,colour,0.5
046,68,0,2,4,43,193,316.60961377515923,317.1517708290339,"[46, 0, 208]",208,a,0.018836461458704434,colour,0.5
046,68,0,2,4,44,194,317.67212064283376,318.8236409859528,"[55, 0, 199]",199,l,0.628256464478909,colour,0.5
046,68,0,2,4,45,195,319.3441554273013,320.0076717216871,"[14, 0, 240]",240,a,0.1401732527592685,colour,0.5
046,68,0,2,4,46,196,320.51615378101997,321.20767802321643,"[51, 0, 203]",203,a,0.1681847451691283,colour,0.5
046,68,0,2,4,47,197,321.71939158705936,322.3116540931369,"[5, 0, 249]",249,a,0.06890567984373774,colour,0.5
046,68,0,2,4,48,198,322.8288527469849,323.3837026622059,"[80, 0, 174]",174,l,0.03153011050017085,colour,0.5
046,68,0,2,4,49,199,323.8793504695641,326.22368982282933,"[92, 0, 162]",162,l,1.8210254562145565,colour,0.5
046,68,0,2,4,50,200,326.74083373211033,327.8236921859061,"[66, 0, 188]",188,l,0.5595642490516184,colour,0.5
046,68,0,2,5,1,201,337.41102689376567,338.67163936331053,"[76, 0, 178]",178,a,0.7364297487511067,colour,0.5
046,68,0,2,5,2,202,339.1776437389344,339.8157368952816,"[78, 0, 176]",176,l,0.11478162236744538,colour,0.5
046,68,0,2,5,3,203,340.3339311912132,340.86395700779394,"[4, 0, 250]",250,a,0.005944707983871922,colour,0.5
046,68,0,2,5,4,204,341.3971469812677,342.0476395838632,"[40, 0, 214]",214,a,0.12481090480287094,colour,0.5
046,68,0,2,5,5,205,342.55600585254433,345.0156368584576,"[9, 0, 245]",245,l,1.9364659825660056,colour,0.5
046,68,0,2,5,6,206,345.5277529326704,346.1996467203571,"[47, 0, 207]",207,a,0.14852869068272412,colour,0.5
046,68,0,2,5,7,207,346.7154031109967,347.28763777216955,"[0, 0, 254]",254,a,0.04895227179804351,colour,0.5
046,68,0,2,5,8,208,347.8091797571251,348.4076650263014,"[61, 0, 193]",193,l,0.07518239981436636,colour,0.5
046,68,0,2,5,9,209,348.9186444616498,349.59964593265613,"[56, 0, 198]",198,l,0.15762731556606013,colour,0.5
046,68,0,2,5,10,210,350.10900941882574,350.935682623327,"[97, 0, 157]",157,l,0.3033108644303866,colour,0.5
046,68,0,2,5,11,211,351.4529226309678,352.0716389694717,"[38, 0, 216]",216,a,0.0953602999652503,colour,0.5
046,68,0,2,5,12,212,352.5790934851975,354.2317219133838,"[90, 0, 164]",164,l,1.1292838111694437,colour,0.5
046,68,0,2,5,13,213,354.75112570966303,355.50364642102795,"[63, 0, 191]",191,l,0.22920051278197207,colour,0.5
046,68,0,2,5,14,214,356.01686920184875,356.59163156517025,"[83, 0, 171]",171,l,0.051414201690931804,colour,0.5
046,68,0,2,5,15,215,357.1110916813923,358.1835872653901,"[52, 0, 202]",202,l,0.5493191391287837,colour,0.5
046,68,0,2,5,16,216,358.70485592137265,359.2636328727385,"[28, 0, 226]",226,a,0.036161736701615155,colour,0.5
046,68,0,2,5,17,217,359.78312528431707,360.51958496533916,"[68, 0, 186]",186,l,0.21347425135900266,colour,0.5
046,68,0,2,5,18,218,361.033136213533,361.8715865879785,"[45, 0, 209]",209,a,0.31505928363185376,colour,0.5
046,68,0,2,5,19,219,362.3924184690113,363.1276099666575,"[10, 0, 244]",244,a,0.20999501783808228,colour,0.5
046,68,0,2,5,20,220,363.6443454578839,364.2796072570054,"[33, 0, 221]",221,a,0.11177618532383349,colour,0.5
046,68,0,2,5,21,221,364.8006679624232,365.4076374571014,"[93, 0, 161]",161,l,0.08357801001693588,colour,0.5
046,68,0,2,5,22,222,365.92721769628406,367.1916469251446,"[48, 0, 206]",206,l,0.741023565758951,colour,0.5
046,68,0,2,5,23,223,367.7093221323594,368.40764533400943,"[17, 0, 237]",237,a,0.17498646154126618,colour,0.5
046,68,0,2,5,24,224,368.9281471722934,370.9996632618713,"[85, 0, 169]",169,l,1.548066315750475,colour,0.5
046,68,0,2,5,25,225,371.5064805351576,372.24761831619253,"[64, 0, 190]",190,l,0.21795385309087578,colour,0.5
046,68,0,2,5,26,226,372.75660331657855,374.91161904086766,"[7, 0, 247]",247,l,1.631999574645306,colour,0.5
046,68,0,2,5,27,227,375.4287424701615,376.0076756601338,"[95, 0, 159]",159,l,0.055619686769205146,colour,0.5
046,68,0,2,5,28,228,376.5225065132254,377.15165149376844,"[34, 0, 220]",220,a,0.1059326957038138,colour,0.5
046,68,0,2,5,29,229,377.6632248485257,378.6556263821549,"[53, 0, 201]",201,l,0.4689935074566165,colour,0.5
046,68,0,2,5,30,230,379.16327033771086,379.7437060492812,"[88, 0, 166]",166,a,0.057024534631636925,colour,0.5
046,68,0,2,5,31,231,380.24609649615013,381.9356066110922,"[13, 0, 241]",241,l,1.1662182732543442,colour,0.5
046,68,0,2,5,32,232,382.4440638581582,383.15958906132437,"[75, 0, 179]",179,l,0.19218334306788165,colour,0.5
046,68,0,2,5,33,233,383.6803921916144,384.3196704298607,"[94, 0, 160]",160,l,0.11577844599378295,colour,0.5
046,68,0,2,5,34,234,384.83773948284215,385.37562646092556,"[46, 0, 208]",208,a,0.01456087181577459,colour,0.5
046,68,0,2,5,35,235,385.88463706128823,386.5275780651573,"[26, 0, 228]",228,a,0.11966334063617978,colour,0.5
046,68,0,2,5,36,236,387.04101903653645,387.5675963396061,"[29, 0, 225]",225,a,0.003327209036797285,colour,0.5
046,68,0,2,5,37,237,388.0879603318608,388.87959898624104,"[44, 0, 210]",210,a,0.26828458506497554,colour,0.5
046,68,0,2,5,38,238,389.4005446887022,391.52758476053714,"[82, 0, 172]",172,l,1.6040377067984082,colour,0.5
046,68,0,2,5,39,239,392.0414057930757,392.71157335475436,"[69, 0, 185]",185,l,0.14682136927149259,colour,0.5
046,68,0,2,5,40,240,393.22907251291326,393.7675884626806,"[98, 0, 156]",156,l,0.015209535791655071,colour,0.5
046,68,0,2,5,41,241,394.2759551252093,394.95158296459704,"[3, 0, 251]",251,a,0.15228282852331176,colour,0.5
046,68,0,2,5,42,242,395.4635155066935,397.5756142517057,"[35, 0, 219]",219,l,1.5890180046553724,colour,0.5
046,68,0,2,5,43,243,398.0888543617475,398.76758334269107,"[11, 0, 243]",243,a,0.15555647453584243,colour,0.5
046,68,0,2,5,44,244,399.2763982017059,399.8556047206366,"[79, 0, 175]",175,l,0.05589104650425725,colour,0.5
046,68,0,2,5,45,245,400.3702169893222,400.94358907708374,"[74, 0, 180]",180,l,0.050118842962547205,colour,0.5
046,68,0,2,5,46,246,401.4627486889949,404.0635891558486,"[84, 0, 170]",170,l,2.0774485883594025,colour,0.5
046,68,0,2,5,47,247,404.57238471641904,405.1355861311167,"[1, 0, 253]",253,a,0.039896182250231504,colour,0.5
046,68,0,2,5,48,248,405.6506225717021,406.31959756839206,"[70, 0, 184]",184,l,0.14439764243434183,colour,0.5
046,68,0,2,5,49,249,406.83946925344935,407.44755923932826,"[42, 0, 212]",212,a,0.08493835329136346,colour,0.5
046,68,0,2,5,50,250,407.9653084895399,408.56758097960846,"[2, 0, 252]",252,a,0.07881326392816845,colour,0.5
046,68,0,2,6,1,251,413.53534706673236,414.06397039855074,"[18, 0, 236]",236,a,0.0044457309995777905,colour,0.5
046,68,0,2,6,2,252,414.5831170135498,415.2795564508997,"[40, 0, 214]",214,a,0.1730664634378627,colour,0.5
046,68,0,2,6,3,253,415.78629928734154,416.81555454469344,"[57, 0, 197]",197,l,0.5057680681784404,colour,0.5
046,68,0,2,6,4,254,417.3332978872204,419.07157477260625,"[77, 0, 177]",177,l,1.2149716529529542,colour,0.5
046,68,0,2,6,5,255,419.5853847774706,420.1915827282937,"[86, 0, 168]",168,l,0.08285569687723182,colour,0.5
046,68,0,2,6,6,256,420.7104753127642,422.6235732444911,"[39, 0, 215]",215,l,1.3897375608794391,colour,0.5
046,68,0,2,6,7,257,423.13256297101907,423.71158753320924,"[13, 0, 241]",241,a,0.05564016675634775,colour,0.5
046,68,0,2,6,8,258,424.22634119252325,424.89554855822644,"[67, 0, 187]",187,l,0.14585644715407398,colour,0.5
046,68,0,2,6,9,259,425.41398743238824,425.975569747141,"[31, 0, 223]",223,a,0.03825502695690375,colour,0.5
046,68,0,2,6,10,260,426.4921756630938,429.30359049493563,"[36, 0, 218]",218,l,2.2881509532162454,colour,0.5
046,68,0,2,6,11,261,429.82055599207524,430.56753450581164,"[92, 0, 162]",162,l,0.2236520136357285,colour,0.5
046,68,0,2,6,12,262,431.0862923950335,431.6715550803201,"[76, 0, 178]",178,l,0.06189955752051901,colour,0.5
046,68,0,2,6,13,263,432.18042192696885,435.0155565139139,"[21, 0, 233]",233,l,2.3117919391515898,colour,0.5
046,68,0,2,6,14,264,435.52458326195483,436.1355443834618,"[25, 0, 229]",229,a,0.08760311374498997,colour,0.5
046,68,0,2,6,15,265,436.64959581579024,437.21559038465784,"[68, 0, 186]",186,l,0.04257197039260063,colour,0.5
046,68,0,2,6,16,266,437.7278643910249,438.45557754527545,"[61, 0, 193]",193,l,0.20425077734398656,colour,0.5
046,68,0,2,6,17,267,438.9623995447182,440.4955564351403,"[2, 0, 252]",252,l,1.0094534799136454,colour,0.5
046,68,0,2,6,18,268,441.00975477193424,441.67156216954754,"[10, 0, 244]",244,a,0.13832532842934597,colour,0.5
046,68,0,2,6,19,269,442.17153440341644,444.39153467910364,"[84, 0, 170]",170,l,1.6966647171211662,colour,0.5
046,68,0,2,6,20,270,444.90615521855943,445.58353527775034,"[93, 0, 161]",161,l,0.15420479586464353,colour,0.5
046,68,0,2,6,21,271,446.0937254461751,446.67158973874757,"[7, 0, 247]",247,a,0.05455669705406763,colour,0.5
046,68,0,2,6,22,272,447.1875477784197,447.7195538515225,"[26, 0, 228]",228,a,0.008635068428702652,colour,0.5
046,68,0,2,6,23,273,448.23450522140774,448.7595469198277,"[1, 0, 253]",253,a,0.0016773891111370176,colour,0.5
046,68,0,2,6,24,274,449.281507956679,450.0635371682147,"[58, 0, 196]",196,l,0.25907568336697295,colour,0.5
046,68,0,2,6,25,275,450.5784597873717,452.3195475499815,"[44, 0, 210]",210,l,1.2176529549178667,colour,0.5
046,68,0,2,6,26,276,452.82862077181926,454.3995707081194,"[51, 0, 203]",203,l,1.047463140959735,colour,0.5
046,68,0,2,6,27,277,454.8961168776732,455.6075464787282,"[4, 0, 250]",250,a,0.18810388863494154,colour,0.5
046,68,0,2,6,28,278,456.1149198622297,458.78354709313135,"[97, 0, 157]",157,l,2.1452711923484458,colour,0.5
046,68,0,2,6,29,279,459.30267362199083,461.85553697917203,"[79, 0, 175]",175,l,2.0295675770466914,colour,0.5
046,68,0,2,6,30,280,462.36544791095366,463.01553485239856,"[46, 0, 208]",208,a,0.12667852142476477,colour,0.5
046,68,0,2,6,31,281,463.5217629324179,464.18354630543035,"[74, 0, 180]",180,l,0.13846632519562263,colour,0.5
046,68,0,2,6,32,282,464.6956548965827,465.3035081811686,"[99, 0, 155]",155,l,0.08462603359657805,colour,0.5
046,68,0,2,6,33,283,465.81757261039456,466.4395019426447,"[9, 0, 245]",245,a,0.09844686921860557,colour,0.5
046,68,0,2,6,34,284,466.9582834626199,467.5755626579048,"[48, 0, 206]",206,a,0.0939684490149375,colour,0.5
046,68,0,2,6,35,285,468.07944971870165,468.6075504171895,"[52, 0, 202]",202,l,0.004758838389534503,colour,0.5
046,68,0,2,6,36,286,469.1263027925597,469.9355829803535,"[19, 0, 235]",235,a,0.28582529396226164,colour,0.5
046,68,0,2,6,37,287,470.4546094723919,472.3675262350589,"[65, 0, 189]",189,l,1.3979827219882281,colour,0.5
046,68,0,2,6,38,288,472.88499152247095,473.5034884888737,"[98, 0, 156]",156,l,0.09591759170871228,colour,0.5
046,68,0,2,6,39,289,474.01258494761714,475.3434937664133,"[50, 0, 204]",204,a,0.8075850756140426,colour,0.5
046,68,0,2,6,40,290,475.85644006750954,476.3995017851121,"[17, 0, 237]",237,a,0.017170100021758117,colour,0.5
046,68,0,2,6,41,291,476.9141313830187,477.49550681057735,"[73, 0, 181]",181,l,0.05798079213127494,colour,0.5
046,68,0,2,6,42,292,478.0079391429608,478.583608139219,"[8, 0, 246]",246,a,0.05083879301673733,colour,0.5
046,68,0,2,6,43,293,479.10335497515916,479.67151451420796,"[24, 0, 230]",230,a,0.0447345775028225,colour,0.5
046,68,0,2,6,44,294,480.181566836618,480.7115784747584,"[0, 0, 254]",254,a,0.004192882028291933,colour,0.5
046,68,0,2,6,45,295,481.2309787264239,481.815520280099,"[32, 0, 222]",222,a,0.061152825932367705,colour,0.5
046,68,0,2,6,46,296,482.32480932942417,484.28746763079835,"[60, 0, 194]",194,l,1.4392585459572729,colour,0.5
046,68,0,2,6,47,297,484.7937035877403,485.3675226904452,"[5, 0, 249]",249,a,0.05035278735158499,colour,0.5
046,68,0,2,6,48,298,485.88755821532686,488.2634820298117,"[72, 0, 182]",182,l,1.8525331175187603,colour,0.5
046,68,0,2,6,49,299,488.77843300584937,489.799522658941,"[55, 0, 199]",199,l,0.4976670546166133,colour,0.5
046,68,0,2,6,50,300,490.30985027953284,490.99147245148197,"[62, 0, 192]",192,l,0.15835277947189752,colour,0.5
046,68,0,2,7,1,301,495.93659280089196,496.6155151601124,"[99, 0, 155]",155,l,0.16133301038644277,colour,0.5
046,68,0,2,7,2,302,497.1360705614061,499.1754641964653,"[19, 0, 235]",235,l,1.5161541748529999,colour,0.5
046,68,0,2,7,3,303,499.68305852745834,500.32749929600686,"[65, 0, 189]",189,l,0.13049449305981398,colour,0.5
046,68,0,2,7,4,304,500.84576527186437,501.4394759488205,"[26, 0, 228]",228,a,0.07038338916026987,colour,0.5
046,68,0,2,7,5,305,501.9551220626454,503.1114898594533,"[47, 0, 207]",207,l,0.632892029141658,colour,0.5
046,68,0,2,7,6,306,503.62715684711293,504.1834998316335,"[92, 0, 162]",162,l,0.032914478360908106,colour,0.5
046,68,0,2,7,7,307,504.6897306685714,506.12748748062586,"[82, 0, 172]",172,l,0.914466151909437,colour,0.5
046,68,0,2,7,8,308,506.64515756785113,507.1995072989521,"[83, 0, 171]",171,l,0.030967304890509695,colour,0.5
046,68,0,2,7,9,309,507.6952295431547,509.9115256994264,"[11, 0, 243]",243,l,1.6929105792951304,colour,0.5
046,68,0,2,7,10,310,510.4296132631571,512.063501722092,"[97, 0, 157]",157,l,1.1103705497807823,colour,0.5
046,68,0,2,7,11,311,512.5724934178579,513.111485527159,"[48, 0, 206]",206,a,0.015746347577078268,colour,0.5
046,68,0,2,7,12,312,513.6194355008629,514.3274882683181,"[69, 0, 185]",185,l,0.18461008284066338,colour,0.5
046,68,0,2,7,13,313,514.8383337960986,515.7674777920183,"[57, 0, 197]",197,l,0.4058147388859652,colour,0.5
046,68,0,2,7,14,314,516.2759413406166,516.8875267076655,"[30, 0, 224]",224,a,0.08831636841932777,colour,0.5
046,68,0,2,7,15,315,517.4010121836181,518.1594783906767,"[44, 0, 210]",210,a,0.23507669162063394,colour,0.5
046,68,0,2,7,16,316,518.6667678850354,519.2554361546499,"[41, 0, 213]",213,a,0.065305141848512,colour,0.5
046,68,0,2,7,17,317,519.7778158495348,521.6560686709563,"[12, 0, 242]",242,l,1.3552228871703846,colour,0.5
046,68,0,2,7,18,318,522.1686215201335,524.1034380766214,"[75, 0, 179]",179,l,1.4113813549483893,colour,0.5
046,68,0,2,7,19,319,524.6219127907389,525.2234361861629,"[6, 0, 248]",248,a,0.0781295476917876,colour,0.5
046,68,0,2,7,20,320,525.7313798583345,526.2714755234774,"[3, 0, 251]",251,a,0.01662304825731553,colour,0.5
046,68,0,2,7,21,321,526.7796062723937,527.3514829277701,"[15, 0, 239]",239,a,0.04838158928032499,colour,0.5
046,68,0,2,7,22,322,527.8578114384727,528.3994769728306,"[84, 0, 170]",170,l,0.018175588265876286,colour,0.5
046,68,0,2,7,23,323,528.9204699367692,529.5914334607514,"[27, 0, 227]",227,a,0.14762205773149617,colour,0.5
046,68,0,2,7,24,324,530.1079873890558,532.8954607306223,"[80, 0, 174]",174,l,2.2641236045456026,colour,0.5
046,68,0,2,7,25,325,533.4051908872061,534.3194668116048,"[61, 0, 193]",193,l,0.3909537565923529,colour,0.5
046,68,0,2,7,26,326,534.8272245885746,535.4794729556015,"[50, 0, 204]",204,l,0.1288848454132676,colour,0.5
046,68,0,2,7,27,327,535.9991902531037,536.6314710336301,"[60, 0, 194]",194,l,0.10897160963213537,colour,0.5
046,68,0,2,7,28,328,537.1398703853629,537.7834576901369,"[35, 0, 219]",219,a,0.12038998608477414,colour,0.5
046,68,0,2,7,29,329,538.2921083154652,538.9034388643049,"[36, 0, 218]",218,a,0.08796899646404199,colour,0.5
046,68,0,2,7,30,330,539.4172409922612,540.0234413061553,"[64, 0, 190]",190,l,0.08284427535545547,colour,0.5
046,68,0,2,7,31,331,540.5423039583548,541.8074271434598,"[45, 0, 209]",209,l,0.7525305575109087,colour,0.5
046,68,0,2,7,32,332,542.314798557738,542.8634414636908,"[32, 0, 222]",222,a,0.025241575145628303,colour,0.5
046,68,0,2,7,33,333,543.3774330314482,544.0154328463395,"[1, 0, 253]",253,a,0.11467292092856951,colour,0.5
046,68,0,2,7,34,334,544.5337378129334,545.079454050996,"[87, 0, 167]",167,l,0.02230348571902141,colour,0.5
046,68,0,2,7,35,335,545.5962805205927,547.4074141465535,"[79, 0, 175]",175,l,1.287738202852779,colour,0.5
046,68,0,2,7,36,336,547.924632886512,548.7834691116586,"[59, 0, 195]",195,l,0.3354667958483333,colour,0.5
046,68,0,2,7,37,337,549.2997280495038,549.9515400354139,"[17, 0, 237]",237,a,0.12919401434191968,colour,0.5
046,68,0,2,7,38,338,550.4717228586087,552.3914181007567,"[94, 0, 160]",160,l,1.4088343543699011,colour,0.5
046,68,0,2,7,39,339,552.9129963195155,553.4634442206152,"[5, 0, 249]",249,a,0.02703081646177452,colour,0.5
046,68,0,2,7,40,340,553.9755953471031,554.559461849145,"[23, 0, 231]",231,a,0.060493921977467835,colour,0.5
046,68,0,2,7,41,341,555.0694330393308,555.6474469932873,"[4, 0, 250]",250,a,0.06226701561536174,colour,0.5
046,68,0,2,7,42,342,556.155549779156,556.7034628888941,"[78, 0, 176]",176,l,0.024585428094724193,colour,0.5
046,68,0,2,7,43,343,557.2181141483161,557.8315553166321,"[21, 0, 233]",233,a,0.09004771441686898,colour,0.5
046,68,0,2,7,44,344,558.345156189389,558.8954804229143,"[73, 0, 181]",181,l,0.026968588834279217,colour,0.5
046,68,0,2,7,45,345,559.4076669955248,560.6074866141716,"[53, 0, 201]",201,l,0.6765667676954763,colour,0.5
046,68,0,2,7,46,346,561.1266088107222,561.8314162890747,"[46, 0, 208]",208,a,0.18151445512194186,colour,0.5
046,68,0,2,7,47,347,562.3454704783071,562.8874006770202,"[37, 0, 217]",217,a,0.018583218625281006,colour,0.5
046,68,0,2,7,48,348,563.4080557213019,563.9354270174226,"[86, 0, 168]",168,l,0.006696559561532922,colour,0.5
046,68,0,2,7,49,349,564.4526485143142,565.4954571860144,"[52, 0, 202]",202,l,0.5197247805772349,colour,0.5
046,68,0,2,7,50,350,566.015014582139,566.6874282462231,"[71, 0, 183]",183,l,0.14912891162384767,colour,0.5
046,68,0,2,8,1,351,571.5210654315742,573.9514171555347,"[44, 0, 210]",210,l,1.9061414339521434,colour,0.5
046,68,0,2,8,2,352,574.4596333689842,575.1033943597431,"[60, 0, 194]",194,l,0.12046402908163145,colour,0.5
046,68,0,2,8,3,353,575.615881436679,576.1994265605608,"[63, 0, 191]",191,l,0.06020050687948242,colour,0.5
046,68,0,2,8,4,354,576.7117486161296,577.2713735174184,"[3, 0, 251]",251,a,0.036123139812843874,colour,0.5
046,68,0,2,8,5,355,577.7929915145942,578.3433972741914,"[92, 0, 162]",162,l,0.027025302610127255,colour,0.5
046,68,0,2,8,6,356,578.8556275636947,579.6874207631627,"[51, 0, 203]",203,l,0.308518293153611,colour,0.5
046,68,0,2,8,7,357,580.1994659451448,580.7433953049622,"[15, 0, 239]",239,l,0.02091833016311284,colour,0.5
046,68,0,2,8,8,358,581.262053157363,582.0154143355903,"[9, 0, 245]",245,a,0.22992479514505249,colour,0.5
046,68,0,2,8,9,359,582.5277769572713,583.1354073251423,"[64, 0, 190]",190,l,0.0842510924267117,colour,0.5
046,68,0,2,8,10,360,583.652908058677,584.6074220234586,"[25, 0, 229]",229,a,0.43115044316800777,colour,0.5
046,68,0,2,8,11,361,585.1217613570334,585.7594370368606,"[2, 0, 252]",252,a,0.11495255143381655,colour,0.5
046,68,0,2,8,12,362,586.278055504692,586.8393782750791,"[8, 0, 246]",246,a,0.03606721371761523,colour,0.5
046,68,0,2,8,13,363,587.3585725454031,588.2954599429358,"[42, 0, 212]",212,l,0.4135199374577496,colour,0.5
046,68,0,2,8,14,364,588.8117783514899,589.3993710283103,"[80, 0, 174]",174,l,0.06404877385648433,colour,0.5
046,68,0,2,8,15,365,589.9056254960014,590.4633701776038,"[1, 0, 253]",253,a,0.034406366117764264,colour,0.5
046,68,0,2,8,16,366,590.9838452343683,591.6313942337001,"[23, 0, 231]",231,a,0.12414963774790522,colour,0.5
046,68,0,2,8,17,367,592.142520179681,592.7274098930211,"[29, 0, 225]",225,a,0.06469625630415976,colour,0.5
046,68,0,2,8,18,368,593.2366252931679,595.1034813996521,"[81, 0, 173]",173,l,1.3439203013695078,colour,0.5
046,68,0,2,8,19,369,595.6117645668855,596.231399747543,"[62, 0, 192]",192,l,0.09633467436651699,colour,0.5
046,68,0,2,8,20,370,596.7433362281008,597.3513758017216,"[94, 0, 160]",160,l,0.08479696266294923,colour,0.5
046,68,0,2,8,21,371,597.8683306650346,598.4154119725135,"[83, 0, 171]",171,l,0.023698881268501282,colour,0.5
046,68,0,2,8,22,372,598.9309040926455,600.2714538619621,"[58, 0, 196]",196,l,0.8172236630489351,colour,0.5
046,68,0,2,8,23,373,600.7903748033277,601.3754063011438,"[82, 0, 172]",172,l,0.06192200673103798,colour,0.5
046,68,0,2,8,24,374,601.8842510924296,603.7034105074126,"[87, 0, 167]",167,l,1.2965493203228107,colour,0.5
046,68,0,2,8,25,375,604.2125246892101,605.4313902952563,"[47, 0, 207]",207,l,0.6954886936728144,colour,0.5
046,68,0,2,8,26,376,605.9470068706432,606.655358173186,"[56, 0, 198]",198,l,0.18495075943064876,colour,0.5
046,68,0,2,8,27,377,607.1658642059192,607.7753767627146,"[21, 0, 233]",233,a,0.08608129371714313,colour,0.5
046,68,0,2,8,28,378,608.2909842796507,608.8634024729545,"[89, 0, 165]",165,l,0.049164160824147984,colour,0.5
046,68,0,2,8,29,379,609.3692000795563,609.9594090738101,"[93, 0, 161]",161,l,0.07426080072764307,colour,0.5
046,68,0,2,8,30,380,610.471251819079,611.1674187151657,"[98, 0, 156]",156,l,0.17279904217866715,colour,0.5
046,68,0,2,8,31,381,611.6745018343354,612.4153647110215,"[77, 0, 177]",177,l,0.21749935507250484,colour,0.5
046,68,0,2,8,32,382,612.924610831149,613.6635237774608,"[46, 0, 208]",208,a,0.21561598463449627,colour,0.5
046,68,0,2,8,33,383,614.1765456969442,614.7114528379607,"[73, 0, 181]",181,l,0.011599151664995588,colour,0.5
046,68,0,2,8,34,384,615.223536222984,615.8954374937312,"[16, 0, 238]",238,a,0.1487157674273476,colour,0.5
046,68,0,2,8,35,385,616.4141158261045,617.0473729502846,"[34, 0, 220]",220,a,0.10986406414303929,colour,0.5
046,68,0,2,8,36,386,617.554849521388,618.1434055449645,"[4, 0, 250]",250,a,0.06510152359260246,colour,0.5
046,68,0,2,8,37,387,618.6643091059086,620.543407514182,"[17, 0, 237]",237,l,1.3557628497073893,colour,0.5
046,68,0,2,8,38,388,621.0458590071503,622.8073570389097,"[85, 0, 169]",169,l,1.2382054023764795,colour,0.5
046,68,0,2,8,39,389,623.3278647848783,624.8314060490811,"[52, 0, 202]",202,a,0.9801092134293867,colour,0.5
046,68,0,2,8,40,390,625.3436922646797,626.287406190866,"[0, 0, 254]",254,a,0.42037442917353474,colour,0.5
046,68,0,2,8,41,391,626.7968063046865,628.4313721783401,"[33, 0, 221]",221,l,1.1110609614115674,colour,0.5
046,68,0,2,8,42,392,628.9376900552015,629.5593342431239,"[91, 0, 163]",163,l,0.09832005089265294,colour,0.5
046,68,0,2,8,43,393,630.0802464686858,631.1433441050176,"[55, 0, 199]",199,l,0.5393075797619531,colour,0.5
046,68,0,2,8,44,394,631.6585841638589,632.3273362438631,"[40, 0, 214]",214,a,0.14549607828666922,colour,0.5
046,68,0,2,8,45,395,632.8461776283802,633.4873301786283,"[43, 0, 211]",211,a,0.11782014244818129,colour,0.5
046,68,0,2,8,46,396,634.0024509022041,634.5433618280804,"[88, 0, 166]",166,l,0.018245298968395218,colour,0.5
046,68,0,2,8,47,397,635.0650668651651,635.743356708088,"[36, 0, 218]",218,a,0.1550070596858859,colour,0.5
046,68,0,2,8,48,398,636.2402931787947,636.8633733283787,"[26, 0, 228]",228,a,0.09991394470853265,colour,0.5
046,68,0,2,8,49,399,637.3809654341312,637.9513470509846,"[41, 0, 213]",213,a,0.04733395954826847,colour,0.5
046,68,0,2,8,50,400,638.4593060831539,638.9834163363266,"[67, 0, 187]",187,l,0.000886940659256652,colour,0.5
046,68,0,2,9,1,401,643.8651255481818,644.575336984286,"[14, 0, 240]",240,a,0.1861732566903811,colour,0.5
046,68,0,2,9,2,402,645.084737491954,645.7033053505875,"[4, 0, 250]",250,a,0.09528192464495078,colour,0.5
046,68,0,2,9,3,403,646.2097492580942,646.9513383863814,"[58, 0, 196]",196,l,0.21820945899526123,colour,0.5
046,68,0,2,9,4,404,647.4599240271491,648.1913204270095,"[17, 0, 237]",237,a,0.20804823822982144,colour,0.5
046,68,0,2,9,5,405,648.7099833993998,649.3192990333046,"[63, 0, 191]",191,l,0.08623686277132947,colour,0.5
046,68,0,2,9,6,406,649.8351235592709,650.3673308875586,"[88, 0, 166]",166,a,0.012370301672490314,colour,0.5
046,68,0,2,9,7,407,650.8785155165388,651.8233341801097,"[20, 0, 234]",234,a,0.421331474382896,colour,0.5
046,68,0,2,9,8,408,652.3317618887231,652.8953610876488,"[6, 0, 248]",248,a,0.040726802981225774,colour,0.5
046,68,0,2,9,9,409,653.4118011945393,653.9753283196769,"[1, 0, 253]",253,a,0.039959591420483775,colour,0.5
046,68,0,2,9,10,410,654.4808010035194,655.5913499654416,"[44, 0, 210]",210,l,0.5995809481100878,colour,0.5
046,68,0,2,9,11,411,656.1089574311773,656.9993225852813,"[54, 0, 200]",200,l,0.36682676496275235,colour,0.5
046,68,0,2,9,12,412,657.515452341715,658.1433366219426,"[78, 0, 176]",176,l,0.10450106633652467,colour,0.5
046,68,0,2,9,13,413,658.6562076984992,660.7433019635209,"[80, 0, 174]",174,l,1.562065957346931,colour,0.5
046,68,0,2,9,14,414,661.2516997398634,661.8393002936209,"[25, 0, 229]",229,a,0.06426223827293143,colour,0.5
046,68,0,2,9,15,415,662.3456028104847,662.9913338177721,"[66, 0, 188]",188,l,0.12238481489475816,colour,0.5
046,68,0,2,9,16,416,663.5018512720271,664.0633107069007,"[77, 0, 177]",177,l,0.03807149482599925,colour,0.5
046,68,0,2,9,17,417,664.5721712520171,666.7593606307928,"[23, 0, 231]",231,l,1.6638219187007053,colour,0.5
046,68,0,2,9,18,418,667.2755451317789,667.8473083595745,"[8, 0, 246]",246,a,0.048364260073867626,colour,0.5
046,68,0,2,9,19,419,668.3413898423314,668.9033108644362,"[16, 0, 238]",238,a,0.03857443586457521,colour,0.5
046,68,0,2,9,20,420,669.4195292361546,671.3673096198763,"[99, 0, 155]",155,l,1.424327459113556,colour,0.5
046,68,0,2,9,21,421,671.8885128974653,674.3273004038929,"[85, 0, 169]",169,l,1.915448403247865,colour,0.5
046,68,0,2,9,22,422,674.8418713187712,675.4313209784013,"[91, 0, 163]",163,l,0.06615230410534423,colour,0.5
046,68,0,2,9,23,423,675.9512954571837,676.9113193242374,"[53, 0, 201]",201,l,0.43693524978880305,colour,0.5
046,68,0,2,9,24,424,677.42017041707,677.9993154960684,"[89, 0, 165]",165,l,0.0557874650839949,colour,0.5
046,68,0,2,9,25,425,678.5139829031541,679.0793705557007,"[33, 0, 221]",221,a,0.041980020207120106,colour,0.5
046,68,0,2,9,26,426,679.5950395125838,680.5592794985569,"[48, 0, 206]",206,a,0.4397992961894488,colour,0.5
046,68,0,2,9,27,427,681.0807391697308,681.6473587718356,"[93, 0, 161]",161,l,0.04336478191544302,colour,0.5
046,68,0,2,9,28,428,682.149584591185,682.8473414426262,"[34, 0, 220]",220,a,0.17431298529845662,colour,0.5
046,68,0,2,9,29,429,683.3684852494916,684.0472831534425,"[24, 0, 230]",230,a,0.15542532388644759,colour,0.5
046,68,0,2,9,30,430,684.557600927903,686.9593279415858,"[81, 0, 173]",173,l,1.8788888823182788,colour,0.5
046,68,0,2,9,31,431,687.4796962661494,688.1752893289522,"[72, 0, 182]",182,l,0.17221693812462036,colour,0.5
046,68,0,2,9,32,432,688.6836296038091,689.2473713749059,"[27, 0, 227]",227,a,0.04104503036069218,colour,0.5
046,68,0,2,9,33,433,689.7611014290742,690.287293944828,"[96, 0, 158]",158,l,0.0028321449062786996,colour,0.5
046,68,0,2,9,34,434,690.80805257053,691.7112956935016,"[59, 0, 195]",195,l,0.38033803782309406,colour,0.5
046,68,0,2,9,35,435,692.2300457058009,692.7752901166386,"[3, 0, 251]",251,a,0.02169341863191221,colour,0.5
046,68,0,2,9,36,436,693.2925990472868,693.927307099264,"[7, 0, 247]",247,a,0.1107076817570487,colour,0.5
046,68,0,2,9,37,437,694.4348470795376,695.0312780492095,"[69, 0, 185]",185,l,0.07064569044450764,colour,0.5
046,68,0,2,9,38,438,695.5474838178634,696.2953252476873,"[32, 0, 222]",222,a,0.22456731120473705,colour,0.5
046,68,0,2,9,39,439,696.8131678393402,699.1753275319934,"[70, 0, 184]",184,l,1.8387138572725235,colour,0.5
046,68,0,2,9,40,440,699.6885353466787,701.2873459324619,"[42, 0, 212]",212,l,1.0755896363407373,colour,0.5
046,68,0,2,9,41,441,701.7979453066364,702.3912751347525,"[90, 0, 164]",164,l,0.06906873200205155,colour,0.5
046,68,0,2,9,42,442,702.9082957702922,703.5032750244718,"[87, 0, 167]",167,l,0.07164960329828318,colour,0.5
046,68,0,2,9,43,443,704.0177155764104,706.0073397097003,"[37, 0, 217]",217,l,1.4662078363471664,colour,0.5
046,68,0,2,9,44,444,706.5214896034595,707.0712620590639,"[62, 0, 192]",192,l,0.02645658933033701,colour,0.5
046,68,0,2,9,45,445,707.5840197080397,708.1993001360825,"[68, 0, 186]",186,l,0.09226388455135748,colour,0.5
046,68,0,2,9,46,446,708.7091358433099,709.3753062643227,"[35, 0, 219]",219,a,0.1428458901209524,colour,0.5
046,68,0,2,9,47,447,709.8810940247786,710.519308091767,"[61, 0, 193]",193,l,0.11487299458531197,colour,0.5
046,68,0,2,9,48,448,711.0278653756395,711.6233077924408,"[15, 0, 239]",239,a,0.07203163369558752,colour,0.5
046,68,0,2,9,49,449,712.1373367755441,712.7353084698552,"[29, 0, 225]",225,a,0.07461801884346642,colour,0.5
046,68,0,2,9,50,450,713.234391793827,714.023268014018,"[49, 0, 205]",205,l,0.26562061232107226,colour,0.5
046,68,0,2,10,1,451,718.7478032267827,719.8152792464971,"[65, 0, 189]",189,l,0.5433381973271025,colour,0.5
046,68,0,2,10,2,452,720.3269191611907,722.0953713276394,"[3, 0, 251]",251,l,1.2451000663713785,colour,0.5
046,68,0,2,10,3,453,722.6087977267307,723.7032502121874,"[50, 0, 204]",204,l,0.5711366191826528,colour,0.5
046,68,0,2,10,4,454,724.2211447914888,724.7752987812419,"[60, 0, 194]",194,l,0.03078692352573853,colour,0.5
046,68,0,2,10,5,455,725.2796108016191,725.8632638392446,"[42, 0, 212]",212,a,0.06033914058934897,colour,0.5
046,68,0,2,10,6,456,726.3733567277814,728.7272275424184,"[9, 0, 245]",245,l,1.8314777290070197,colour,0.5
046,68,0,2,10,7,457,729.2485505491204,729.8872368371813,"[95, 0, 159]",159,l,0.11530898183991667,colour,0.5
046,68,0,2,10,8,458,730.404931736688,730.9992367269151,"[34, 0, 220]",220,a,0.07094619476993103,colour,0.5
046,68,0,2,10,9,459,731.5142495367472,732.1992607514985,"[69, 0, 185]",185,l,0.1614716440817574,colour,0.5
046,68,0,2,10,10,460,732.7175897426787,733.3432676989323,"[74, 0, 180]",180,l,0.10077528537658509,colour,0.5
046,68,0,2,10,11,461,733.8598401380004,734.6392455490568,"[8, 0, 246]",246,a,0.25607654787017964,colour,0.5
046,68,0,2,10,12,462,735.1567836979375,735.8632756546285,"[17, 0, 237]",237,a,0.18331511797441635,colour,0.5
046,68,0,2,10,13,463,736.3756595439627,736.9512462264684,"[59, 0, 195]",195,l,0.05221489012183156,colour,0.5
046,68,0,2,10,14,464,737.4694873900444,738.0872884309792,"[64, 0, 190]",190,l,0.09482782047416549,colour,0.5
046,68,0,2,10,15,465,738.5945826514944,739.1272688962345,"[36, 0, 218]",218,a,0.009231350908521563,colour,0.5
046,68,0,2,10,16,466,739.6415211898857,740.3593389692687,"[4, 0, 250]",250,a,0.2053826900810236,colour,0.5
046,68,0,2,10,17,467,740.8556472559867,741.4232305986661,"[89, 0, 165]",165,l,0.044230454906937666,colour,0.5
046,68,0,2,10,18,468,741.9339158312214,742.575249944377,"[93, 0, 161]",161,l,0.11794971772178542,colour,0.5
046,68,0,2,10,19,469,743.0902359726897,744.1192411379743,"[19, 0, 235]",235,a,0.5058043019671459,colour,0.5
046,68,0,2,10,20,470,744.637244024867,745.231250086159,"[67, 0, 187]",187,l,0.07067719810584094,colour,0.5
046,68,0,2,10,21,471,745.7466228710255,746.4072609405412,"[58, 0, 196]",196,l,0.13715521263657138,colour,0.5
046,68,0,2,10,22,472,746.9193860732194,747.4712628467532,"[57, 0, 197]",197,l,0.029212722001830116,colour,0.5
046,68,0,2,10,23,473,747.9812076492817,748.6232518663455,"[29, 0, 225]",225,a,0.1159088089625584,colour,0.5
046,68,0,2,10,24,474,749.1404749386129,750.8472252581123,"[92, 0, 162]",162,l,1.1837235360144405,colour,0.5
046,68,0,2,10,25,475,751.3594307353342,751.9112744258309,"[35, 0, 219]",219,a,0.028662913318839855,colour,0.5
046,68,0,2,10,26,476,752.4218749815482,753.0872364433453,"[32, 0, 222]",222,a,0.14193059256649576,colour,0.5
046,68,0,2,10,27,477,753.5951470324799,754.2952417523775,"[54, 0, 200]",200,l,0.1752337966900086,colour,0.5
046,68,0,2,10,28,478,754.8155214616418,755.4232345371274,"[84, 0, 170]",170,l,0.08429953546146862,colour,0.5
046,68,0,2,10,29,479,755.9406754061056,756.583237530358,"[21, 0, 233]",233,a,0.11773861639085226,colour,0.5
046,68,0,2,10,30,480,757.0984606538259,758.295224423171,"[45, 0, 209]",209,l,0.6733651954564266,colour,0.5
046,68,0,2,10,31,481,758.8017380413658,759.6552376563777,"[23, 0, 231]",231,a,0.3301404257072136,colour,0.5
046,68,0,2,10,32,482,760.1612231274194,760.7992331822898,"[11, 0, 243]",243,a,0.11463353635917883,colour,0.5
046,68,0,2,10,33,483,761.317584622695,761.959242083205,"[61, 0, 193]",193,l,0.11828488044557162,colour,0.5
046,68,0,2,10,34,484,762.4738626226608,763.1112559150788,"[94, 0, 160]",160,l,0.11416131528676488,colour,0.5
046,68,0,2,10,35,485,763.6301611026138,764.3112224381766,"[25, 0, 229]",229,a,0.15755996793450322,colour,0.5
046,68,0,2,10,36,486,764.8197950820468,765.3832087796181,"[80, 0, 174]",174,l,0.04028136341366917,colour,0.5
046,68,0,2,10,37,487,765.8980037927395,766.56722494305,"[15, 0, 239]",239,a,0.14591985633887816,colour,0.5
046,68,0,2,10,38,488,767.0855661434471,767.7432480066491,"[18, 0, 236]",236,a,0.13427738162863534,colour,0.5
046,68,0,2,10,39,489,768.2575731617835,770.4632102762262,"[78, 0, 176]",176,l,1.6824153773195576,colour,0.5
046,68,0,2,10,40,490,770.9765181277326,771.7352127653285,"[79, 0, 175]",175,l,0.23530118369671982,colour,0.5
046,68,0,2,10,41,491,772.2422691029933,774.0072672420793,"[6, 0, 248]",248,l,1.2417287466087146,colour,0.5
046,68,0,2,10,42,492,774.523713650502,775.1352509683784,"[47, 0, 207]",207,a,0.08848296519136056,colour,0.5
046,68,0,2,10,43,493,775.6394196288747,776.6552029979503,"[31, 0, 223]",223,a,0.4925600565475179,colour,0.5
046,68,0,2,10,44,494,777.1707494688017,777.8072317959595,"[13, 0, 241]",241,a,0.11308611634012777,colour,0.5
046,68,0,2,10,45,495,778.314689462466,780.7752152859466,"[99, 0, 155]",155,l,1.9380417594657047,colour,0.5
046,68,0,2,10,46,496,781.2837280652602,783.8312240923406,"[24, 0, 230]",230,l,2.024166376213543,colour,0.5
046,68,0,2,10,47,497,784.346360569747,784.9992528745788,"[75, 0, 179]",179,l,0.12942205103172455,colour,0.5
046,68,0,2,10,48,498,785.5184369049239,786.0871891818533,"[41, 0, 213]",213,a,0.045379696864984,colour,0.5
046,68,0,2,10,49,499,786.5965715726052,787.3191757595778,"[77, 0, 177]",177,l,0.19922609307104722,colour,0.5
046,68,0,2,10,50,500,787.8310661601863,788.3672091892076,"[52, 0, 202]",202,a,0.012861427327152342,colour,0.5
046,68,0,2,11,1,501,793.4088887051039,794.0231793987186,"[88, 0, 166]",166,l,0.09023006500501651,colour,0.5
046,68,0,2,11,2,502,794.5348303410865,795.207188472923,"[55, 0, 199]",199,a,0.149070622457657,colour,0.5
046,68,0,2,11,3,503,795.7242607022636,797.7111791151547,"[91, 0, 163]",163,l,1.4636352358065778,colour,0.5
046,68,0,2,11,4,504,798.2244822405191,798.807236915949,"[74, 0, 180]",180,l,0.05958098747942131,colour,0.5
046,68,0,2,11,5,505,799.3182218651345,799.9672426660982,"[17, 0, 237]",237,a,0.125566300979699,colour,0.5
046,68,0,2,11,6,506,800.4747054525942,801.0551864564331,"[34, 0, 220]",220,a,0.057626330948551185,colour,0.5
046,68,0,2,11,7,507,801.5683982095798,802.1831910565525,"[46, 0, 208]",208,a,0.09132574392424431,colour,0.5
046,68,0,2,11,8,508,802.6935797232436,804.7272759854532,"[65, 0, 189]",189,l,1.5225592885544756,colour,0.5
046,68,0,2,11,9,509,805.2464596219506,806.5352135530266,"[45, 0, 209]",209,a,0.7653864710009657,colour,0.5
046,68,0,2,11,10,510,807.0451756847469,807.9032080706966,"[64, 0, 190]",190,l,0.3353387959796237,colour,0.5
046,68,0,2,11,11,511,808.4202925092541,809.0551588872331,"[57, 0, 197]",197,l,0.11145835179195274,colour,0.5
046,68,0,2,11,12,512,809.5766583368386,810.2791708759032,"[89, 0, 165]",165,l,0.17922778661886696,colour,0.5
046,68,0,2,11,13,513,810.795533001321,811.3912026671314,"[72, 0, 182]",182,l,0.07233883340086322,colour,0.5
046,68,0,2,11,14,514,811.9048039337358,812.5431877482479,"[18, 0, 236]",236,a,0.11489032380632125,colour,0.5
046,68,0,2,11,15,515,813.0612697981414,813.6231667956599,"[31, 0, 223]",223,a,0.03842280525714159,colour,0.5
046,68,0,2,11,16,516,814.1395100164809,815.0151831481344,"[53, 0, 201]",201,l,0.3524746314069489,colour,0.5
046,68,0,2,11,17,517,815.5300762288534,816.1831339489145,"[22, 0, 232]",232,a,0.12950790939794388,colour,0.5
046,68,0,2,11,18,518,816.7021915547666,817.3351718053746,"[12, 0, 242]",242,a,0.11020395303785335,colour,0.5
046,68,0,2,11,19,519,817.8428937423887,818.5832891241444,"[24, 0, 230]",230,a,0.21701177401700988,colour,0.5
046,68,0,2,11,20,520,819.0960967915453,819.6951940970466,"[19, 0, 235]",235,a,0.07569794393202756,colour,0.5
046,68,0,2,11,21,521,820.205636326762,820.8071841406199,"[29, 0, 225]",225,a,0.0783556151582161,colour,0.5
046,68,0,2,11,22,522,821.314947825289,821.8872238402691,"[44, 0, 210]",210,a,0.049270893025095575,colour,0.5
046,68,0,2,11,23,523,822.4022224716609,822.9432310712873,"[63, 0, 191]",191,l,0.01770297334587667,colour,0.5
046,68,0,2,11,24,524,823.4648116531171,824.0551423457073,"[73, 0, 181]",181,l,0.06698765096371062,colour,0.5
046,68,0,2,11,25,525,824.570807364129,825.5032222491427,"[51, 0, 203]",203,l,0.4089820465451339,colour,0.5
046,68,0,2,11,26,526,826.0240852439747,826.631144535495,"[75, 0, 179]",179,l,0.08390687123755924,colour,0.5
046,68,0,2,11,27,527,827.1491391516174,829.0711687176226,"[71, 0, 183]",183,l,1.3987456012400798,colour,0.5
046,68,0,2,11,28,528,829.5868680006242,830.2151429758669,"[20, 0, 234]",234,a,0.10482323217729572,colour,0.5
046,68,0,2,11,29,529,830.7275733390125,832.4631842824019,"[96, 0, 158]",158,l,1.2121781049354468,colour,0.5
046,68,0,2,11,30,530,832.9777303850133,833.5431578159769,"[32, 0, 222]",222,a,0.04200758940714877,colour,0.5
046,68,0,2,11,31,531,834.0562269969523,835.0071605098783,"[35, 0, 219]",219,a,0.42765191123180557,colour,0.5
046,68,0,2,11,32,532,835.5250928983733,838.0631445039908,"[98, 0, 156]",156,l,2.0147570070112124,colour,0.5
046,68,0,2,11,33,533,838.5723406056932,840.6311587139353,"[16, 0, 238]",238,l,1.5356420572061324,colour,0.5
046,68,0,2,11,34,534,841.1505467563838,841.7991725300526,"[40, 0, 214]",214,a,0.12522641208488494,colour,0.5
046,68,0,2,11,35,535,842.3068405101949,842.8871517664957,"[43, 0, 211]",211,a,0.05712969144224189,colour,0.5
046,68,0,2,11,36,536,843.4007360977412,844.015156366615,"[3, 0, 251]",251,a,0.09108904261665884,colour,0.5
046,68,0,2,11,37,537,844.5257521961903,845.0711305145815,"[30, 0, 224]",224,a,0.021929332258878276,colour,0.5
046,68,0,2,11,38,538,845.5884355067683,846.1591637078964,"[15, 0, 239]",239,a,0.0473737379652448,colour,0.5
046,68,0,2,11,39,539,846.6665634790843,847.2551486472366,"[58, 0, 196]",196,l,0.06508261899580248,colour,0.5
046,68,0,2,11,40,540,847.7760860789276,848.5431353667664,"[6, 0, 248]",248,a,0.251484306238126,colour,0.5
046,68,0,2,11,41,541,849.0495473727497,850.871128939194,"[99, 0, 155]",155,l,1.2981845679314574,colour,0.5
046,68,0,2,11,42,542,851.3778855602432,851.9671961923013,"[82, 0, 172]",172,l,0.06627400244178716,colour,0.5
046,68,0,2,11,43,543,852.487336086313,853.8551183211239,"[11, 0, 243]",243,l,0.8433210650400724,colour,0.5
046,68,0,2,11,44,544,854.3635413035954,856.8231246541545,"[50, 0, 204]",204,a,1.9361028567509493,colour,0.5
046,68,0,2,11,45,545,857.3326318940235,857.9591231417871,"[66, 0, 188]",188,l,0.10309424926526845,colour,0.5
046,68,0,2,11,46,546,858.4739740810182,860.6631500178191,"[49, 0, 205]",205,l,1.6659443535318132,colour,0.5
046,68,0,2,11,47,547,861.1772983362025,862.7750963445287,"[76, 0, 178]",178,l,1.0744431513157906,colour,0.5
046,68,0,2,11,48,548,863.2796364015958,863.8551108380489,"[86, 0, 168]",168,l,0.05216920402017422,colour,0.5
046,68,0,2,11,49,549,864.373566253722,864.9671339646738,"[0, 0, 254]",254,a,0.07047751829668414,colour,0.5
046,68,0,2,11,50,550,865.4784410796856,866.0071597221831,"[90, 0, 164]",164,l,0.005326370141119696,colour,0.5
046,68,0,2,12,1,551,871.775035692277,872.4711706868547,"[38, 0, 216]",216,a,0.17258872852835339,colour,0.5
046,68,0,2,12,2,552,872.9815388735587,875.407106159153,"[95, 0, 159]",159,l,1.902271505445242,colour,0.5
046,68,0,2,12,3,553,875.9192667379539,877.3271424717386,"[83, 0, 171]",171,l,0.8844850368186599,colour,0.5
046,68,0,2,12,4,554,877.8431973974657,879.2710875853954,"[85, 0, 169]",169,l,0.9045420262991684,colour,0.5
046,68,0,2,12,5,555,879.7807791450759,880.3272086378274,"[78, 0, 176]",176,l,0.0230545496015111,colour,0.5
046,68,0,2,12,6,556,880.845226097008,881.5031281200063,"[47, 0, 207]",207,a,0.1344928152684588,colour,0.5
046,68,0,2,12,7,557,882.0172272076597,883.6150768097723,"[66, 0, 188]",188,l,1.074844086309895,colour,0.5
046,68,0,2,12,8,558,884.1267848597781,884.7190977781283,"[11, 0, 243]",243,a,0.06904470741574187,colour,0.5
046,68,0,2,12,9,559,885.2362231766456,885.8070998576295,"[10, 0, 244]",244,a,0.047609651592210867,colour,0.5
046,68,0,2,12,10,560,886.314408256585,887.0630881840334,"[49, 0, 205]",205,l,0.23461471052723937,colour,0.5
046,68,0,2,12,11,561,887.5707687672402,888.2151075297443,"[7, 0, 247]",247,a,0.12087638559751213,colour,0.5
046,68,0,2,12,12,562,888.7272220285813,890.2470842613402,"[92, 0, 162]",162,l,0.996628680251888,colour,0.5
046,68,0,2,12,13,563,890.7586174438329,891.3191363750084,"[31, 0, 223]",223,a,0.03723102796357125,colour,0.5
046,68,0,2,12,14,564,891.8243778713804,892.3511383127334,"[82, 0, 172]",172,l,0.0036092025984544307,colour,0.5
046,68,0,2,12,15,565,892.8712466990837,893.5350820085441,"[43, 0, 211]",211,a,0.14037175102566835,colour,0.5
046,68,0,2,12,16,566,894.0433108250436,894.6150772036199,"[45, 0, 209]",209,a,0.04567153657262679,colour,0.5
046,68,0,2,12,17,567,895.1242252561497,896.9671422354295,"[22, 0, 232]",232,l,1.319811426641536,colour,0.5
046,68,0,2,12,18,568,897.4714680403995,898.1271042687004,"[6, 0, 248]",248,a,0.13234281123732217,colour,0.5
046,68,0,2,12,19,569,898.6433450896293,900.8710667115665,"[90, 0, 164]",164,l,1.704727133808774,colour,0.5
046,68,0,2,12,20,570,901.3779678740102,902.0470799290342,"[89, 0, 165]",165,l,0.1460892100003548,colour,0.5
046,68,0,2,12,21,571,902.5666676512774,904.1990657978458,"[91, 0, 163]",163,l,1.1089972096087877,colour,0.5
046,68,0,2,12,22,572,904.7074781464908,906.895076337154,"[51, 0, 203]",203,l,1.6643874812143622,colour,0.5
046,68,0,2,12,23,573,907.4108173678105,908.0630830640439,"[50, 0, 204]",204,a,0.12885176236159168,colour,0.5
046,68,0,2,12,24,574,908.5827601892815,910.679086592907,"[35, 0, 219]",219,l,1.5729617004690226,colour,0.5
046,68,0,2,12,25,575,911.1951781462849,911.7911321687279,"[8, 0, 246]",246,a,0.07242469176708255,colour,0.5
046,68,0,2,12,26,576,912.3047885737469,912.9590652464685,"[0, 0, 254]",254,a,0.13082847426994704,colour,0.5
046,68,0,2,12,27,577,913.4767695982591,914.1270963917777,"[37, 0, 217]",217,a,0.12697902573563624,colour,0.5
046,68,0,2,12,28,578,914.6331039181823,915.2551104441955,"[9, 0, 245]",245,a,0.09860440752527211,colour,0.5
046,68,0,2,12,29,579,915.7738198903971,917.2950704294781,"[69, 0, 185]",185,l,0.9981796448701061,colour,0.5
046,68,0,2,12,30,580,917.8052483886859,918.4390643799998,"[57, 0, 197]",197,l,0.11053911577619147,colour,0.5
046,68,0,2,12,31,581,918.9463054313383,919.6231337126083,"[15, 0, 239]",239,a,0.15264910507539753,colour,0.5
046,68,0,2,12,32,582,920.1347720519261,920.8790641436935,"[44, 0, 210]",210,a,0.22097031780867837,colour,0.5
046,68,0,2,12,33,583,921.3847731349961,921.9190603627794,"[41, 0, 213]",213,a,0.011304555024253204,colour,0.5
046,68,0,2,12,34,584,922.4317510579713,922.9590939971968,"[97, 0, 157]",157,l,0.003952636106987484,colour,0.5
046,68,0,2,12,35,585,923.4787085009739,924.0711285453581,"[93, 0, 161]",161,l,0.06896711979061365,colour,0.5
046,68,0,2,12,36,586,924.5881909285526,925.6710938869219,"[52, 0, 202]",202,l,0.5596410489670234,colour,0.5
046,68,0,2,12,37,587,926.1821430329728,927.4710816777078,"[46, 0, 208]",208,a,0.7656306553835748,colour,0.5
046,68,0,2,12,38,588,927.9790765498328,928.6630905471102,"[67, 0, 187]",187,l,0.16070915867749136,colour,0.5
046,68,0,2,12,39,589,929.182287968215,929.8310531632742,"[84, 0, 170]",170,l,0.12541663959564175,colour,0.5
046,68,0,2,12,40,590,930.3386313465744,930.9991158162593,"[33, 0, 221]",221,a,0.13711740345752332,colour,0.5
046,68,0,2,12,41,591,931.5106608141214,932.4153135110828,"[53, 0, 201]",201,a,0.3813923629350029,colour,0.5
046,68,0,2,12,42,592,932.9285520457342,933.695094060211,"[56, 0, 198]",198,a,0.2432438712567091,colour,0.5
046,68,0,2,12,43,593,934.2117299084493,934.9111015275266,"[64, 0, 190]",190,l,0.17598249748698436,colour,0.5
046,68,0,2,12,44,594,935.430620326777,936.247093319791,"[2, 0, 252]",252,a,0.29510902635229286,colour,0.5
046,68,0,2,12,45,595,936.7463022805605,937.4070352669223,"[28, 0, 226]",226,a,0.13747383387817536,colour,0.5
046,68,0,2,12,46,596,937.9182013851532,938.6470279413916,"[55, 0, 199]",199,l,0.20528934863978066,colour,0.5
046,68,0,2,12,47,597,939.1683214096556,939.8470271536935,"[71, 0, 183]",183,l,0.15539066545898095,colour,0.5
046,68,0,2,12,48,598,940.3577765831142,941.4470988336252,"[32, 0, 222]",222,a,0.5661568333161995,colour,0.5
046,68,0,2,12,49,599,941.9672915029805,942.5270747302711,"[18, 0, 236]",236,a,0.0363551149785053,colour,0.5
046,68,0,2,12,50,600,943.0455332967103,943.6070336915436,"[94, 0, 160]",160,l,0.0381888608681038,colour,0.5
046,68,0,2,13,1,601,948.5294504079357,949.3270814256393,"[81, 0, 173]",173,l,0.2764553093293216,colour,0.5
046,68,0,2,13,2,602,949.8398343484732,952.0710131485394,"[84, 0, 170]",170,l,1.707929493728443,colour,0.5
046,68,0,2,13,3,603,952.5901499173924,953.1430554160761,"[24, 0, 230]",230,a,0.029893287501181476,colour,0.5
046,68,0,2,13,4,604,953.6525516282563,954.2230982664914,"[26, 0, 228]",228,a,0.04712876590201631,colour,0.5
046,68,0,2,13,5,605,954.7308832188282,955.2870552742825,"[12, 0, 242]",242,a,0.032945986022241414,colour,0.5
046,68,0,2,13,6,606,955.7934133234085,957.3030454123946,"[87, 0, 167]",167,l,0.986250450470834,colour,0.5
046,68,0,2,13,7,607,957.8094369384053,958.615087837461,"[58, 0, 196]",196,l,0.28250241723435465,colour,0.5
046,68,0,2,13,8,608,959.1217845939391,959.7270101395552,"[91, 0, 163]",163,l,0.08186911322991364,colour,0.5
046,68,0,2,13,9,609,960.2468786738464,960.9590234988136,"[35, 0, 219]",219,a,0.18872498341079336,colour,0.5
046,68,0,2,13,10,610,961.4658399844047,962.2710446562123,"[44, 0, 210]",210,a,0.2818911686044885,colour,0.5
046,68,0,2,13,11,611,962.7783534490154,963.3910167719296,"[42, 0, 212]",212,a,0.0892395429109456,colour,0.5
046,68,0,2,13,12,612,963.9034416212235,965.4950531002542,"[71, 0, 183]",183,l,1.0681778528669383,colour,0.5
046,68,0,2,13,13,613,966.0129271995829,966.9350631039415,"[56, 0, 198]",198,l,0.39877277659252286,colour,0.5
046,68,0,2,13,14,614,967.4538229623868,969.055031675045,"[1, 0, 253]",253,l,1.0778085633792216,colour,0.5
046,68,0,2,13,15,615,969.563284909993,970.1750526276446,"[72, 0, 182]",182,l,0.08834748224762734,colour,0.5
046,68,0,2,13,16,616,970.6760126267036,971.2550427027309,"[7, 0, 247]",247,a,0.0556500129023334,colour,0.5
046,68,0,2,13,17,617,971.7698003005062,972.903026507789,"[36, 0, 218]",218,a,0.6097929749666946,colour,0.5
046,68,0,2,13,18,618,973.4105834234215,975.0470035229519,"[96, 0, 158]",158,l,1.1130581532925135,colour,0.5
046,68,0,2,13,19,619,975.5670028140303,976.2550493981107,"[41, 0, 213]",213,a,0.1646409209643025,colour,0.5
046,68,0,2,13,20,620,976.7702429831552,977.4150240344461,"[10, 0, 244]",244,a,0.12143840351200197,colour,0.5
046,68,0,2,13,21,621,977.9266095984203,978.471037566982,"[79, 0, 175]",175,l,0.021160939169931225,colour,0.5
046,68,0,2,13,22,622,978.9891263122408,979.7109912507149,"[3, 0, 251]",251,a,0.19861760135972872,colour,0.5
046,68,0,2,13,23,623,980.2236303521204,980.8870024989592,"[61, 0, 193]",193,l,0.14028352957393508,colour,0.5
046,68,0,2,13,24,624,981.3957133826916,982.0070139992458,"[32, 0, 222]",222,l,0.08681305912614334,colour,0.5
046,68,0,2,13,25,625,982.5219980583497,984.5430510837614,"[15, 0, 239]",239,l,1.4977942667755997,colour,0.5
046,68,0,2,13,26,626,985.0409694119735,985.6151043789723,"[59, 0, 195]",195,l,0.05103138359845616,colour,0.5
046,68,0,2,13,27,627,986.1347574796237,988.1909951104026,"[9, 0, 245]",245,l,1.5329036476032343,colour,0.5
046,68,0,2,13,28,628,988.6977422791533,989.2710107854655,"[83, 0, 171]",171,l,0.049927433909033425,colour,0.5
046,68,0,2,13,29,629,989.7915303468035,990.3270254995441,"[14, 0, 240]",240,a,0.012109575764043257,colour,0.5
046,68,0,2,13,30,630,990.8385401712876,991.6311023939925,"[40, 0, 214]",214,a,0.2692699871840887,colour,0.5
046,68,0,2,13,31,631,992.1511635188508,993.9190170397342,"[82, 0, 172]",172,l,1.2451130632689456,colour,0.5
046,68,0,2,13,32,632,994.4326588724653,995.3270302257006,"[48, 0, 206]",206,l,0.3711244099686155,colour,0.5
046,68,0,2,13,33,633,995.8389824600745,996.4070069100271,"[85, 0, 169]",169,l,0.04480940819485113,colour,0.5
046,68,0,2,13,34,634,996.9171895953914,998.0550033181498,"[49, 0, 205]",205,l,0.614591985635343,colour,0.5
046,68,0,2,13,35,635,998.5735532568069,999.1350331716676,"[21, 0, 233]",233,a,0.038419260643422604,colour,0.5
046,68,0,2,13,36,636,999.6520018195733,1000.2710017270147,"[78, 0, 176]",176,l,0.09380854763730895,colour,0.5
046,68,0,2,13,37,637,1000.779082851368,1001.3910195288481,"[25, 0, 229]",229,a,0.08875078031269368,colour,0.5
046,68,0,2,13,38,638,1001.9041347897728,1002.5110589921969,"[95, 0, 159]",159,l,0.08363314843154512,colour,0.5
046,68,0,2,13,39,639,1003.0291394667001,1003.670982428579,"[34, 0, 220]",220,a,0.11845817259745672,colour,0.5
046,68,0,2,13,40,640,1004.1855537373049,1006.3830008290533,"[86, 0, 168]",168,l,1.6742044807906495,colour,0.5
046,68,0,2,13,41,641,1006.9044849186612,1007.4870859942603,"[2, 0, 252]",252,a,0.05923204014834482,colour,0.5
046,68,0,2,13,42,642,1007.9982178479113,1008.6389958508371,"[80, 0, 174]",174,l,0.11741448131215293,colour,0.5
046,68,0,2,13,43,643,1009.1548278598639,1009.8309869971854,"[22, 0, 232]",232,a,0.15131554332037922,colour,0.5
046,68,0,2,13,44,644,1010.3440841412084,1011.4149578683573,"[75, 0, 179]",179,l,0.5475696762441657,colour,0.5
046,68,0,2,13,45,645,1011.9229598297097,1012.9029717632366,"[53, 0, 201]",201,l,0.456807525610202,colour,0.5
046,68,0,2,13,46,646,1013.4230781803635,1014.1109877061099,"[92, 0, 162]",162,l,0.1647059055248974,colour,0.5
046,68,0,2,13,47,647,1014.62624470031,1015.2310011756344,"[33, 0, 221]",221,a,0.081314972252585,colour,0.5
046,68,0,2,13,48,648,1015.7514419678191,1016.2949900849344,"[99, 0, 155]",155,l,0.020234220079146326,colour,0.5
046,68,0,2,13,49,649,1016.8140260292712,1017.8949770880281,"[55, 0, 199]",199,l,0.5575497279496631,colour,0.5
046,68,0,2,13,50,650,1018.4079182691348,1019.0309440679994,"[88, 0, 166]",166,l,0.09978830791078508,colour,0.5
046,68,0,2,14,1,651,1023.8205193644098,1025.0150263975083,"[94, 0, 160]",160,l,0.6701667739835102,colour,0.5
046,68,0,2,14,2,652,1025.5247545848542,1026.0869717789901,"[1, 0, 253]",253,a,0.038925746295717545,colour,0.5
046,68,0,2,14,3,653,1026.6029727478453,1029.1429530161695,"[81, 0, 173]",173,l,2.016673460500897,colour,0.5
046,68,0,2,14,4,654,1029.6375961229787,1030.238971826242,"[7, 0, 247]",247,a,0.07797476630366873,colour,0.5
046,68,0,2,14,5,655,1030.7470064767986,1032.638963161633,"[24, 0, 230]",230,l,1.3684576802770607,colour,0.5
046,68,0,2,14,6,656,1033.1535009934742,1033.8149692898733,"[0, 0, 254]",254,a,0.13814612859277986,colour,0.5
046,68,0,2,14,7,657,1034.3254969841219,1035.9110136999225,"[87, 0, 167]",167,l,1.0621705233934335,colour,0.5
046,68,0,2,14,8,658,1036.4194126578077,1038.158954969651,"[39, 0, 215]",215,l,1.2162477132369531,colour,0.5
046,68,0,2,14,9,659,1038.6695444976795,1039.5269609088427,"[53, 0, 201]",201,l,0.33402335111168213,colour,0.5
046,68,0,2,14,10,660,1040.044653445264,1041.0550454596523,"[30, 0, 224]",224,a,0.4870596065884456,colour,0.5
046,68,0,2,14,11,661,1041.5778170310805,1042.5109290230903,"[46, 0, 208]",208,l,0.409722082738881,colour,0.5
046,68,0,2,14,12,662,1043.0310354402172,1043.7349607040378,"[72, 0, 182]",182,l,0.1806121544650523,colour,0.5
046,68,0,2,14,13,663,1044.2504012303834,1045.358912040465,"[40, 0, 214]",214,a,0.5850425255048322,colour,0.5
046,68,0,2,14,14,664,1045.8769550996221,1046.4549737797206,"[73, 0, 181]",181,l,0.05470241999137215,colour,0.5
046,68,0,2,14,15,665,1046.9739435579686,1048.4869993481843,"[49, 0, 205]",205,l,0.9899360591371078,colour,0.5
046,68,0,2,14,16,666,1049.0053811147081,1049.646995646035,"[12, 0, 242]",242,a,0.11829669582948554,colour,0.5
046,68,0,2,14,17,667,1050.1616602962167,1050.7269455488567,"[28, 0, 226]",226,a,0.04179018654394895,colour,0.5
046,68,0,2,14,18,668,1051.2399276899232,1053.5269514565443,"[82, 0, 172]",172,l,1.7638166017859476,colour,0.5
046,68,0,2,14,19,669,1054.037063643511,1054.7749423508358,"[62, 0, 192]",192,l,0.21464082250895444,colour,0.5
046,68,0,2,14,20,670,1055.2889666077826,1055.9909419412288,"[80, 0, 174]",174,l,0.1789662730152486,colour,0.5
046,68,0,2,14,21,671,1056.5077849523368,1058.254934001292,"[91, 0, 163]",163,l,1.2239391271868953,colour,0.5
046,68,0,2,14,22,672,1058.7736225736735,1059.438906841693,"[76, 0, 178]",178,l,0.1421598107990576,colour,0.5
046,68,0,2,14,23,673,1059.9459753885749,1061.4629400980339,"[74, 0, 180]",180,l,0.9921947646071203,colour,0.5
046,68,0,2,14,24,674,1061.9789142853842,1062.5109640753653,"[64, 0, 190]",190,l,0.008701628365088254,colour,0.5
046,68,0,2,14,25,675,1063.0258540053183,1063.862916861137,"[48, 0, 206]",206,a,0.31375210954865906,colour,0.5
046,68,0,2,14,26,676,1064.3696025899262,1064.998930314905,"[10, 0, 244]",244,a,0.10590748957474716,colour,0.5
046,68,0,2,14,27,677,1065.4996859079984,1067.3269195550383,"[34, 0, 220]",220,l,1.303594827229972,colour,0.5
046,68,0,2,14,28,678,1067.8435707632598,1068.4789916760783,"[6, 0, 248]",248,a,0.11204478814033791,colour,0.5
046,68,0,2,14,29,679,1068.9999684923387,1069.550919334477,"[88, 0, 166]",166,l,0.02758495745365508,colour,0.5
046,68,0,2,14,30,680,1070.062513563069,1070.622913158979,"[97, 0, 157]",157,l,0.037012837405200116,colour,0.5
046,68,0,2,14,31,681,1071.1426343949424,1072.0869296374876,"[52, 0, 202]",202,l,0.4210128531558439,colour,0.5
046,68,0,2,14,32,682,1072.595871708676,1074.830935797232,"[35, 0, 219]",219,l,1.7119683820637874,colour,0.5
046,68,0,2,14,33,683,1075.346024619299,1075.8709623424365,"[23, 0, 231]",231,a,0.0015513584658037871,colour,0.5
046,68,0,2,14,34,684,1076.3930293237936,1077.006947833157,"[61, 0, 193]",193,l,0.09070976913790219,colour,0.5
046,68,0,2,14,35,685,1077.5181438836735,1078.2949818141788,"[59, 0, 195]",195,l,0.2535307288344484,colour,0.5
046,68,0,2,14,36,686,1078.8151610927744,1079.4229549066367,"[69, 0, 185]",185,l,0.08457128904410638,colour,0.5
046,68,0,2,14,37,687,1079.9402591111284,1080.5509083068027,"[2, 0, 252]",252,a,0.0876421044813469,colour,0.5
046,68,0,2,14,38,688,1081.0652468526823,1083.03894504474,"[43, 0, 211]",211,l,1.450328368911869,colour,0.5
046,68,0,2,14,39,689,1083.5498689478263,1084.2869316067226,"[99, 0, 155]",155,l,0.21379602335218806,colour,0.5
046,68,0,2,14,40,690,1084.7999342277617,1085.8149137576256,"[37, 0, 217]",217,a,0.4914210545975948,colour,0.5
046,68,0,2,14,41,691,1086.318880769104,1086.9509713221196,"[27, 0, 227]",227,a,0.10860651459370274,colour,0.5
046,68,0,2,14,42,692,1087.4595313629252,1088.0229218235909,"[71, 0, 183]",183,l,0.039970225261640735,colour,0.5
046,68,0,2,14,43,693,1088.5378452304285,1089.182915364523,"[75, 0, 179]",179,l,0.12178577548183966,colour,0.5
046,68,0,2,14,44,694,1089.6941567072936,1090.3429364746553,"[65, 0, 189]",189,l,0.1254768979997607,colour,0.5
046,68,0,2,14,45,695,1090.8505012671958,1091.5029607355536,"[90, 0, 164]",164,l,0.1291282421007054,colour,0.5
046,68,0,2,14,46,696,1092.0225204947492,1092.638883604799,"[11, 0, 243]",243,a,0.09311931754928082,colour,0.5
046,68,0,2,14,47,697,1093.1475428947306,1093.7268778073776,"[5, 0, 249]",249,a,0.05600211099954322,colour,0.5
046,68,0,2,14,48,698,1094.2414235161414,1094.814925572995,"[21, 0, 233]",233,a,0.050205489023937844,colour,0.5
046,68,0,2,14,49,699,1095.3247077172127,1097.1669157741126,"[25, 0, 229]",229,l,1.31892606135807,colour,0.5
046,68,0,2,14,50,700,1097.6842829939415,1098.406884030148,"[77, 0, 177]",177,l,0.19930368068162352,colour,0.5
046,68,0,2,15,1,701,1103.4963287666906,1104.1429518346413,"[47, 0, 207]",207,a,0.12234306723985355,colour,0.5
046,68,0,2,15,2,702,1104.6534964642487,1105.278978679169,"[16, 0, 238]",238,a,0.10201393032912165,colour,0.5
046,68,0,2,15,3,703,1105.794271119492,1108.1669090787327,"[80, 0, 174]",174,l,1.849292160695768,colour,0.5
046,68,0,2,15,4,704,1108.686957600541,1109.3509630513581,"[29, 0, 225]",225,a,0.1407663844729541,colour,0.5
046,68,0,2,15,5,705,1109.8463532835885,1111.6228729867144,"[57, 0, 197]",197,l,1.2517879613151308,colour,0.5
046,68,0,2,15,6,706,1112.129199528179,1113.77489154473,"[20, 0, 234]",234,l,1.1223340087890392,colour,0.5
046,68,0,2,15,7,707,1114.2855937126442,1114.8869000990526,"[62, 0, 192]",192,l,0.07784519104461651,colour,0.5
046,68,0,2,15,8,708,1115.3950918940682,1115.9749163570086,"[60, 0, 194]",194,l,0.05638217217347119,colour,0.5
046,68,0,2,15,9,709,1116.4889280109055,1117.0308708126831,"[97, 0, 157]",157,l,0.01856588940427173,colour,0.5
046,68,0,2,15,10,710,1117.5515483061754,1118.2069852485147,"[30, 0, 224]",224,a,0.1305992560373852,colour,0.5
046,68,0,2,15,11,711,1118.7250377599703,1119.3668834787677,"[55, 0, 199]",199,l,0.11852040022495203,colour,0.5
046,68,0,2,15,12,712,1119.8813669598894,1120.5348905994906,"[83, 0, 171]",171,l,0.13024125022639055,colour,0.5
046,68,0,2,15,13,713,1121.0533460151637,1121.6629046519083,"[69, 0, 185]",185,l,0.08632902268436737,colour,0.5
046,68,0,2,15,14,714,1122.1783869258943,1122.7268919858325,"[88, 0, 166]",166,l,0.023819791924324818,colour,0.5
046,68,0,2,15,15,715,1123.2423514167604,1124.9428848808602,"[46, 0, 208]",208,l,1.1772782500629546,colour,0.5
046,68,0,2,15,16,716,1125.4620846650214,1126.0628447873605,"[87, 0, 167]",167,l,0.07818626148218755,colour,0.5
046,68,0,2,15,17,717,1126.5707246565144,1127.3188638337306,"[34, 0, 220]",220,a,0.22472406180168036,colour,0.5
046,68,0,2,15,18,718,1127.8364984748332,1128.5109069677274,"[24, 0, 230]",230,a,0.15109144507732708,colour,0.5
046,68,0,2,15,19,719,1129.0249391015968,1131.0468491354113,"[49, 0, 205]",205,l,1.498561084488756,colour,0.5
046,68,0,2,15,20,720,1131.5582814933878,1132.198875570335,"[33, 0, 221]",221,a,0.11731247525312938,colour,0.5
046,68,0,2,15,21,721,1132.7146638624836,1134.238834374075,"[98, 0, 156]",156,l,1.0012882695009466,colour,0.5
046,68,0,2,15,22,722,1134.746076213094,1135.310890820052,"[92, 0, 162]",162,l,0.041448722273344174,colour,0.5
046,68,0,2,15,23,723,1135.8243022529932,1136.4789125130774,"[21, 0, 233]",233,a,0.13139482447877526,colour,0.5
046,68,0,2,15,24,724,1136.9968708953966,1137.5508492299414,"[95, 0, 159]",159,l,0.027876797175849788,colour,0.5
046,68,0,2,15,25,725,1138.0622047879879,1139.1828460476681,"[91, 0, 163]",163,l,0.597244655029499,colour,0.5
046,68,0,2,15,26,726,1139.6892840474757,1140.2468392892624,"[15, 0, 239]",239,a,0.034313812357140705,colour,0.5
046,68,0,2,15,27,727,1140.767560499633,1142.4548623213632,"[77, 0, 177]",177,l,1.1638744970987318,colour,0.5
046,68,0,2,15,28,728,1142.9728376390558,1144.9188295691565,"[32, 0, 222]",222,l,1.4227701929630712,colour,0.5
046,68,0,2,15,29,729,1145.4261667188548,1145.9988314596121,"[8, 0, 246]",246,a,0.04931854836468119,colour,0.5
046,68,0,2,15,30,730,1146.5200044110825,1147.126869142783,"[37, 0, 217]",217,a,0.08341929018206429,colour,0.5
046,68,0,2,15,31,731,1147.64511936481,1148.2708118933515,"[7, 0, 247]",247,a,0.10231325309723616,colour,0.5
046,68,0,2,15,32,732,1148.7857801986247,1149.7029146556015,"[44, 0, 210]",210,l,0.3938059876381885,colour,0.5
046,68,0,2,15,33,733,1150.2233365431748,1150.9828732230235,"[23, 0, 231]",231,a,0.23626216738193762,colour,0.5
046,68,0,2,15,34,734,1151.489196613722,1152.0468325938855,"[71, 0, 183]",183,l,0.03452648907841649,colour,0.5
046,68,0,2,15,35,735,1152.568451772604,1153.118854381435,"[13, 0, 241]",241,a,0.02707965332956519,colour,0.5
046,68,0,2,15,36,736,1153.6310062956327,1155.342818320918,"[58, 0, 196]",196,l,1.188506005157251,colour,0.5
046,68,0,2,15,37,737,1155.8499762707943,1156.534885479501,"[82, 0, 172]",172,l,0.1615716809174046,colour,0.5
046,68,0,2,15,38,738,1157.0531605138094,1157.6148156900308,"[78, 0, 176]",176,l,0.03833340226265136,colour,0.5
046,68,0,2,15,39,739,1158.131371587573,1158.75885926513,"[41, 0, 213]",213,a,0.10145900164206978,colour,0.5
046,68,0,2,15,40,740,1159.2747149048955,1159.8388068048662,"[74, 0, 180]",180,l,0.041130101031740196,colour,0.5
046,68,0,2,15,41,741,1160.3528980156116,1161.110843558563,"[28, 0, 226]",226,a,0.2345213690859964,colour,0.5
046,68,0,2,15,42,742,1161.6186753785441,1162.2308231573406,"[31, 0, 223]",223,a,0.0886865834472701,colour,0.5
046,68,0,2,15,43,743,1162.7437694584514,1163.278906605381,"[9, 0, 245]",245,a,0.011659803902148269,colour,0.5
046,68,0,2,15,44,744,1163.790702089158,1164.61487673613,"[45, 0, 209]",209,l,0.3108077185897855,colour,0.5
046,68,0,2,15,45,745,1165.124500554346,1165.8628191873868,"[63, 0, 191]",191,l,0.21495747451263014,colour,0.5
046,68,0,2,15,46,746,1166.374653268038,1167.158838391304,"[40, 0, 214]",214,l,0.2607566171063809,colour,0.5
046,68,0,2,15,47,747,1167.6715987971984,1168.2948207312584,"[90, 0, 164]",164,l,0.09982848017534707,colour,0.5
046,68,0,2,15,48,748,1168.814201290632,1169.3508145715023,"[89, 0, 165]",165,l,0.013285205379361287,colour,0.5
046,68,0,2,15,49,749,1169.861213478187,1170.4388111371663,"[94, 0, 160]",160,l,0.054296364993206225,colour,0.5
046,68,0,2,15,50,750,1170.9549983950856,1172.3348189195676,"[93, 0, 161]",161,l,0.8563861106376862,colour,0.5
046,68,0,2,16,1,751,1184.3988783272653,1185.1187905784172,"[3, 0, 251]",251,a,0.19571889651706442,colour,0.5
046,68,0,2,16,2,752,1185.6341755725007,1186.3908147290495,"[63, 0, 191]",191,l,0.23329769029805902,colour,0.5
046,68,0,2,16,3,753,1186.899869833971,1187.4467955723958,"[94, 0, 160]",160,l,0.023620505977305584,colour,0.5
046,68,0,2,16,4,754,1187.962485403099,1191.0388068048633,"[21, 0, 233]",233,l,2.5529834801272955,colour,0.5
046,68,0,2,16,5,755,1191.5564402644377,1193.9828094200057,"[11, 0, 243]",243,l,1.9031422984407982,colour,0.5
046,68,0,2,16,6,756,1194.4942216918425,1195.5107884201425,"[41, 0, 213]",213,l,0.4931921789975604,colour,0.5
046,68,0,2,16,7,757,1196.0255814640404,1196.6468062062195,"[69, 0, 185]",185,l,0.09785294979519676,colour,0.5
046,68,0,2,16,8,758,1197.1663356392964,1197.8228005190904,"[15, 0, 239]",239,l,0.13302731516887434,colour,0.5
046,68,0,2,16,9,759,1198.338290669999,1198.9347870180645,"[40, 0, 214]",214,a,0.07347192766610533,colour,0.5
046,68,0,2,16,10,760,1199.450575704046,1200.806759574887,"[64, 0, 190]",190,l,0.8328219246031949,colour,0.5
046,68,0,2,16,11,761,1201.325688787023,1202.1108069308975,"[46, 0, 208]",208,l,0.2617144499963615,colour,0.5
046,68,0,2,16,12,762,1202.622667793068,1204.1507850330818,"[2, 0, 252]",252,l,1.004860844448558,colour,0.5
046,68,0,2,16,13,763,1204.6696831313893,1205.2308034650632,"[90, 0, 164]",164,l,0.03773672592069488,colour,0.5
046,68,0,2,16,14,764,1205.7488685795834,1207.070812287202,"[33, 0, 221]",221,l,0.7985057491605403,colour,0.5
046,68,0,2,16,15,765,1207.5771396163618,1208.2147837885277,"[87, 0, 167]",167,l,0.11416722297144588,colour,0.5
046,68,0,2,16,16,766,1208.7335227731528,1209.7428261978348,"[48, 0, 206]",206,l,0.48602576144912746,colour,0.5
046,68,0,2,16,17,767,1210.239944625282,1210.8307573851052,"[82, 0, 172]",172,l,0.07977306607062928,colour,0.5
046,68,0,2,16,18,768,1211.337065021973,1212.2708118933515,"[53, 0, 201]",201,l,0.41037783592764754,colour,0.5
046,68,0,2,16,19,769,1212.7902972157171,1213.510858130845,"[83, 0, 171]",171,l,0.19736989797092974,colour,0.5
046,68,0,2,16,20,770,1214.0247709294636,1214.5987991642614,"[67, 0, 187]",187,l,0.05066943934070878,colour,0.5
046,68,0,2,16,21,771,1215.120264349287,1216.7747442464024,"[97, 0, 157]",157,l,1.1310998339904472,colour,0.5
046,68,0,2,16,22,772,1217.292348955234,1218.8548276629444,"[12, 0, 242]",242,l,1.039655936343479,colour,0.5
046,68,0,2,16,23,773,1219.3706194997067,1220.7267990382243,"[45, 0, 209]",209,l,0.832782933866838,colour,0.5
046,68,0,2,16,24,774,1221.2458322256425,1221.9187689169048,"[76, 0, 178]",178,l,0.14960467730998062,colour,0.5
046,68,0,2,16,25,775,1222.4334544409066,1223.062784922804,"[28, 0, 226]",226,a,0.10599807409744244,colour,0.5
046,68,0,2,16,26,776,1223.5741743515828,1224.2467581570381,"[23, 0, 231]",231,a,0.14939987751131412,colour,0.5
046,68,0,2,16,27,777,1224.7617583638057,1225.3027740526595,"[38, 0, 216]",216,a,0.01770218565070536,colour,0.5
046,68,0,2,16,28,778,1225.8243247022037,1226.4467743047135,"[68, 0, 186]",186,l,0.09921920076885726,colour,0.5
046,68,0,2,16,29,779,1226.9650875420775,1227.6307790466235,"[16, 0, 238]",238,a,0.1423858782654861,colour,0.5
046,68,0,2,16,30,780,1228.1369901912694,1228.6787813624396,"[71, 0, 183]",183,l,0.018840793767594732,colour,0.5
046,68,0,2,16,31,781,1229.1872145849047,1229.7827629462117,"[66, 0, 188]",188,l,0.08133781531068962,colour,0.5
046,68,0,2,16,32,782,1230.3030674677575,1230.9347728396096,"[72, 0, 182]",182,l,0.10837335791438818,colour,0.5
046,68,0,2,16,33,783,1231.44378383382,1232.0308011019806,"[35, 0, 219]",219,a,0.06371164188021794,colour,0.5
046,68,0,2,16,34,784,1232.5379661410843,1233.1587765575096,"[29, 0, 225]",225,a,0.09728817497671116,colour,0.5
046,68,0,2,16,35,785,1233.6788258669985,1234.4227674360445,"[26, 0, 228]",228,a,0.22092857015377376,colour,0.5
046,68,0,2,16,36,786,1234.9289545561041,1236.8868559883267,"[78, 0, 176]",176,l,1.4346032890025526,colour,0.5
046,68,0,2,16,37,787,1237.3997215510462,1237.9587529267737,"[99, 0, 155]",155,l,0.03567336795094889,colour,0.5
046,68,0,2,16,38,788,1238.4779850062914,1239.182813358464,"[42, 0, 212]",212,a,0.17976420454215258,colour,0.5
046,68,0,2,16,39,789,1239.698496887635,1241.5747891448264,"[93, 0, 161]",161,l,1.3528763540962245,colour,0.5
046,68,0,2,16,40,790,1242.0893797519966,1242.6627317536186,"[14, 0, 240]",240,a,0.05010111989395227,colour,0.5
046,68,0,2,16,41,791,1243.1831682134944,1243.7347440888698,"[86, 0, 168]",168,l,0.02818478456174489,colour,0.5
046,68,0,2,16,42,792,1244.2457940226013,1244.8547666168452,"[75, 0, 179]",179,l,0.08563388491165824,colour,0.5
046,68,0,2,16,43,793,1245.3708026379754,1245.8948250635585,"[96, 0, 158]",158,l,0.0006045532500138506,colour,0.5
046,68,0,2,16,44,794,1246.4177466902183,1248.694747869784,"[52, 0, 202]",202,l,1.7536349010333652,colour,0.5
046,68,0,2,16,45,795,1249.2149058807117,1249.8868114837533,"[80, 0, 174]",174,l,0.1486830782087054,colour,0.5
046,68,0,2,16,46,796,1250.4025970189832,1250.982746404683,"[70, 0, 184]",184,l,0.05370520250289701,colour,0.5
046,68,0,2,16,47,797,1251.4994161236536,1252.0867315330688,"[13, 0, 241]",241,a,0.06388926632644143,colour,0.5
046,68,0,2,16,48,798,1252.5933010773733,1253.1907272952812,"[25, 0, 229]",229,a,0.07393745334411506,colour,0.5
046,68,0,2,16,49,799,1253.7028236772167,1254.326748625972,"[34, 0, 220]",220,a,0.09928969916654751,colour,0.5
046,68,0,2,16,50,800,1254.8449157465511,1255.478769153211,"[37, 0, 217]",217,a,0.11051312195195351,colour,0.5
