id,age,condition,counterbalance,block,trialinblock,trial,tstart,tend,trialstim,trialintensity,response,RT,trialtype,colourfreq
063,84,0,2,Practice,1,NA,5.907684681005776e-06,1.3037896612368058,"[14, 0, 240]",240,a,0.7821923494630028,colour,0.5
063,84,0,2,Practice,2,NA,1.81062839642982,2.423757397409645,"[47, 0, 207]",207,a,0.0899531560135074,colour,0.5
063,84,0,2,Practice,3,NA,2.9355302304029465,3.9197137845185352,"[68, 0, 186]",186,a,0.46097777686372865,colour,0.5
063,84,0,2,Practice,4,NA,4.435497147380374,5.839755642431555,"[70, 0, 184]",184,a,0.8813051728502614,colour,0.5
063,84,0,2,Practice,5,NA,6.3573818089062115,6.887703982487437,"[41, 0, 213]",213,a,0.007027387240668759,colour,0.5
063,84,0,2,Practice,6,NA,7.404586568445666,12.359749608716811,"[86, 0, 168]",168,a,4.432207354984712,colour,0.5
063,84,0,2,Practice,7,NA,12.872956433580839,13.471678168265498,"[21, 0, 233]",233,a,0.07552501588361338,colour,0.5
063,84,0,2,Practice,8,NA,13.984265867838985,18.903697265064693,"[95, 0, 159]",159,l,4.396258309163386,colour,0.5
063,84,0,2,Practice,9,NA,19.42452421481721,20.15974693057069,"[91, 0, 163]",163,l,0.2123261073284084,colour,0.5
063,84,0,2,Practice,10,NA,20.6621454503329,21.255696779844584,"[1, 0, 253]",253,a,0.07014862945652567,colour,0.5
063,84,0,2,1,1,1,5.875571174590732,9.320082660313346,"[53, 0, 201]",201,a,2.9203951374220196,colour,0.5
063,84,0,2,1,2,2,9.829447127413005,12.400012445519678,"[60, 0, 194]",194,a,2.047341030120151,colour,0.5
063,84,0,2,1,3,3,12.907581764317001,17.296002151968423,"[43, 0, 211]",211,a,3.8650763705954887,colour,0.5
063,84,0,2,1,4,4,17.813786644372158,18.896062567888293,"[42, 0, 212]",212,a,0.5596195608959533,colour,0.5
063,84,0,2,1,5,5,19.407554588964558,20.04801174919703,"[7, 0, 247]",247,a,0.11723484146932606,colour,0.5
063,84,0,2,1,6,6,20.554113205405883,21.256018157859216,"[68, 0, 186]",186,l,0.17874761822167784,colour,0.5
063,84,0,2,1,7,7,21.77283103314403,22.48798495194933,"[94, 0, 160]",160,l,0.19166575426061172,colour,0.5
063,84,0,2,1,8,8,22.998320642320323,23.600020637502894,"[83, 0, 171]",171,l,0.07838551656459458,colour,0.5
063,84,0,2,1,9,9,24.107695506929304,29.46402889881574,"[92, 0, 162]",162,l,4.832998827128904,colour,0.5
063,84,0,2,1,10,10,29.982621168572223,30.535962830428616,"[37, 0, 217]",217,a,0.02988224803993944,colour,0.5
063,84,0,2,1,11,11,31.04514534084592,35.80799947696505,"[87, 0, 167]",167,a,4.2397460325883,colour,0.5
063,84,0,2,1,12,12,36.326439328477136,36.887972585187526,"[40, 0, 214]",214,a,0.038324722554534674,colour,0.5
063,84,0,2,1,13,13,37.40451764546742,39.407952766880044,"[44, 0, 210]",210,a,1.4801753873180132,colour,0.5
063,84,0,2,1,14,14,39.92011590088077,41.823997091836645,"[15, 0, 239]",239,a,1.3806120045628631,colour,0.5
063,84,0,2,1,15,15,42.341987565509044,43.01596098722075,"[55, 0, 199]",199,a,0.15056048167753033,colour,0.5
063,84,0,2,1,16,16,43.51794478757074,44.599956440681126,"[56, 0, 198]",198,a,0.5587814574391814,colour,0.5
063,84,0,2,1,17,17,45.11159418463649,45.78396268548386,"[95, 0, 159]",159,l,0.1492190435383236,colour,0.5
063,84,0,2,1,18,18,46.29910604923498,46.91197708134132,"[8, 0, 246]",246,a,0.08952543967461679,colour,0.5
063,84,0,2,1,19,19,47.42417408605979,48.8080061723449,"[22, 0, 232]",232,a,0.8705472799774725,colour,0.5
063,84,0,2,1,20,20,49.32106254820246,50.35194319485163,"[36, 0, 218]",218,a,0.507537417288404,colour,0.5
063,84,0,2,1,21,21,50.86794199126598,51.95993172292947,"[26, 0, 228]",228,a,0.5696527778345626,colour,0.5
063,84,0,2,1,22,22,52.47630270343507,53.53594116891327,"[78, 0, 176]",176,l,0.535378363536438,colour,0.5
063,84,0,2,1,23,23,54.05543573896284,55.10393467519316,"[48, 0, 206]",206,a,0.5252730728534516,colour,0.5
063,84,0,2,1,24,24,55.61790280362766,57.16796333769162,"[61, 0, 193]",193,a,1.0267464492790168,colour,0.5
063,84,0,2,1,25,25,57.67332987798727,58.687909254818805,"[3, 0, 251]",251,a,0.49135351345466916,colour,0.5
063,84,0,2,1,26,26,59.20450472732773,60.34394103974046,"[28, 0, 226]",226,a,0.6189279837562935,colour,0.5
063,84,0,2,1,27,27,60.857893020496704,61.551949023778434,"[29, 0, 225]",225,a,0.17123146858648397,colour,0.5
063,84,0,2,1,28,28,62.060916100643226,62.639947130170185,"[99, 0, 155]",155,l,0.05598160899535287,colour,0.5
063,84,0,2,1,29,29,63.154773054338875,63.85591749091691,"[98, 0, 156]",156,l,0.1777590657293331,colour,0.5
063,84,0,2,1,30,30,64.37360824807547,65.01595980569255,"[77, 0, 177]",177,l,0.11906740510312375,colour,0.5
063,84,0,2,1,31,31,65.52971565134067,66.7599085647962,"[72, 0, 182]",182,l,0.7067334996390855,colour,0.5
063,84,0,2,1,32,32,67.27975759589754,68.37595438637072,"[20, 0, 234]",234,a,0.5728661641624058,colour,0.5
063,84,0,2,1,33,33,68.8910138610081,69.64000817624037,"[13, 0, 241]",241,a,0.2256428151158616,colour,0.5
063,84,0,2,1,34,34,70.15661507027107,71.57594485531445,"[38, 0, 216]",216,a,0.8959274788503535,colour,0.5
063,84,0,2,1,35,35,72.09573284034559,73.18398300792614,"[52, 0, 202]",202,a,0.5748011276591569,colour,0.5
063,84,0,2,1,36,36,73.69514459253696,74.77594201962347,"[59, 0, 195]",195,a,0.5576471820677398,colour,0.5
063,84,0,2,1,37,37,75.28889796484145,76.37587994955538,"[97, 0, 157]",157,l,0.5636588414781727,colour,0.5
063,84,0,2,1,38,38,76.88372889874154,77.90392175705347,"[14, 0, 240]",240,a,0.4968452966568293,colour,0.5
063,84,0,2,1,39,39,78.41492698495858,79.45592985766416,"[54, 0, 200]",200,a,0.5180046520981705,colour,0.5
063,84,0,2,1,40,40,79.97738577886776,81.23190692954813,"[49, 0, 205]",205,a,0.7312401489325566,colour,0.5
063,84,0,2,1,41,41,81.74301613270654,86.07193511314108,"[84, 0, 170]",170,l,3.804614373948425,colour,0.5
063,84,0,2,1,42,42,86.58780472818762,87.67989370894793,"[71, 0, 183]",183,l,0.568772926737438,colour,0.5
063,84,0,2,1,43,43,88.19718353127246,89.15195627053617,"[35, 0, 219]",219,a,0.43146495601104107,colour,0.5
063,84,0,2,1,44,44,89.66601577115944,90.56788677410805,"[24, 0, 230]",230,a,0.3785675520048244,colour,0.5
063,84,0,2,1,45,45,91.08781260511023,92.14391670007899,"[10, 0, 244]",244,a,0.5327581086894497,colour,0.5
063,84,0,2,1,46,46,92.65028833436372,93.59990169612865,"[88, 0, 166]",166,l,0.42625437857350335,colour,0.5
063,84,0,2,1,47,47,94.11902408208698,95.19988491831464,"[63, 0, 191]",191,l,0.5575487206806429,colour,0.5
063,84,0,2,1,48,48,95.71274634057772,96.59184676570294,"[11, 0, 243]",243,a,0.35581351567816455,colour,0.5
063,84,0,2,1,49,49,97.1034533958591,98.53591517510358,"[45, 0, 209]",209,a,0.9091575406055199,colour,0.5
063,84,0,2,1,50,50,99.05659718967217,100.75186899433902,"[50, 0, 204]",204,a,1.1723279347497737,colour,0.5
063,84,0,2,2,1,51,118.14936791718355,118.89582350359706,"[11, 0, 243]",243,a,0.22220651216048282,colour,0.5
063,84,0,2,2,2,52,119.41588678670814,120.72785780283448,"[39, 0, 215]",215,a,0.7893284380988916,colour,0.5
063,84,0,2,2,3,53,121.23577252423274,122.19985301682027,"[27, 0, 227]",227,a,0.4410291028325446,colour,0.5
063,84,0,2,2,4,54,122.72089855087688,123.64784806696116,"[1, 0, 253]",253,a,0.4043794056487968,colour,0.5
063,84,0,2,2,5,55,124.15763119193434,125.00786706607323,"[8, 0, 246]",246,a,0.32687492172408383,colour,0.5
063,84,0,2,2,6,56,125.51704012420669,126.55186867926386,"[14, 0, 240]",240,a,0.5114573626633501,colour,0.5
063,84,0,2,2,7,57,127.06603491204442,128.03987489888095,"[93, 0, 161]",161,l,0.45048651748220436,colour,0.5
063,84,0,2,2,8,58,128.55103096965468,129.55183599008888,"[20, 0, 234]",234,a,0.4774302834266564,colour,0.5
063,84,0,2,2,9,59,130.06675604336488,130.99980937872897,"[10, 0, 244]",244,a,0.4096719029766973,colour,0.5
063,84,0,2,2,10,60,131.51063540687028,132.455826276273,"[97, 0, 157]",157,l,0.4218842676782515,colour,0.5
063,84,0,2,2,11,61,132.96369373619382,133.88789460375847,"[19, 0, 235]",235,a,0.4007741429231828,colour,0.5
063,84,0,2,2,12,62,134.40124872689194,135.43184738009586,"[2, 0, 252]",252,a,0.5072463653923478,colour,0.5
063,84,0,2,2,13,63,135.94814746839984,136.8879938528553,"[68, 0, 186]",186,l,0.425781369995093,colour,0.5
063,84,0,2,2,14,64,137.40769519185415,138.2878676647233,"[13, 0, 241]",241,a,0.3568954095680965,colour,0.5
063,84,0,2,2,15,65,138.79829118266935,139.71980169085145,"[63, 0, 191]",191,l,0.398242109498824,colour,0.5
063,84,0,2,2,16,66,140.23579339803837,141.15989856111992,"[54, 0, 200]",200,l,0.4006449615699239,colour,0.5
063,84,0,2,2,17,67,141.67341573633894,143.62378173705656,"[55, 0, 199]",199,l,1.427099965105299,colour,0.5
063,84,0,2,2,18,68,144.14529949201096,145.07982423457725,"[65, 0, 189]",189,l,0.4114906820032047,colour,0.5
063,84,0,2,2,19,69,145.5986744732072,146.47983471087355,"[84, 0, 170]",170,l,0.35534326401830185,colour,0.5
063,84,0,2,2,20,70,146.99161699616525,148.89583098667208,"[58, 0, 196]",196,a,1.3808219242928317,colour,0.5
063,84,0,2,2,21,71,149.4137482050428,150.48781835525006,"[91, 0, 163]",163,l,0.5514819228847045,colour,0.5
063,84,0,2,2,22,72,151.00752363271022,151.95186694634322,"[35, 0, 219]",219,a,0.42102253348275553,colour,0.5
063,84,0,2,2,23,73,152.46068278650637,153.43184186625876,"[95, 0, 159]",159,l,0.4478883179835975,colour,0.5
063,84,0,2,2,24,74,153.94504790344217,154.96781217974785,"[61, 0, 193]",193,a,0.49967468352406286,colour,0.5
063,84,0,2,2,25,75,155.4762412635173,156.24781986762537,"[82, 0, 172]",172,l,0.2466072169918334,colour,0.5
063,84,0,2,2,26,76,156.75929337795242,158.17580519766489,"[73, 0, 181]",181,l,0.8931213288742583,colour,0.5
063,84,0,2,2,27,77,158.69682434406423,159.99978692951845,"[76, 0, 178]",178,l,0.7797020636644447,colour,0.5
063,84,0,2,2,28,78,160.50927585182944,161.44779300734808,"[9, 0, 245]",245,a,0.4244836487050634,colour,0.5
063,84,0,2,2,29,79,161.96870975389902,163.90381896334293,"[51, 0, 203]",203,a,1.4117313216702314,colour,0.5
063,84,0,2,2,30,80,164.42181258778146,165.41584858369606,"[38, 0, 216]",216,a,0.4709960276813945,colour,0.5
063,84,0,2,2,31,81,165.9094048756524,166.87978571647545,"[44, 0, 210]",210,a,0.4469615992566105,colour,0.5
063,84,0,2,2,32,82,167.3814245080721,168.32779848968494,"[37, 0, 217]",217,a,0.4230106661270838,colour,0.5
063,84,0,2,2,33,83,168.83458956955292,169.49578151965397,"[3, 0, 251]",251,a,0.1378979514411185,colour,0.5
063,84,0,2,2,34,84,170.0063062559202,171.71980090317084,"[50, 0, 204]",204,a,1.1900635903148213,colour,0.5
063,84,0,2,2,35,85,172.24076963734115,172.84780584671535,"[24, 0, 230]",230,a,0.08372448766021989,colour,0.5
063,84,0,2,2,36,86,173.36709798012453,175.10382085380843,"[16, 0, 238]",238,a,1.2134379334747791,colour,0.5
063,84,0,2,2,37,87,175.61703673712327,176.6399132594379,"[34, 0, 220]",220,a,0.4995774036506191,colour,0.5
063,84,0,2,2,38,88,177.14847900763561,178.2477891476592,"[86, 0, 168]",168,l,0.575953913765261,colour,0.5
063,84,0,2,2,39,89,178.75785032764543,179.7357343212061,"[48, 0, 206]",206,a,0.45449507811281364,colour,0.5
063,84,0,2,2,40,90,180.23458350432338,181.11186318118416,"[79, 0, 175]",175,l,0.3540061581734335,colour,0.5
063,84,0,2,2,41,91,181.62511569214985,182.49576182737655,"[67, 0, 187]",187,l,0.347340715044993,colour,0.5
063,84,0,2,2,42,92,183.01576485211262,183.951755488044,"[47, 0, 207]",207,a,0.41260684047301766,colour,0.5
063,84,0,2,2,43,93,184.459563871118,185.36775176384253,"[46, 0, 208]",208,a,0.3846950020233635,colour,0.5
063,84,0,2,2,44,94,185.88153202792455,186.76778193241626,"[80, 0, 174]",174,l,0.3634903543279506,colour,0.5
063,84,0,2,2,45,95,187.28778456330474,188.15974535518035,"[88, 0, 166]",166,l,0.34752897324506193,colour,0.5
063,84,0,2,2,46,96,188.67956090939697,189.5437865734857,"[25, 0, 229]",229,a,0.3410092530102702,colour,0.5
063,84,0,2,2,47,97,190.0544889341254,191.24778678458824,"[64, 0, 190]",190,a,0.6699006642593304,colour,0.5
063,84,0,2,2,48,98,191.75765498021792,192.71175542502897,"[90, 0, 164]",164,l,0.4307520954607753,colour,0.5
063,84,0,2,2,49,99,193.2263820633234,194.0477254234429,"[52, 0, 202]",202,a,0.2980013123014942,colour,0.5
063,84,0,2,2,50,100,194.5544999617996,195.27173062850488,"[18, 0, 236]",236,l,0.19387286505661905,colour,0.5
063,84,0,2,3,1,101,229.74175070675847,231.07170786423376,"[89, 0, 165]",165,l,0.8059180029231356,colour,0.5
063,84,0,2,3,2,102,231.58252877238556,232.59167701823753,"[43, 0, 211]",211,a,0.4857861118944129,colour,0.5
063,84,0,2,3,3,103,233.09815656623687,233.98375623162428,"[83, 0, 171]",171,l,0.36234465744928457,colour,0.5
063,84,0,2,3,4,104,234.50439807394287,235.47168998363486,"[95, 0, 159]",159,l,0.443968766470789,colour,0.5
063,84,0,2,3,5,105,235.98875649549882,236.57566916338692,"[96, 0, 158]",158,l,0.06353281089104712,colour,0.5
063,84,0,2,3,6,106,237.08251380625006,237.815707035581,"[5, 0, 249]",249,a,0.20981219079112634,colour,0.5
063,84,0,2,3,7,107,238.3252121055557,238.99966483737808,"[9, 0, 245]",245,a,0.15109099172696006,colour,0.5
063,84,0,2,3,8,108,239.51265819792752,241.0477214849816,"[70, 0, 184]",184,a,1.0118382113723783,colour,0.5
063,84,0,2,3,9,109,241.55956442251045,242.61573822815262,"[6, 0, 248]",248,a,0.5328746869927272,colour,0.5
063,84,0,2,3,10,110,243.1239396691526,244.1196625058219,"[32, 0, 222]",222,a,0.47230674586899113,colour,0.5
063,84,0,2,3,11,111,244.63962929675472,246.031703783985,"[41, 0, 213]",213,a,0.8687982116243802,colour,0.5
063,84,0,2,3,12,112,246.54588813366718,247.54373182894778,"[29, 0, 225]",225,a,0.47466036723926663,colour,0.5
063,84,0,2,3,13,113,248.06149859829748,249.12764299943228,"[57, 0, 197]",197,a,0.5429303531273035,colour,0.5
063,84,0,2,3,14,114,249.63255425420357,250.255686539851,"[35, 0, 219]",219,a,0.09980953625927214,colour,0.5
063,84,0,2,3,15,115,250.7699150002445,251.50366315802967,"[77, 0, 177]",177,l,0.2103482146630995,colour,0.5
063,84,0,2,3,16,116,252.01992425561184,252.71970559252077,"[15, 0, 239]",239,a,0.17648103671672288,colour,0.5
063,84,0,2,3,17,117,253.24055814224994,254.7037008884363,"[93, 0, 161]",161,l,0.9398609567433596,colour,0.5
063,84,0,2,3,18,118,255.22497091449623,256.2637221718469,"[40, 0, 214]",214,a,0.5155025509302504,colour,0.5
063,84,0,2,3,19,119,256.763915550051,257.75964429439045,"[47, 0, 207]",207,a,0.4724438041303074,colour,0.5
063,84,0,2,3,20,120,258.2795764269249,259.21573641645955,"[46, 0, 208]",208,a,0.41296996611345094,colour,0.5
063,84,0,2,3,21,121,259.7326595685154,260.6876686151518,"[28, 0, 226]",226,a,0.4316669988038484,colour,0.5
063,84,0,2,3,22,122,261.20134490399505,262.26365758117754,"[10, 0, 244]",244,a,0.5389572386047803,colour,0.5
063,84,0,2,3,23,123,262.77951498700713,263.8076733728085,"[21, 0, 233]",233,a,0.5049435501132393,colour,0.5
063,84,0,2,3,24,124,264.32636331627145,265.40765029344766,"[64, 0, 190]",190,l,0.5579445355106145,colour,0.5
063,84,0,2,3,25,125,265.9200402825227,266.6556643269578,"[13, 0, 241]",241,a,0.2120216646580957,colour,0.5
063,84,0,2,3,26,126,267.1700747440191,267.82362215082685,"[74, 0, 180]",180,l,0.1301915743824793,colour,0.5
063,84,0,2,3,27,127,268.3420210423792,269.47163366372115,"[44, 0, 210]",210,a,0.6063572195562301,colour,0.5
063,84,0,2,3,28,128,269.982652676219,271.02366145660926,"[92, 0, 162]",162,l,0.5176415264431853,colour,0.5
063,84,0,2,3,29,129,271.54513864546607,272.5276270880713,"[0, 0, 254]",254,a,0.4593949113623239,colour,0.5
063,84,0,2,3,30,130,273.0451819684822,273.98362232411455,"[72, 0, 182]",182,l,0.4154157473676605,colour,0.5
063,84,0,2,3,31,131,274.4981957932614,275.4877718814678,"[81, 0, 173]",173,l,0.466153302040766,colour,0.5
063,84,0,2,3,32,132,275.9982060332404,276.99161660231766,"[25, 0, 229]",229,a,0.4701071181189036,colour,0.5
063,84,0,2,3,33,133,277.5002335504396,278.3996690121421,"[69, 0, 185]",185,l,0.3760812046530191,colour,0.5
063,84,0,2,3,34,134,278.9064470951125,280.0316521902132,"[73, 0, 181]",181,l,0.6018713180383202,colour,0.5
063,84,0,2,3,35,135,280.54707833510474,281.90362597900094,"[56, 0, 198]",198,a,0.8332107160676969,colour,0.5
063,84,0,2,3,36,136,282.42210600276303,283.3516328445112,"[33, 0, 221]",221,a,0.4167430070665432,colour,0.5
063,84,0,2,3,37,137,283.8648845677817,285.18364154377196,"[54, 0, 200]",200,a,0.7953582143964013,colour,0.5
063,84,0,2,3,38,138,285.6930268846918,286.67968142616155,"[24, 0, 230]",230,a,0.46329398290254176,colour,0.5
063,84,0,2,3,39,139,287.1930359431426,288.17559015795996,"[85, 0, 169]",169,l,0.4592743946122937,colour,0.5
063,84,0,2,3,40,140,288.6889308903337,289.767645267988,"[84, 0, 170]",170,l,0.5553809944394743,colour,0.5
063,84,0,2,3,41,141,290.28265629960515,291.35159700457007,"[53, 0, 201]",201,a,0.5436971705348697,colour,0.5
063,84,0,2,3,42,142,291.86264516164374,293.34361493556935,"[63, 0, 191]",191,a,0.9577387905592332,colour,0.5
063,84,0,2,3,43,143,293.8633064284222,294.95161409745924,"[8, 0, 246]",246,a,0.5636497830273584,colour,0.5
063,84,0,2,3,44,144,295.45841069117887,296.5676134452515,"[14, 0, 240]",240,a,0.5858969400433125,colour,0.5
063,84,0,2,3,45,145,297.0833767219883,298.3756231622101,"[86, 0, 168]",168,l,0.7688657955295639,colour,0.5
063,84,0,2,3,46,146,298.8958971527318,301.04761396512913,"[79, 0, 175]",175,l,1.62848149673664,colour,0.5
063,84,0,2,3,47,147,301.5678745648911,303.9195853908459,"[2, 0, 252]",252,a,1.8284247042029165,colour,0.5
063,84,0,2,3,48,148,304.42717637115857,307.7196264295635,"[91, 0, 163]",163,l,2.7700548154389253,colour,0.5
063,84,0,2,3,49,149,308.2396645065601,309.5276428418874,"[4, 0, 250]",250,a,0.7646989089553244,colour,0.5
063,84,0,2,3,50,150,310.03651500197884,312.0876184392255,"[90, 0, 164]",164,l,1.5279094753786922,colour,0.5
063,84,0,2,4,1,151,353.34803073256626,353.99157485469186,"[90, 0, 164]",164,l,0.11933600780321285,colour,0.5
063,84,0,2,4,2,152,354.50510069449956,355.7195519927336,"[56, 0, 198]",198,a,0.691130518069258,colour,0.5
063,84,0,2,4,3,153,356.2394632514479,357.29554292798275,"[29, 0, 225]",225,a,0.5328290008910699,colour,0.5
063,84,0,2,4,4,154,357.80451315562823,358.8475195209612,"[82, 0, 172]",172,l,0.5196974005521042,colour,0.5
063,84,0,2,4,5,155,359.35750193180866,360.5275120851584,"[33, 0, 221]",221,a,0.6466842531954171,colour,0.5
063,84,0,2,4,6,156,361.0450315194612,362.24753944954136,"[46, 0, 208]",208,a,0.6794159742130432,colour,0.5
063,84,0,2,4,7,157,362.7637922763679,363.8395165781403,"[1, 0, 253]",253,a,0.5524180938955396,colour,0.5
063,84,0,2,4,8,158,364.35746530417236,365.3916467708914,"[96, 0, 158]",158,l,0.5108248466131045,colour,0.5
063,84,0,2,4,9,159,365.9043924025609,366.91950740941684,"[51, 0, 203]",203,a,0.5012614874867722,colour,0.5
063,84,0,2,4,10,160,367.4263792276324,368.4634731826518,"[38, 0, 216]",216,a,0.5141374820377678,colour,0.5
063,84,0,2,4,11,161,368.9732523691782,369.9676254969381,"[97, 0, 157]",157,l,0.4710484091483522,colour,0.5
063,84,0,2,4,12,162,370.4889167906658,371.4395218556747,"[89, 0, 165]",165,l,0.4273764447279973,colour,0.5
063,84,0,2,4,13,163,371.9576127599721,372.9115548788395,"[60, 0, 194]",194,a,0.43064300021796953,colour,0.5
063,84,0,2,4,14,164,373.42636780611065,374.4074955121323,"[70, 0, 184]",184,l,0.45877539220964536,colour,0.5
063,84,0,2,4,15,165,374.9263764707139,375.8955379655381,"[53, 0, 201]",201,a,0.4458564684900921,colour,0.5
063,84,0,2,4,16,166,376.4107215015247,377.47949639750004,"[55, 0, 199]",199,a,0.5455013772880193,colour,0.5
063,84,0,2,4,17,167,377.98890103683516,380.27955319003377,"[71, 0, 183]",183,l,1.7673620929999743,colour,0.5
063,84,0,2,4,18,168,380.7845865369309,381.8394913720258,"[75, 0, 179]",179,l,0.5316899993922561,colour,0.5
063,84,0,2,4,19,169,382.34703548469406,383.0474784822436,"[35, 0, 219]",219,a,0.1771186727710301,colour,0.5
063,84,0,2,4,20,170,383.56579702929594,384.7114982438361,"[50, 0, 204]",204,a,0.6223595605551964,colour,0.5
063,84,0,2,4,21,171,385.22198595861846,386.18347849170095,"[19, 0, 235]",235,a,0.43811543300398625,colour,0.5
063,84,0,2,4,22,172,386.69081268466834,387.72752224636497,"[0, 0, 254]",254,a,0.5137660856416915,colour,0.5
063,84,0,2,4,23,173,388.2375680663681,389.191557446713,"[47, 0, 207]",207,a,0.43059692028327845,colour,0.5
063,84,0,2,4,24,174,389.7063337463478,390.54348370620573,"[4, 0, 250]",250,a,0.3138126381818438,colour,0.5
063,84,0,2,4,25,175,391.05011015861237,391.95153650987777,"[99, 0, 155]",155,l,0.37806264193204697,colour,0.5
063,84,0,2,4,26,176,392.4719995462947,393.33549068830325,"[27, 0, 227]",227,a,0.34017193723411765,colour,0.5
063,84,0,2,4,27,177,393.847087472328,394.90348222535977,"[10, 0, 244]",244,a,0.5330597944412148,colour,0.5
063,84,0,2,4,28,178,395.40956556465244,396.4074510075734,"[24, 0, 230]",230,a,0.47453866894647945,colour,0.5
063,84,0,2,4,29,179,396.92524101381423,398.19946822964994,"[48, 0, 206]",206,a,0.7509477894636802,colour,0.5
063,84,0,2,4,30,180,398.7064810446027,401.35945973834896,"[14, 0, 240]",240,a,2.129663821266149,colour,0.5
063,84,0,2,4,31,181,401.87899408680096,403.5355150279647,"[86, 0, 168]",168,l,1.1334309545345604,colour,0.5
063,84,0,2,4,32,182,404.05089115446026,405.63150347411283,"[16, 0, 238]",238,a,1.0581438213848742,colour,0.5
063,84,0,2,4,33,183,406.14461932065024,407.75946233772265,"[7, 0, 247]",247,a,1.0916998612810858,colour,0.5
063,84,0,2,4,34,184,408.2695499053516,409.6954502167355,"[23, 0, 231]",231,a,0.9027205279417103,colour,0.5
063,84,0,2,4,35,185,410.20709347452794,411.65549379181175,"[37, 0, 217]",217,a,0.9250988355634036,colour,0.5
063,84,0,2,4,36,186,412.17586466834473,413.72742220958753,"[91, 0, 163]",163,l,1.0283139548264444,colour,0.5
063,84,0,2,4,37,187,414.2402682718821,415.5674771746708,"[2, 0, 252]",252,a,0.8040236055239802,colour,0.5
063,84,0,2,4,38,188,416.083936376599,417.6874464862194,"[98, 0, 156]",156,l,1.0801633356459206,colour,0.5
063,84,0,2,4,39,189,418.2089075274125,419.59945271213655,"[5, 0, 249]",249,a,0.8671381523745367,colour,0.5
063,84,0,2,4,40,190,420.1151569120266,421.6874137970444,"[52, 0, 202]",202,a,1.0490144801296992,colour,0.5
063,84,0,2,4,41,191,422.2089591211843,425.74345999670913,"[66, 0, 188]",188,a,3.011175763065694,colour,0.5
063,84,0,2,4,42,192,426.2557885458664,427.8074925976689,"[25, 0, 229]",229,a,1.0283734255062882,colour,0.5
063,84,0,2,4,43,193,428.318227253636,430.09546423763095,"[28, 0, 226]",226,a,1.253848068532534,colour,0.5
063,84,0,2,4,44,194,430.61514785357576,432.2634055199742,"[57, 0, 197]",197,a,1.1249561846634606,colour,0.5
063,84,0,2,4,45,195,432.7714486350451,435.9273973185336,"[67, 0, 187]",187,a,2.6327310908818617,colour,0.5
063,84,0,2,4,46,196,436.44332837349793,437.78343335699174,"[6, 0, 248]",248,a,0.8169283508177614,colour,0.5
063,84,0,2,4,47,197,438.30264750897186,439.60745014112035,"[83, 0, 171]",171,l,0.7815677103353664,colour,0.5
063,84,0,2,4,48,198,440.1151151644008,441.25539666948316,"[78, 0, 176]",176,l,0.6169965648732614,colour,0.5
063,84,0,2,4,49,199,441.7713623828604,442.82351266173646,"[81, 0, 173]",173,l,0.5287849941669265,colour,0.5
063,84,0,2,4,50,200,443.33391885047604,444.6794112480711,"[13, 0, 241]",241,a,0.8221184482827084,colour,0.5
063,84,0,2,5,1,201,456.0205158117169,457.8954016949574,"[66, 0, 188]",188,l,1.350768353411695,colour,0.5
063,84,0,2,5,2,202,458.4119747182558,459.727419452669,"[60, 0, 194]",194,a,0.7924784153001383,colour,0.5
063,84,0,2,5,3,203,460.23999927531986,461.65538705965446,"[82, 0, 172]",172,l,0.8920583395665744,colour,0.5
063,84,0,2,5,4,204,462.16192725986184,463.5514189075766,"[36, 0, 218]",218,a,0.8664248979766853,colour,0.5
063,84,0,2,5,5,205,464.06812820147024,466.5754222221876,"[77, 0, 177]",177,l,1.9839220406283857,colour,0.5
063,84,0,2,5,6,206,467.08381231523526,468.3273884964001,"[58, 0, 196]",196,a,0.7202999055589316,colour,0.5
063,84,0,2,5,7,207,468.833831022901,469.95136558088416,"[48, 0, 206]",206,a,0.5942823069635779,colour,0.5
063,84,0,2,5,8,208,470.4587726352911,471.76737627142575,"[99, 0, 155]",155,l,0.7852982159529347,colour,0.5
063,84,0,2,5,9,209,472.28686335841485,473.6234186114161,"[32, 0, 222]",222,a,0.8132931558357086,colour,0.5
063,84,0,2,5,10,210,474.13063701376086,475.26339055385324,"[73, 0, 181]",181,a,0.6094583598896861,colour,0.5
063,84,0,2,5,11,211,475.7711174108845,478.78336167709494,"[14, 0, 240]",240,a,2.488976655207807,colour,0.5
063,84,0,2,5,12,212,479.30251241991937,480.359510150578,"[37, 0, 217]",217,a,0.533826611834229,colour,0.5
063,84,0,2,5,13,213,480.8805643492524,483.84738246268535,"[74, 0, 180]",180,l,2.4435666500939988,colour,0.5
063,84,0,2,5,14,214,484.3649991768616,485.70334051969985,"[64, 0, 190]",190,a,0.8150946056557586,colour,0.5
063,84,0,2,5,15,215,486.22436911841214,487.4873445589765,"[39, 0, 215]",215,a,0.739768875631853,colour,0.5
063,84,0,2,5,16,216,488.003557213553,489.19141211768147,"[2, 0, 252]",252,a,0.6646121053927345,colour,0.5
063,84,0,2,5,17,217,489.70668072432454,490.9033597393718,"[10, 0, 244]",244,a,0.6734125855728053,colour,0.5
063,84,0,2,5,18,218,491.4097735151445,492.78336640323687,"[75, 0, 179]",179,l,0.8503500893712044,colour,0.5
063,84,0,2,5,19,219,493.3006262932904,494.711472643874,"[40, 0, 214]",214,a,0.8863700273941504,colour,0.5
063,84,0,2,5,20,220,495.22353259033116,496.6794671741518,"[84, 0, 170]",170,l,0.9324527208082145,colour,0.5
063,84,0,2,5,21,221,497.19229630107293,498.3673575243738,"[90, 0, 164]",164,l,0.6517164185497677,colour,0.5
063,84,0,2,5,22,222,498.8674520473287,500.2073762556829,"[57, 0, 197]",197,a,0.8166243020095862,colour,0.5
063,84,0,2,5,23,223,500.7268302596349,501.8713077958528,"[12, 0, 242]",242,a,0.6211981098458637,colour,0.5
063,84,0,2,5,24,224,502.3830333673832,503.3433270344249,"[15, 0, 239]",239,a,0.43697603764303494,colour,0.5
063,84,0,2,5,25,225,503.8517261859233,504.6633301379334,"[20, 0, 234]",234,a,0.2882615103299031,colour,0.5
063,84,0,2,5,26,226,505.17991694583907,506.52733879307925,"[62, 0, 192]",192,a,0.8241554177802755,colour,0.5
063,84,0,2,5,27,227,507.0399591818423,508.56738816556754,"[67, 0, 187]",187,l,1.003630074992543,colour,0.5
063,84,0,2,5,28,228,509.0868776156276,509.7833715232264,"[93, 0, 161]",161,l,0.17315855514607392,colour,0.5
063,84,0,2,5,29,229,510.29005232632335,511.58326802060765,"[44, 0, 210]",210,a,0.7699102741025854,colour,0.5
063,84,0,2,5,30,230,512.1025853601313,512.7033350058628,"[21, 0, 233]",233,a,0.07654192525660619,colour,0.5
063,84,0,2,5,31,231,513.2128774911689,514.1033309098711,"[54, 0, 200]",200,a,0.36708104476565495,colour,0.5
063,84,0,2,5,32,232,514.6196747150389,515.2712820383604,"[50, 0, 204]",204,a,0.12835192153579555,colour,0.5
063,84,0,2,5,33,233,515.7915111304756,516.4952710957441,"[35, 0, 219]",219,a,0.17923756215895992,colour,0.5
063,84,0,2,5,34,234,517.0114089196577,517.6713334745873,"[27, 0, 227]",227,a,0.1366470977809513,colour,0.5
063,84,0,2,5,35,235,518.1832729042944,519.2233077044802,"[26, 0, 228]",228,a,0.5166289493790828,colour,0.5
063,84,0,2,5,36,236,519.7178765735152,520.6793289343332,"[23, 0, 231]",231,a,0.4505440189386718,colour,0.5
063,84,0,2,5,37,237,521.1897792337841,522.2073065450095,"[9, 0, 245]",245,a,0.49419983569532633,colour,0.5
063,84,0,2,5,38,238,522.7210415168374,523.6552854474867,"[52, 0, 202]",202,a,0.4098073858767748,colour,0.5
063,84,0,2,5,39,239,524.1669361883396,524.9033132655895,"[1, 0, 253]",253,a,0.21382744678703602,colour,0.5
063,84,0,2,5,40,240,525.4168784899666,526.7993285720004,"[85, 0, 169]",169,l,0.8596255473530618,colour,0.5
063,84,0,2,5,41,241,527.3074311577511,528.0793130229722,"[71, 0, 183]",183,l,0.24849767591513228,colour,0.5
063,84,0,2,5,42,242,528.5763071932743,530.1752766568534,"[56, 0, 198]",198,a,1.0756632557022385,colour,0.5
063,84,0,2,5,43,243,530.6856438548712,531.7912819123303,"[22, 0, 232]",232,a,0.5824310986790806,colour,0.5
063,84,0,2,5,44,244,532.3109206298686,533.2952739314351,"[19, 0, 235]",235,a,0.46107466288958676,colour,0.5
063,84,0,2,5,45,245,533.8109564698243,535.1993193560193,"[69, 0, 185]",185,l,0.8651283582294127,colour,0.5
063,84,0,2,5,46,246,535.7174441310344,537.567302701078,"[89, 0, 165]",165,l,1.3266405835893238,colour,0.5
063,84,0,2,5,47,247,538.0767609034228,539.7913161768956,"[49, 0, 205]",205,a,1.1912541855999734,colour,0.5
063,84,0,2,5,48,248,540.3110565066017,541.879272535647,"[96, 0, 158]",158,l,1.0450204917869996,colour,0.5
063,84,0,2,5,49,249,542.3767594068049,543.7032479659829,"[31, 0, 223]",223,a,0.8031728990172269,colour,0.5
063,84,0,2,5,50,250,544.2159187669749,549.3192926060146,"[18, 0, 236]",236,a,4.580803728604224,colour,0.5
063,84,0,2,6,1,251,555.0275325651164,556.9752771294588,"[12, 0, 242]",242,a,1.4238653110951418,colour,0.5
063,84,0,2,6,2,252,557.481525490075,558.7353262971446,"[89, 0, 165]",165,l,0.7305587960290723,colour,0.5
063,84,0,2,6,3,253,559.2470053948928,560.48720671302,"[88, 0, 166]",166,l,0.7168639964511385,colour,0.5
063,84,0,2,6,4,254,560.9970662440464,561.9992603579449,"[17, 0, 237]",237,a,0.4771786160708871,colour,0.5
063,84,0,2,6,5,255,562.5144675246702,563.4792541824427,"[72, 0, 182]",182,l,0.44146745299804024,colour,0.5
063,84,0,2,6,6,256,563.9988972322899,564.6712294993486,"[1, 0, 253]",253,a,0.14757749502314255,colour,0.5
063,84,0,2,6,7,257,565.1904853989545,565.8312300664838,"[67, 0, 187]",187,l,0.11624668282456696,colour,0.5
063,84,0,2,6,8,258,566.3478412928234,567.5592107491539,"[40, 0, 214]",214,a,0.6879403686325531,colour,0.5
063,84,0,2,6,9,259,568.0664957114204,569.1912340994604,"[90, 0, 164]",164,l,0.6011423098098021,colour,0.5
063,84,0,2,6,10,260,569.707349474178,570.7352365003462,"[80, 0, 174]",174,l,0.5046146890235832,colour,0.5
063,84,0,2,6,11,261,571.254195834219,572.2632487694354,"[74, 0, 180]",180,l,0.48569552741537336,colour,0.5
063,84,0,2,6,12,262,572.7697972403985,573.7752457005845,"[42, 0, 212]",212,a,0.48213949539058376,colour,0.5
063,84,0,2,6,13,263,574.274193738951,574.9672856081743,"[95, 0, 159]",159,l,0.16972894757054746,colour,0.5
063,84,0,2,6,14,264,575.4773377296951,577.1031958208187,"[85, 0, 169]",169,l,1.102650344648282,colour,0.5
063,84,0,2,6,15,265,577.6179736958438,578.5032252017118,"[55, 0, 199]",199,a,0.36195041799510363,colour,0.5
063,84,0,2,6,16,266,579.0243250864733,580.1351926259522,"[78, 0, 176]",176,l,0.5875822054222226,colour,0.5
063,84,0,2,6,17,267,580.6492304650601,581.6472769908287,"[64, 0, 190]",190,a,0.474689511815086,colour,0.5
063,84,0,2,6,18,268,582.1648094220436,582.7272181975568,"[3, 0, 251]",251,l,0.03903482618625276,colour,0.5
063,84,0,2,6,19,269,583.2429247605178,584.6872275080677,"[28, 0, 226]",226,a,0.9217728093790356,colour,0.5
063,84,0,2,6,20,270,585.1960445297591,587.0632610574103,"[66, 0, 188]",188,l,1.343921347448486,colour,0.5
063,84,0,2,6,21,271,587.5710592005053,588.1351906567143,"[5, 0, 249]",249,a,0.040813432962750085,colour,0.5
063,84,0,2,6,22,272,588.6509578719124,589.6631659043051,"[46, 0, 208]",208,a,0.48879312313511036,colour,0.5
063,84,0,2,6,23,273,590.18221857959,591.3591919233295,"[44, 0, 210]",210,a,0.6511953608132899,colour,0.5
063,84,0,2,6,24,274,591.8723530621064,592.5111997876375,"[97, 0, 157]",157,l,0.11563779752759729,colour,0.5
063,84,0,2,6,25,275,593.0204114426306,593.6712247732066,"[52, 0, 202]",202,a,0.12743623049755115,colour,0.5
063,84,0,2,6,26,276,594.1923120549036,595.4632289983856,"[58, 0, 196]",196,a,0.7476079786865739,colour,0.5
063,84,0,2,6,27,277,595.97356665798,597.0151890498237,"[53, 0, 201]",201,a,0.5182752240361879,colour,0.5
063,84,0,2,6,28,278,597.5360679872101,598.4952041419892,"[84, 0, 170]",170,l,0.43586106071597897,colour,0.5
063,84,0,2,6,29,279,599.0092856979609,600.0791767523915,"[87, 0, 167]",167,l,0.5466218680376187,colour,0.5
063,84,0,2,6,30,280,600.5780172709201,601.5911973142938,"[69, 0, 185]",185,l,0.5008692172705196,colour,0.5
063,84,0,2,6,31,281,602.0980970955425,603.0712214648956,"[49, 0, 205]",205,a,0.4478654749400448,colour,0.5
063,84,0,2,6,32,282,603.5750555519189,604.4951525482174,"[11, 0, 243]",243,a,0.39668878240627237,colour,0.5
063,84,0,2,6,33,283,605.0146738997719,606.0072010731528,"[16, 0, 238]",238,a,0.469287525411346,colour,0.5
063,84,0,2,6,34,284,606.5145675614622,607.5032098417287,"[73, 0, 181]",181,l,0.46537900157272816,colour,0.5
063,84,0,2,6,35,285,608.0145541707025,608.959210591609,"[9, 0, 245]",245,a,0.42134036688366905,colour,0.5
063,84,0,2,6,36,286,609.4676530661236,610.8471938106377,"[22, 0, 232]",232,a,0.8562392627791269,colour,0.5
063,84,0,2,6,37,287,611.358380601363,612.3352071194677,"[83, 0, 171]",171,l,0.4535864762874553,colour,0.5
063,84,0,2,6,38,288,612.8426834907004,613.9112106577813,"[32, 0, 222]",222,a,0.5452185961330542,colour,0.5
063,84,0,2,6,39,289,614.4207267554302,615.8711683745059,"[33, 0, 221]",221,a,0.9277758041716879,colour,0.5
063,84,0,2,6,40,290,616.3895775060519,617.3031732928503,"[7, 0, 247]",247,a,0.3903707111167023,colour,0.5
063,84,0,2,6,41,291,617.8114149061148,619.2311861920898,"[27, 0, 227]",227,a,0.896499736525584,colour,0.5
063,84,0,2,6,42,292,619.7488525308145,620.6232433501136,"[59, 0, 195]",195,l,0.3510208084335318,colour,0.5
063,84,0,2,6,43,293,621.1395056292386,622.0551738316426,"[43, 0, 211]",211,a,0.39229543461988214,colour,0.5
063,84,0,2,6,44,294,622.5613363339071,624.1191642911144,"[14, 0, 240]",240,a,1.0345185985643184,colour,0.5
063,84,0,2,6,45,295,624.6335034221265,625.5671936058352,"[2, 0, 252]",252,a,0.4103319882124197,colour,0.5
063,84,0,2,6,46,296,626.0865704160533,626.7751909560466,"[23, 0, 231]",231,a,0.16442660411121324,colour,0.5
063,84,0,2,6,47,297,627.2906052855687,628.0313375075639,"[63, 0, 191]",191,l,0.21742719566100277,colour,0.5
063,84,0,2,6,48,298,628.5405416794965,629.2231371693342,"[4, 0, 250]",250,a,0.15916325137368403,colour,0.5
063,84,0,2,6,49,299,629.7437408086262,630.8471973552514,"[29, 0, 225]",225,a,0.5800593604217283,colour,0.5
063,84,0,2,6,50,300,631.3687757624284,632.3752348304406,"[76, 0, 178]",178,l,0.4830788171675522,colour,0.5
063,84,0,2,7,1,301,637.3217702887632,639.4471486759285,"[28, 0, 226]",226,a,1.6019607209891547,colour,0.5
063,84,0,2,7,2,302,639.9631518046372,640.8551959657634,"[12, 0, 242]",242,a,0.36867375641304534,colour,0.5
063,84,0,2,7,3,303,641.3694133984682,642.047147258083,"[76, 0, 178]",178,l,0.1544764885911718,colour,0.5
063,84,0,2,7,4,304,642.5587420728698,643.6951209617982,"[26, 0, 228]",228,a,0.6131282132846536,colour,0.5
063,84,0,2,7,5,305,644.2166796766978,645.0231360665639,"[16, 0, 238]",238,a,0.2831096158915898,colour,0.5
063,84,0,2,7,6,306,645.5447755198111,647.0311291632388,"[79, 0, 175]",175,l,0.9630702785943868,colour,0.5
063,84,0,2,7,7,307,647.5447290460288,648.8471213430457,"[48, 0, 206]",206,a,0.7790833322214894,colour,0.5
063,84,0,2,7,8,308,649.3572837413376,650.5431111282669,"[7, 0, 247]",247,a,0.6624979421612807,colour,0.5
063,84,0,2,7,9,309,651.0603781075333,657.8472351644305,"[42, 0, 212]",212,a,6.263902553153457,colour,0.5
063,84,0,2,7,10,310,658.357280984419,660.5671179874771,"[36, 0, 218]",218,a,1.6866958164901007,colour,0.5
063,84,0,2,7,11,311,661.0763599685888,662.5431115221145,"[11, 0, 243]",243,a,0.9436213946464704,colour,0.5
063,84,0,2,7,12,312,663.0605214673415,665.2951250577898,"[89, 0, 165]",165,l,1.7113139240973396,colour,0.5
063,84,0,2,7,13,313,665.8105771964911,669.1911147642531,"[53, 0, 201]",201,a,2.8572927998029627,colour,0.5
063,84,0,2,7,14,314,669.7011987872684,670.7110772228771,"[60, 0, 194]",194,a,0.4866183076665038,colour,0.5
063,84,0,2,7,15,315,671.2323937227338,672.2551158575661,"[34, 0, 220]",220,a,0.49930643787956797,colour,0.5
063,84,0,2,7,16,316,672.7636603380961,673.6710715672671,"[69, 0, 185]",185,l,0.3840727259666892,colour,0.5
063,84,0,2,7,17,317,674.1762132217118,675.2390871288808,"[14, 0, 240]",240,a,0.5397035760252038,colour,0.5
063,84,0,2,7,18,318,675.7543250155722,678.7430980525969,"[61, 0, 193]",193,a,2.4654932168050436,colour,0.5
063,84,0,2,7,19,319,679.2542950833158,680.1110888807161,"[70, 0, 184]",184,l,0.3334643526468426,colour,0.5
063,84,0,2,7,20,320,680.6293050279055,681.5270406519558,"[27, 0, 227]",227,a,0.3745818344177678,colour,0.5
063,84,0,2,7,21,321,682.0355571694527,682.8870639833622,"[86, 0, 168]",168,l,0.3281482245802181,colour,0.5
063,84,0,2,7,22,322,683.3824705620063,684.3830963826913,"[78, 0, 176]",176,l,0.47727313902578317,colour,0.5
063,84,0,2,7,23,323,684.8980546389939,685.8710699131043,"[46, 0, 208]",208,a,0.4496803155197995,colour,0.5
063,84,0,2,7,24,324,686.3824823773757,687.3750619322236,"[5, 0, 249]",249,a,0.46931273154041264,colour,0.5
063,84,0,2,7,25,325,687.8825209742499,688.8871368448017,"[19, 0, 235]",235,a,0.4811962351523107,colour,0.5
063,84,0,2,7,26,326,689.3980440051528,690.6070681108686,"[6, 0, 248]",248,a,0.6857226239808369,colour,0.5
063,84,0,2,7,27,327,691.1168378450966,692.0150571115519,"[98, 0, 156]",156,l,0.37475788341544103,colour,0.5
063,84,0,2,7,28,328,692.5231179496768,693.5190444045147,"[31, 0, 223]",223,a,0.4726013423787663,colour,0.5
063,84,0,2,7,29,329,694.0387567711878,695.0551143609482,"[18, 0, 236]",236,a,0.4931317263835808,colour,0.5
063,84,0,2,7,30,330,695.5699209866871,696.3350424920063,"[77, 0, 177]",177,l,0.24182829433993902,colour,0.5
063,84,0,2,7,31,331,696.8388604313513,697.9190615761909,"[45, 0, 209]",209,a,0.5574636500241468,colour,0.5
063,84,0,2,7,32,332,698.4326161667268,699.1830791322427,"[82, 0, 172]",172,l,0.2271197361551458,colour,0.5
063,84,0,2,7,33,333,699.6982721205277,701.1430616612488,"[54, 0, 200]",200,a,0.9215038128168089,colour,0.5
063,84,0,2,7,34,334,701.6513753482577,704.0150618376938,"[64, 0, 190]",190,l,1.8404381768632447,colour,0.5
063,84,0,2,7,35,335,704.5271946455905,705.8310366882943,"[49, 0, 205]",205,a,0.7814334089780459,colour,0.5
063,84,0,2,7,36,336,706.338873822111,707.4470482453034,"[0, 0, 254]",254,a,0.5848863322171383,colour,0.5
063,84,0,2,7,37,337,707.9638595451979,708.9990378351649,"[52, 0, 202]",202,a,0.5118484513513977,colour,0.5
063,84,0,2,7,38,338,709.5107283544348,710.3990766683419,"[13, 0, 241]",241,a,0.365052346009179,colour,0.5
063,84,0,2,7,39,339,710.9171203111619,711.8710517962172,"[56, 0, 198]",198,l,0.43071074166800827,colour,0.5
063,84,0,2,7,40,340,712.3857008837076,713.343047010203,"[47, 0, 207]",207,a,0.4340265278733568,colour,0.5
063,84,0,2,7,41,341,713.8544819236704,714.8711014207511,"[68, 0, 186]",186,l,0.4934058429353172,colour,0.5
063,84,0,2,7,42,342,715.3856599237624,716.3030326899752,"[62, 0, 192]",192,l,0.394009450727026,colour,0.5
063,84,0,2,7,43,343,716.8232286990533,717.7750369624118,"[39, 0, 215]",215,a,0.42884430731646717,colour,0.5
063,84,0,2,7,44,344,718.2918876468757,719.2470290256315,"[92, 0, 162]",162,l,0.4320939274475677,colour,0.5
063,84,0,2,7,45,345,719.7606344222586,720.7110256291053,"[90, 0, 164]",164,l,0.4271086297085276,colour,0.5
063,84,0,2,7,46,346,721.229421369906,722.1269998495554,"[83, 0, 171]",171,l,0.374284480989445,colour,0.5
063,84,0,2,7,47,347,722.6356857206556,723.3190232156194,"[9, 0, 245]",245,a,0.15999032714171335,colour,0.5
063,84,0,2,7,48,348,723.8388088375796,724.7990213724261,"[85, 0, 169]",169,l,0.43679998865991365,colour,0.5
063,84,0,2,7,49,349,725.3074961422826,726.471024384562,"[57, 0, 197]",197,a,0.6401078191847773,colour,0.5
063,84,0,2,7,50,350,726.9794581944734,728.0549981764925,"[74, 0, 180]",180,l,0.5524310908076586,colour,0.5
063,84,0,2,8,1,351,914.6560349356732,916.4067519316159,"[93, 0, 161]",161,l,1.2264706785936141,colour,0.5
063,84,0,2,8,2,352,916.9225731036568,917.5027443162107,"[43, 0, 211]",211,a,0.05697370607231278,colour,0.5
063,84,0,2,8,3,353,918.0161850853765,918.6707092292927,"[47, 0, 207]",207,a,0.13120808989333455,colour,0.5
063,84,0,2,8,4,354,919.1881164176157,919.7747510304907,"[40, 0, 214]",214,a,0.06329532197560184,colour,0.5
063,84,0,2,8,5,355,920.2818323745742,920.990751323523,"[86, 0, 168]",168,l,0.1856304641260067,colour,0.5
063,84,0,2,8,6,356,921.5004564670671,922.6467409669567,"[14, 0, 240]",240,a,0.6228601383336354,colour,0.5
063,84,0,2,8,7,357,923.1568064792373,924.3828057246283,"[56, 0, 198]",198,a,0.7027544774318812,colour,0.5
063,84,0,2,8,8,358,924.8911729746324,925.8789035023074,"[29, 0, 225]",225,a,0.464374301416683,colour,0.5
063,84,0,2,8,9,359,926.3912497745187,927.3027081611945,"[51, 0, 203]",203,a,0.3881584803311853,colour,0.5
063,84,0,2,8,10,360,927.8130544853921,928.7107558448624,"[44, 0, 210]",210,a,0.3867524514935212,colour,0.5
063,84,0,2,8,11,361,929.2224534533598,930.2467222199048,"[95, 0, 159]",159,l,0.500500577778439,colour,0.5
063,84,0,2,8,12,362,930.753870517743,931.7587349048845,"[27, 0, 227]",227,a,0.4817165052081691,colour,0.5
063,84,0,2,8,13,363,932.2694278132112,933.198751824486,"[41, 0, 213]",213,a,0.4059941726591205,colour,0.5
063,84,0,2,8,14,364,933.7069264839956,934.6227510431054,"[25, 0, 229]",229,a,0.39252228969417047,colour,0.5
063,84,0,2,8,15,365,935.1444763546897,936.1346924420213,"[38, 0, 216]",216,a,0.4670709623169387,colour,0.5
063,84,0,2,8,16,366,936.6345742883423,937.5747916753608,"[18, 0, 236]",236,a,0.41694071756501216,colour,0.5
063,84,0,2,8,17,367,938.0752654716343,939.0147231304727,"[64, 0, 190]",190,l,0.4161699617106933,colour,0.5
063,84,0,2,8,18,368,939.528409659295,940.486710861398,"[67, 0, 187]",187,l,0.43526359692623373,colour,0.5
063,84,0,2,8,19,369,941.0001701412984,941.9187220812746,"[68, 0, 186]",186,l,0.3940204784012167,colour,0.5
063,84,0,2,8,20,370,942.4389614133688,943.398718662691,"[23, 0, 231]",231,a,0.43647939832590055,colour,0.5
063,84,0,2,8,21,371,943.9076491119195,944.8547473756043,"[99, 0, 155]",155,l,0.423772757378174,colour,0.5
063,84,0,2,8,22,372,945.3764569333725,946.9907198158617,"[59, 0, 195]",195,a,1.091005905313068,colour,0.5
063,84,0,2,8,23,373,947.5013835796271,948.4307379170059,"[36, 0, 218]",218,a,0.40604812950186897,colour,0.5
063,84,0,2,8,24,374,948.9388428658422,949.8947416097071,"[79, 0, 175]",175,l,0.43259450522600673,colour,0.5
063,84,0,2,8,25,375,950.4075652228057,951.430741067772,"[72, 0, 182]",182,l,0.5004820670292247,colour,0.5
063,84,0,2,8,26,376,951.9388960350043,952.9586820507975,"[32, 0, 222]",222,a,0.4965900847018929,colour,0.5
063,84,0,2,8,27,377,953.4701165704173,954.4627158175426,"[4, 0, 250]",250,a,0.46926310697745066,colour,0.5
063,84,0,2,8,28,378,954.9701153888891,955.9426856174687,"[53, 0, 201]",201,l,0.4492159715446178,colour,0.5
063,84,0,2,8,29,379,956.4544521489443,958.054710275348,"[6, 0, 248]",248,a,1.076937346253544,colour,0.5
063,84,0,2,8,30,380,958.5638171674073,959.6787523443636,"[73, 0, 181]",181,l,0.6009520823718049,colour,0.5
063,84,0,2,8,31,381,960.1952505370136,961.5107228405977,"[49, 0, 205]",205,a,0.7924004338565283,colour,0.5
063,84,0,2,8,32,382,962.0232463433349,963.0467010310094,"[94, 0, 160]",160,l,0.5001087013952201,colour,0.5
063,84,0,2,8,33,383,963.5545283186802,964.6707391615637,"[10, 0, 244]",244,a,0.5928920319565805,colour,0.5
063,84,0,2,8,34,384,965.1794892295002,966.1986943230295,"[75, 0, 179]",179,l,0.4959209410008043,colour,0.5
063,84,0,2,8,35,385,966.7108342201391,968.4626760391402,"[55, 0, 199]",199,a,1.2286340725258924,colour,0.5
063,84,0,2,8,36,386,968.9763306664681,970.1907189494086,"[39, 0, 215]",215,a,0.6909875521232607,colour,0.5
063,84,0,2,8,37,387,970.7122949935147,973.6626661142363,"[30, 0, 224]",224,a,2.4272248141642194,colour,0.5
063,84,0,2,8,38,388,974.1810405873694,975.2386980094307,"[58, 0, 196]",196,a,0.5346804691216676,colour,0.5
063,84,0,2,8,39,389,975.7591141782032,976.8388025360473,"[52, 0, 202]",202,a,0.5563274054293288,colour,0.5
063,84,0,2,8,40,390,977.3529081166052,978.3346348617924,"[12, 0, 242]",242,a,0.4585351463902043,colour,0.5
063,84,0,2,8,41,391,978.8528762151109,979.7906694824051,"[26, 0, 228]",228,a,0.4145110840036068,colour,0.5
063,84,0,2,8,42,392,980.3087351805734,981.5666985419084,"[63, 0, 191]",191,a,0.7345598735992098,colour,0.5
063,84,0,2,8,43,393,982.0743864082324,983.070689379485,"[42, 0, 212]",212,a,0.4730416617821902,colour,0.5
063,84,0,2,8,44,394,983.5899736359715,984.4866584799311,"[88, 0, 166]",166,l,0.37330971310439054,colour,0.5
063,84,0,2,8,45,395,984.9961663068243,985.9506913171936,"[60, 0, 194]",194,a,0.4311234918568516,colour,0.5
063,84,0,2,8,46,396,986.4649103252887,987.358701191697,"[83, 0, 171]",171,l,0.37042952014598995,colour,0.5
063,84,0,2,8,47,397,987.8711648299068,988.8306676549546,"[1, 0, 253]",253,a,0.4361080019152723,colour,0.5
063,84,0,2,8,48,398,989.3399427190889,990.2306352020823,"[7, 0, 247]",247,a,0.3671590261947131,colour,0.5
063,84,0,2,8,49,399,990.7461779252626,991.6546576575784,"[65, 0, 189]",189,l,0.3852168474550126,colour,0.5
063,84,0,2,8,50,400,992.1680263529997,993.0386106544611,"[97, 0, 157]",157,l,0.34711031535698567,colour,0.5
063,84,0,2,9,1,401,1002.7311542905954,1003.9666204029345,"[72, 0, 182]",182,a,0.7112800533795962,colour,0.5
063,84,0,2,9,2,402,1004.4819709294679,1005.4786984662787,"[30, 0, 224]",224,a,0.47340596896538045,colour,0.5
063,84,0,2,9,3,403,1005.9976172340539,1007.1666471056669,"[80, 0, 174]",174,l,0.6458044020982925,colour,0.5
063,84,0,2,9,4,404,1007.6849483235128,1008.5906439612008,"[91, 0, 163]",163,l,0.3821976269973675,colour,0.5
063,84,0,2,9,5,405,1009.1070968615968,1010.0226559687726,"[14, 0, 240]",240,a,0.3922863761690678,colour,0.5
063,84,0,2,9,6,406,1010.5289500154759,1011.4866100369109,"[39, 0, 215]",215,a,0.4345629455783637,colour,0.5
063,84,0,2,9,7,407,1011.99969713272,1012.8466026483802,"[60, 0, 194]",194,a,0.32363672311475966,colour,0.5
063,84,0,2,9,8,408,1013.3590733758028,1014.2546263074619,"[47, 0, 207]",207,a,0.3722809883620357,colour,0.5
063,84,0,2,9,9,409,1014.7652290251572,1015.6866268935119,"[88, 0, 166]",166,l,0.39804321747215,colour,0.5
063,84,0,2,9,10,410,1016.18892734572,1017.0946151065,"[46, 0, 208]",208,a,0.38230947915872093,colour,0.5
063,84,0,2,9,11,411,1017.6107769549853,1018.4386553953227,"[38, 0, 216]",216,a,0.30458522935805377,colour,0.5
063,84,0,2,9,12,412,1018.9545053180918,1019.7986074406945,"[17, 0, 237]",237,a,0.32071675175393466,colour,0.5
063,84,0,2,9,13,413,1020.3166672311781,1021.1906630233279,"[77, 0, 177]",177,l,0.35074984266248066,colour,0.5
063,84,0,2,9,14,414,1021.7072187174344,1022.9186251952488,"[58, 0, 196]",196,a,0.6880593099922407,colour,0.5
063,84,0,2,9,15,415,1023.4259877450968,1024.3826249494887,"[0, 0, 254]",254,a,0.43369884831190575,colour,0.5
063,84,0,2,9,16,416,1024.894688440545,1025.8145936340297,"[71, 0, 183]",183,l,0.39654345337476116,colour,0.5
063,84,0,2,9,17,417,1026.332213105139,1027.2226184746687,"[99, 0, 155]",155,l,0.3671850200043991,colour,0.5
063,84,0,2,9,18,418,1027.7384144405805,1028.8145830002031,"[64, 0, 190]",190,l,0.5529403331747744,colour,0.5
063,84,0,2,9,19,419,1029.3321729328745,1030.2385794618895,"[43, 0, 211]",211,a,0.38305227196542546,colour,0.5
063,84,0,2,9,20,420,1030.7544278092828,1031.6786365537555,"[40, 0, 214]",214,a,0.4009163212031126,colour,0.5
063,84,0,2,9,21,421,1032.1919312061946,1033.150650672338,"[23, 0, 231]",231,a,0.4340871800959576,colour,0.5
063,84,0,2,9,22,422,1033.6620099674474,1034.5105550623703,"[18, 0, 236]",236,a,0.3253507392073516,colour,0.5
063,84,0,2,9,23,423,1035.021423625847,1035.9266320765164,"[86, 0, 168]",168,l,0.3819518673408311,colour,0.5
063,84,0,2,9,24,424,1036.4325303083897,1037.3745511144662,"[85, 0, 169]",169,l,0.4186811213294277,colour,0.5
063,84,0,2,9,25,425,1037.8732612700842,1038.7746084583778,"[26, 0, 228]",228,a,0.37796654360136017,colour,0.5
063,84,0,2,9,26,426,1039.2952526637673,1041.6866131089191,"[5, 0, 249]",249,a,1.8683559230121318,colour,0.5
063,84,0,2,9,27,427,1042.2014130392781,1043.1106662843667,"[19, 0, 235]",235,a,0.385888748060097,colour,0.5
063,84,0,2,9,28,428,1043.623295337733,1044.5986291809677,"[96, 0, 158]",158,l,0.45202999842877034,colour,0.5
063,84,0,2,9,29,429,1045.1075848363107,1050.358727973202,"[35, 0, 219]",219,l,4.727842442851397,colour,0.5
063,84,0,2,9,30,430,1050.873264814698,1051.8785435274185,"[31, 0, 223]",223,a,0.4819547817896819,colour,0.5
063,84,0,2,9,31,431,1052.3888351070782,1053.75859508969,"[68, 0, 186]",186,l,0.8463978486543056,colour,0.5
063,84,0,2,9,32,432,1054.2794547286321,1055.9905721237592,"[61, 0, 193]",193,a,1.187850571819581,colour,0.5
063,84,0,2,9,33,433,1056.4981973686372,1057.5186611927347,"[13, 0, 241]",241,a,0.49563579678942915,colour,0.5
063,84,0,2,9,34,434,1058.0334174062446,1059.0625840368011,"[98, 0, 156]",156,l,0.5045615198614541,colour,0.5
063,84,0,2,9,35,435,1059.5815106814844,1060.5265451941814,"[29, 0, 225]",225,a,0.4218409446621081,colour,0.5
063,84,0,2,9,36,436,1061.0346107584483,1064.0305368194386,"[63, 0, 191]",191,a,2.472574560873909,colour,0.5
063,84,0,2,9,37,437,1064.5507686684723,1065.6545406854275,"[76, 0, 178]",178,l,0.5805646643275395,colour,0.5
063,84,0,2,9,38,438,1066.1757299731398,1066.9506149111548,"[1, 0, 253]",253,a,0.2513963796227472,colour,0.5
063,84,0,2,9,39,439,1067.4574831847567,1068.502630100993,"[48, 0, 206]",206,a,0.5218678837118205,colour,0.5
063,84,0,2,9,40,440,1069.0200290185458,1070.0065118433267,"[73, 0, 181]",181,l,0.46316125693556387,colour,0.5
063,84,0,2,9,41,441,1070.5219431082078,1071.5425538367272,"[90, 0, 164]",164,l,0.49604145776538644,colour,0.5
063,84,0,2,9,42,442,1072.0545267433045,1073.0865448160912,"[3, 0, 251]",251,a,0.5087922094244277,colour,0.5
063,84,0,2,9,43,443,1073.6014290294115,1074.3425074417173,"[67, 0, 187]",187,l,0.21776590289664455,colour,0.5
063,84,0,2,9,44,444,1074.8514398601692,1075.4625433131732,"[79, 0, 175]",175,l,0.08778858052392025,colour,0.5
063,84,0,2,9,45,445,1075.9764866293408,1076.7345204890298,"[8, 0, 246]",246,a,0.2347630979202222,colour,0.5
063,84,0,2,9,46,446,1077.2420775986102,1078.4065920302965,"[21, 0, 233]",233,a,0.6412909313949058,colour,0.5
063,84,0,2,9,47,447,1078.914007355459,1079.8705386153742,"[55, 0, 199]",199,a,0.43330579038592987,colour,0.5
063,84,0,2,9,48,448,1080.3827635831403,1081.3185135794047,"[7, 0, 247]",247,a,0.4125580036197789,colour,0.5
063,84,0,2,9,49,449,1081.835857358572,1082.7985085854452,"[83, 0, 171]",171,l,0.43944938808272127,colour,0.5
063,84,0,2,9,50,450,1083.3202004201594,1084.3265480298578,"[81, 0, 173]",173,l,0.4830677894933615,colour,0.5
063,84,0,2,10,1,451,1093.7900846216653,1094.734583898171,"[4, 0, 250]",250,a,0.4204727250034921,colour,0.5
063,84,0,2,10,2,452,1095.235673275136,1096.1665640042484,"[52, 0, 202]",202,a,0.40758412740251515,colour,0.5
063,84,0,2,10,3,453,1096.6638610418158,1098.1425469050446,"[61, 0, 193]",193,a,0.9553505107760429,colour,0.5
063,84,0,2,10,4,454,1098.6638551341312,1100.1826104559732,"[56, 0, 198]",198,a,0.9954270586167695,colour,0.5
063,84,0,2,10,5,455,1100.6951024510636,1101.6145436944062,"[54, 0, 200]",200,a,0.39639812434324995,colour,0.5
063,84,0,2,10,6,456,1102.1326802847907,1102.9744953459303,"[50, 0, 204]",204,a,0.3186281884845812,colour,0.5
063,84,0,2,10,7,457,1103.4938453746436,1104.4865135447471,"[41, 0, 213]",213,a,0.46934423918719403,colour,0.5
063,84,0,2,10,8,458,1104.993863097683,1105.8384913980117,"[60, 0, 194]",194,a,0.32133312012592796,colour,0.5
063,84,0,2,10,9,459,1106.35325706382,1107.0705176627962,"[11, 0, 243]",243,a,0.19391736961551942,colour,0.5
063,84,0,2,10,10,460,1107.5825492523581,1108.9024798882747,"[10, 0, 244]",244,a,0.7965751973388251,colour,0.5
063,84,0,2,10,11,461,1109.4106868431118,1110.2704852886818,"[89, 0, 165]",165,l,0.3365048407576978,colour,0.5
063,84,0,2,10,12,462,1110.7854632372619,1111.9264938367123,"[86, 0, 168]",168,l,0.6174620903912,colour,0.5
063,84,0,2,10,13,463,1112.4419093477627,1113.358452675122,"[94, 0, 160]",160,l,0.4024468052521115,colour,0.5
063,84,0,2,10,14,464,1113.8701498897572,1114.8066340142395,"[13, 0, 241]",241,a,0.4131046613183571,colour,0.5
063,84,0,2,10,15,465,1115.3233310989162,1116.2704935594375,"[77, 0, 177]",177,l,0.4238432557467604,colour,0.5
063,84,0,2,10,16,466,1116.7920180097717,1118.3425003524899,"[85, 0, 169]",169,l,1.0271174518566113,colour,0.5
063,84,0,2,10,17,467,1118.8545236712962,1121.7344881936879,"[71, 0, 183]",183,l,2.3565307085373206,colour,0.5
063,84,0,2,10,18,468,1122.2451397482364,1123.2224908686912,"[51, 0, 203]",203,a,0.45422883848368656,colour,0.5
063,84,0,2,10,19,469,1123.729459179085,1124.446483076841,"[57, 0, 197]",197,a,0.19378188671544194,colour,0.5
063,84,0,2,10,20,470,1124.9654183861276,1125.7905186395365,"[74, 0, 180]",180,l,0.301683768760995,colour,0.5
063,84,0,2,10,21,471,1126.309191253793,1127.3024714599742,"[90, 0, 164]",164,l,0.46998778291163035,colour,0.5
063,84,0,2,10,22,472,1127.8092026753147,1128.6865473366925,"[44, 0, 210]",210,a,0.3539943428040715,colour,0.5
063,84,0,2,10,23,473,1129.1998431706743,1130.5744636019663,"[97, 0, 157]",157,l,0.8512921680667205,colour,0.5
063,84,0,2,10,24,474,1131.0904210445879,1132.054457032631,"[17, 0, 237]",237,a,0.43930169598024804,colour,0.5
063,84,0,2,10,25,475,1132.5605092581245,1133.5584683501656,"[59, 0, 195]",195,a,0.4753397509048227,colour,0.5
063,84,0,2,10,26,476,1134.0762095195678,1135.1264728841197,"[18, 0, 236]",236,a,0.5271304487541784,colour,0.5
063,84,0,2,10,27,477,1135.6293975816225,1137.2144804428099,"[66, 0, 188]",188,a,1.0617459333443549,colour,0.5
063,84,0,2,10,28,478,1137.7107393033511,1139.0704507090413,"[32, 0, 222]",222,a,0.8363858993834583,colour,0.5
063,84,0,2,10,29,479,1139.585764607924,1140.4144457056245,"[3, 0, 251]",251,a,0.3061570671998197,colour,0.5
063,84,0,2,10,30,480,1140.9295800109103,1141.8944572531764,"[78, 0, 176]",176,l,0.44165610504569486,colour,0.5
063,84,0,2,10,31,481,1142.4138829002477,1143.270428181073,"[34, 0, 220]",220,a,0.33337613122421317,colour,0.5
063,84,0,2,10,32,482,1143.7898309850862,1144.4704225884634,"[75, 0, 179]",179,l,0.15722434943018015,colour,0.5
063,84,0,2,10,33,483,1144.9772235144774,1145.6864039768989,"[98, 0, 156]",156,l,0.1857017501752125,colour,0.5
063,84,0,2,10,34,484,1146.1960441359115,1146.7504716301191,"[22, 0, 232]",232,a,0.03125952613481786,colour,0.5
063,84,0,2,10,35,485,1147.2584690590884,1148.1584519661992,"[35, 0, 219]",219,a,0.3766475546581205,colour,0.5
063,84,0,2,10,36,486,1148.6647393175226,1149.310388938291,"[26, 0, 228]",228,a,0.12231505601084791,colour,0.5
063,84,0,2,10,37,487,1149.8210349790024,1150.414435071798,"[7, 0, 247]",247,a,0.08289859342039563,colour,0.5
063,84,0,2,10,38,488,1150.9338748973096,1151.4944518968841,"[21, 0, 233]",233,a,0.03787022472533863,colour,0.5
063,84,0,2,10,39,489,1152.0117173007748,1156.398475659953,"[14, 0, 240]",240,a,3.863648286423995,colour,0.5
063,84,0,2,10,40,490,1156.9179308454331,1158.4144543702278,"[72, 0, 182]",182,l,0.9732224369072355,colour,0.5
063,84,0,2,10,41,491,1158.933536977769,1159.5504626504407,"[81, 0, 173]",173,l,0.09360016636492219,colour,0.5
063,84,0,2,10,42,492,1160.0616718903766,1160.7265734722896,"[49, 0, 205]",205,a,0.14178835839265957,colour,0.5
063,84,0,2,10,43,493,1161.2335461149924,1161.9984029560437,"[45, 0, 209]",209,a,0.2414533533155918,colour,0.5
063,84,0,2,10,44,494,1162.5147664534888,1163.5504728904198,"[27, 0, 227]",227,a,0.5123986536782468,colour,0.5
063,84,0,2,10,45,495,1164.0616399888822,1164.8864251657942,"[8, 0, 246]",246,a,0.30166801493032835,colour,0.5
063,84,0,2,10,46,496,1165.405332512033,1166.4063990459545,"[15, 0, 239]",239,a,0.4776181477791397,colour,0.5
063,84,0,2,10,47,497,1166.9209599120222,1167.5183949531056,"[82, 0, 172]",172,l,0.0740276148862904,colour,0.5
063,84,0,2,10,48,498,1168.0303048443748,1168.686421699953,"[20, 0, 234]",234,a,0.13276181084802374,colour,0.5
063,84,0,2,10,49,499,1169.2041270293848,1169.8944340162852,"[5, 0, 249]",249,a,0.1792206268000882,colour,0.5
063,84,0,2,10,50,500,1170.4106344616448,1171.4864182341116,"[47, 0, 207]",207,a,0.5518450485396897,colour,0.5
063,84,0,2,11,1,501,1247.6972256727458,1249.9343183674646,"[67, 0, 187]",187,l,1.7132055645633955,colour,0.5
063,84,0,2,11,2,502,1250.4501163026143,1251.7902713044896,"[92, 0, 162]",162,l,0.8293573306145845,colour,0.5
063,84,0,2,11,3,503,1252.2982368319645,1253.6863027585787,"[18, 0, 236]",236,a,0.8647636571986368,colour,0.5
063,84,0,2,11,4,504,1254.2045244196051,1255.6223111175495,"[72, 0, 182]",182,l,0.8944245639868313,colour,0.5
063,84,0,2,11,5,505,1256.1419399889564,1257.350286286368,"[10, 0, 244]",244,a,0.6832618766056839,colour,0.5
063,84,0,2,11,6,506,1257.862450995759,1259.334266616148,"[65, 0, 189]",189,a,0.9486417446460109,colour,0.5
063,84,0,2,11,7,507,1259.8473982165015,1261.0703770599066,"[45, 0, 209]",209,a,0.6996730293758446,colour,0.5
063,84,0,2,11,8,508,1261.5818021272426,1262.4702898624964,"[56, 0, 198]",198,a,0.36526896110444795,colour,0.5
063,84,0,2,11,9,509,1262.9879743181082,1264.494270727897,"[66, 0, 188]",188,a,0.98300556189497,colour,0.5
063,84,0,2,11,10,510,1265.0036174719426,1266.5583242026769,"[83, 0, 171]",171,l,1.031374135214719,colour,0.5
063,84,0,2,11,11,511,1267.066133373446,1268.1342509410897,"[82, 0, 172]",172,l,0.5448381412716117,colour,0.5
063,84,0,2,11,12,512,1268.6442215365823,1269.9503360684612,"[9, 0, 245]",245,a,0.7828827608318534,colour,0.5
063,84,0,2,11,13,513,1270.4569570070307,1271.4462841848144,"[14, 0, 240]",240,a,0.46622104349080473,colour,0.5
063,84,0,2,11,14,514,1271.9567262134951,1273.1342438518768,"[1, 0, 253]",253,a,0.6541728336305823,colour,0.5
063,84,0,2,11,15,515,1273.632529441922,1274.8942721457424,"[36, 0, 218]",218,a,0.7383596960426075,colour,0.5
063,84,0,2,11,16,516,1275.4137592327315,1276.4702855301875,"[51, 0, 203]",203,a,0.5336942797002848,colour,0.5
063,84,0,2,11,17,517,1276.9795700466202,1278.3742399764305,"[79, 0, 175]",175,l,0.8714822694601025,colour,0.5
063,84,0,2,11,18,518,1278.8858087974077,1279.9902259334776,"[86, 0, 168]",168,l,0.5811514942906797,colour,0.5
063,84,0,2,11,19,519,1280.510801609722,1281.5902670509531,"[69, 0, 185]",185,l,0.556205313288956,colour,0.5
063,84,0,2,11,20,520,1282.104459671391,1283.3662516058976,"[73, 0, 181]",181,l,0.738434920553118,colour,0.5
063,84,0,2,11,21,521,1283.8856930067996,1285.1022801297804,"[2, 0, 252]",252,a,0.6932387736305827,colour,0.5
063,84,0,2,11,22,522,1285.6200917975366,1286.7022282996913,"[52, 0, 202]",202,a,0.558716866755276,colour,0.5
063,84,0,2,11,23,523,1287.215884108562,1288.5422667232779,"[98, 0, 156]",156,l,0.8029866100405343,colour,0.5
063,84,0,2,11,24,524,1289.0597018746193,1290.2222746474436,"[89, 0, 165]",165,l,0.6392811372352298,colour,0.5
063,84,0,2,11,25,525,1290.73159027769,1293.4142665058753,"[70, 0, 184]",184,a,2.159500383218983,colour,0.5
063,84,0,2,11,26,526,1293.9346621946752,1295.4862012251688,"[78, 0, 176]",176,l,1.0282355795352487,colour,0.5
063,84,0,2,11,27,527,1295.99716943159,1297.3343004868657,"[35, 0, 219]",219,a,0.8138472965947585,colour,0.5
063,84,0,2,11,28,528,1297.8409159115981,1298.8622209899186,"[32, 0, 222]",222,a,0.4980134427314624,colour,0.5
063,84,0,2,11,29,529,1299.372157714679,1300.6142443717545,"[24, 0, 230]",230,a,0.718776116889785,colour,0.5
063,84,0,2,11,30,530,1301.1221445208648,1302.8382818721584,"[50, 0, 204]",204,a,1.1928425649530254,colour,0.5
063,84,0,2,11,31,531,1303.3565539454285,1304.6062071643682,"[46, 0, 208]",208,a,0.7264305063436041,colour,0.5
063,84,0,2,11,32,532,1305.1221319178003,1306.3022249126225,"[60, 0, 194]",194,a,0.6568017530807992,colour,0.5
063,84,0,2,11,33,533,1306.8096162131988,1307.7022873765382,"[12, 0, 242]",242,a,0.36933029704960063,colour,0.5
063,84,0,2,11,34,534,1308.215873868583,1309.118263172364,"[25, 0, 229]",229,a,0.3790634036267875,colour,0.5
063,84,0,2,11,35,535,1309.6377506531862,1311.0782713013323,"[75, 0, 179]",179,l,0.9172408279264346,colour,0.5
063,84,0,2,11,36,536,1311.590877511655,1313.0301764507167,"[43, 0, 211]",211,a,0.9160951310477685,colour,0.5
063,84,0,2,11,37,537,1313.534556801591,1314.2622204385407,"[22, 0, 232]",232,a,0.20340235346520785,colour,0.5
063,84,0,2,11,38,538,1314.7697905450332,1315.9102228929842,"[19, 0, 235]",235,a,0.6170721832313575,colour,0.5
063,84,0,2,11,39,539,1316.4261303172098,1317.5421934679907,"[40, 0, 214]",214,a,0.5930885609122925,colour,0.5
063,84,0,2,11,40,540,1318.0389387278556,1319.10219820989,"[3, 0, 251]",251,a,0.5399438218591968,colour,0.5
063,84,0,2,11,41,541,1319.6170005033346,1320.6941847907874,"[55, 0, 199]",199,a,0.5537772551033413,colour,0.5
063,84,0,2,11,42,542,1321.2107444233407,1322.1581723358104,"[59, 0, 195]",195,a,0.4241331261146115,colour,0.5
063,84,0,2,11,43,543,1322.6794711125985,1323.5821861267032,"[30, 0, 224]",224,a,0.3794371631083777,colour,0.5
063,84,0,2,11,44,544,1324.1013872817857,1324.9501911332773,"[27, 0, 227]",227,a,0.325448412928381,colour,0.5
063,84,0,2,11,45,545,1325.4607568294741,1326.6542212766362,"[44, 0, 210]",210,a,0.670071593252942,colour,0.5
063,84,0,2,11,46,546,1327.1638622233586,1328.2061978696147,"[6, 0, 248]",248,a,0.51902786300343,colour,0.5
063,84,0,2,11,47,547,1328.7263690664258,1329.8382090107189,"[47, 0, 207]",207,a,0.5885825732839294,colour,0.5
063,84,0,2,11,48,548,1330.3532066515763,1331.6941587969777,"[87, 0, 167]",167,l,0.817580952993012,colour,0.5
063,84,0,2,11,49,549,1332.212614402306,1332.982179273793,"[80, 0, 174]",174,l,0.24640123572316952,colour,0.5
063,84,0,2,11,50,550,1333.4938583715411,1334.6141352765117,"[20, 0, 234]",234,a,0.5969423402129905,colour,0.5
063,84,0,2,12,1,551,1339.8556614912668,1341.246151931453,"[24, 0, 230]",230,a,0.8686583964299643,colour,0.5
063,84,0,2,12,2,552,1341.760521388569,1343.4301979546726,"[36, 0, 218]",218,a,1.146394382813014,colour,0.5
063,84,0,2,12,3,553,1343.9479615732707,1345.6621367857297,"[31, 0, 223]",223,a,1.1908717615006026,colour,0.5
063,84,0,2,12,4,554,1346.182346579415,1347.4221682303614,"[76, 0, 178]",178,l,0.7164780277380487,colour,0.5
063,84,0,2,12,5,555,1347.9323605609243,1349.0541498330422,"[43, 0, 211]",211,a,0.5985212672676425,colour,0.5
063,84,0,2,12,6,556,1349.5698863282742,1350.694145406218,"[67, 0, 187]",187,l,0.6008796147798421,colour,0.5
063,84,0,2,12,7,557,1351.210543562076,1352.246222823669,"[21, 0, 233]",233,a,0.5118421498336829,colour,0.5
063,84,0,2,12,8,558,1352.7573694421444,1353.6462021861516,"[44, 0, 210]",210,a,0.36552456690697,colour,0.5
063,84,0,2,12,9,559,1354.1636093744746,1355.3102132831555,"[86, 0, 168]",168,l,0.6232461070321733,colour,0.5
063,84,0,2,12,10,560,1355.8198361129616,1356.9341517707653,"[42, 0, 212]",212,a,0.5909385577251669,colour,0.5
063,84,0,2,12,11,561,1357.4448604329227,1358.5741670362186,"[53, 0, 201]",201,a,0.6060756199294701,colour,0.5
063,84,0,2,12,12,562,1359.082451184804,1361.6381767941493,"[48, 0, 206]",206,a,2.0322803739691153,colour,0.5
063,84,0,2,12,13,563,1362.1346266698092,1362.9984541559825,"[45, 0, 209]",209,a,0.3407055980496807,colour,0.5
063,84,0,2,12,14,564,1363.5113734735496,1364.9101598776906,"[91, 0, 163]",163,l,0.8756085899367463,colour,0.5
063,84,0,2,12,15,565,1365.4175984397443,1366.318181567549,"[72, 0, 182]",182,l,0.3776404394302517,colour,0.5
063,84,0,2,12,16,566,1366.8394697105105,1367.854121554934,"[89, 0, 165]",165,l,0.49138265803048853,colour,0.5
063,84,0,2,12,17,567,1368.3707217535848,1369.470127598106,"[80, 0, 174]",174,l,0.5761268119968008,colour,0.5
063,84,0,2,12,18,568,1369.9807886049384,1371.0781570861145,"[61, 0, 193]",193,a,0.5747818292293232,colour,0.5
063,84,0,2,12,19,569,1371.5893954706116,1373.1421227333194,"[65, 0, 189]",189,a,1.0293485872389283,colour,0.5
063,84,0,2,12,20,570,1373.651860566053,1374.3501295358146,"[3, 0, 251]",251,a,0.17493991884111892,colour,0.5
063,84,0,2,12,21,571,1374.8707059997687,1375.4541614908812,"[14, 0, 240]",240,a,0.06018000320182182,colour,0.5
063,84,0,2,12,22,572,1375.9644247136603,1376.838242487589,"[68, 0, 186]",186,l,0.3506076643971028,colour,0.5
063,84,0,2,12,23,573,1377.3575487994385,1378.382093257911,"[83, 0, 171]",171,l,0.5012929951335536,colour,0.5
063,84,0,2,12,24,574,1378.888816202496,1380.6781021052593,"[99, 0, 155]",155,a,1.2660371963575017,colour,0.5
063,84,0,2,12,25,575,1381.1856292825832,1382.070149023304,"[35, 0, 219]",219,a,0.36120801902143285,colour,0.5
063,84,0,2,12,26,576,1382.567894257183,1383.294123114567,"[56, 0, 198]",198,a,0.2032081875804579,colour,0.5
063,84,0,2,12,27,577,1383.8022828079265,1384.4541571585723,"[78, 0, 176]",176,l,0.1291490650473861,colour,0.5
063,84,0,2,12,28,578,1384.974250767802,1386.2060828666872,"[69, 0, 185]",185,a,0.7084463342034724,colour,0.5
063,84,0,2,12,29,579,1386.724253721637,1387.5581300367921,"[27, 0, 227]",227,a,0.31055120268138126,colour,0.5
063,84,0,2,12,30,580,1388.0680328908347,1388.7180935824435,"[16, 0, 238]",238,a,0.12672297608514782,colour,0.5
063,84,0,2,12,31,581,1389.2242639616306,1389.958221251436,"[88, 0, 166]",166,l,0.210660140379332,colour,0.5
063,84,0,2,12,32,582,1390.4761837620608,1391.294134142241,"[4, 0, 250]",250,a,0.2949639749422204,colour,0.5
063,84,0,2,12,33,583,1391.8042614882725,1392.6221212839737,"[13, 0, 241]",241,a,0.30682621090090834,colour,0.5
063,84,0,2,12,34,584,1393.135672329896,1393.9420842152176,"[63, 0, 191]",191,l,0.2815507749764947,colour,0.5
063,84,0,2,12,35,585,1394.4497429369658,1396.0781035231048,"[92, 0, 162]",162,l,1.107580110168783,colour,0.5
063,84,0,2,12,36,586,1396.5877822789917,1397.5340747345617,"[47, 0, 207]",207,a,0.4229956999915885,colour,0.5
063,84,0,2,12,37,587,1398.0318235130544,1399.358122238642,"[7, 0, 247]",247,a,0.8030169361445587,colour,0.5
063,84,0,2,12,38,588,1399.8754683808947,1400.7420835062949,"[70, 0, 184]",184,l,0.34330458522890694,colour,0.5
063,84,0,2,12,39,589,1401.2412643074204,1402.1101022974617,"[97, 0, 157]",157,l,0.3454845206870232,colour,0.5
063,84,0,2,12,40,590,1402.6037168785697,1404.36608382767,"[74, 0, 180]",180,a,1.2390264766581822,colour,0.5
063,84,0,2,12,41,591,1404.8850699430477,1405.918083263692,"[50, 0, 204]",204,a,0.5090797167213168,colour,0.5
063,84,0,2,12,42,592,1406.432539760688,1407.4221217565791,"[6, 0, 248]",248,a,0.4641344494302757,colour,0.5
063,84,0,2,12,43,593,1407.9347701083752,1408.8061314672377,"[9, 0, 245]",245,a,0.3480090710509103,colour,0.5
063,84,0,2,12,44,594,1409.3254472313856,1410.2700433939026,"[46, 0, 208]",208,a,0.4337173590611201,colour,0.5
063,84,0,2,12,45,595,1410.7817299747257,1411.6061000383634,"[29, 0, 225]",225,a,0.300983117413125,colour,0.5
063,84,0,2,12,46,596,1412.125702915946,1412.7181246962427,"[90, 0, 164]",164,l,0.0693337628908921,colour,0.5
063,84,0,2,12,47,597,1413.232559925571,1413.8780756388296,"[19, 0, 235]",235,a,0.12293772591510788,colour,0.5
063,84,0,2,12,48,598,1414.3887689410185,1414.9981142672186,"[82, 0, 172]",172,l,0.08597767840547021,colour,0.5
063,84,0,2,12,49,599,1415.5137771133159,1416.0940822333941,"[20, 0, 234]",234,a,0.05690123849490192,colour,0.5
063,84,0,2,12,50,600,1416.607595863985,1417.5500778632704,"[1, 0, 253]",253,a,0.4264426367735723,colour,0.5
063,84,0,2,13,1,601,1422.5059840902104,1424.2380316226481,"[67, 0, 187]",187,l,1.207898888795171,colour,0.5
063,84,0,2,13,2,602,1424.7567416522506,1425.4460699328047,"[22, 0, 232]",232,a,0.16606342646991834,colour,0.5
063,84,0,2,13,3,603,1425.9598438953544,1427.9581200331158,"[72, 0, 182]",182,l,1.4749742621934274,colour,0.5
063,84,0,2,13,4,604,1428.4774133480532,1429.6060338723037,"[53, 0, 201]",201,a,0.6053556701663183,colour,0.5
063,84,0,2,13,5,605,1430.1180284403817,1430.7500368245674,"[89, 0, 165]",165,l,0.10869745016680099,colour,0.5
063,84,0,2,13,6,606,1431.2586305357981,1432.3020283836668,"[74, 0, 180]",180,l,0.5200207477901131,colour,0.5
063,84,0,2,13,7,607,1432.8211448619259,1433.4060544310341,"[75, 0, 179]",179,l,0.0616596811596537,colour,0.5
063,84,0,2,13,8,608,1433.9148430958448,1434.8460835598526,"[58, 0, 196]",196,a,0.4078700592945097,colour,0.5
063,84,0,2,13,9,609,1435.3523224681849,1436.2700461508211,"[78, 0, 176]",176,l,0.39435918562230654,colour,0.5
063,84,0,2,13,10,610,1436.7898242897209,1437.6860680265818,"[52, 0, 202]",202,a,0.37294028590258677,colour,0.5
063,84,0,2,13,11,611,1438.19608706508,1439.4300419918145,"[45, 0, 209]",209,a,0.7107259125914425,colour,0.5
063,84,0,2,13,12,612,1439.946084111245,1441.3660192370007,"[41, 0, 213]",213,a,0.8972212616790785,colour,0.5
063,84,0,2,13,13,613,1441.8836119265907,1443.0939861350635,"[14, 0, 240]",240,a,0.6870104991394328,colour,0.5
063,84,0,2,13,14,614,1443.6023781973345,1444.2621172509826,"[35, 0, 219]",219,a,0.1365517871454358,colour,0.5
063,84,0,2,13,15,615,1444.77419807126,1445.557986283151,"[55, 0, 199]",199,a,0.26051193628518376,colour,0.5
063,84,0,2,13,16,616,1446.071095828156,1446.9980547965242,"[30, 0, 224]",224,a,0.40363188668561634,colour,0.5
063,84,0,2,13,17,617,1447.5085559020517,1448.1739883878618,"[86, 0, 168]",168,l,0.14212588408554439,colour,0.5
063,84,0,2,13,18,618,1448.6807247231773,1449.286044553388,"[90, 0, 164]",164,l,0.08208530223055277,colour,0.5
063,84,0,2,13,19,619,1449.805732107794,1450.8460575660429,"[94, 0, 160]",160,l,0.5262624130264157,colour,0.5
063,84,0,2,13,20,620,1451.3589469513536,1452.3980073775165,"[84, 0, 170]",170,l,0.5157250737102004,colour,0.5
063,84,0,2,13,21,621,1452.905790554476,1453.5900299558998,"[23, 0, 231]",231,a,0.160933981242124,colour,0.5
063,84,0,2,13,22,622,1454.1089400590572,1454.7500289476448,"[83, 0, 171]",171,l,0.11772911771549843,colour,0.5
063,84,0,2,13,23,623,1455.2651782190806,1456.3740371459426,"[92, 0, 162]",162,l,0.5859083615796408,colour,0.5
063,84,0,2,13,24,624,1456.8901982067473,1457.9100188809534,"[27, 0, 227]",227,a,0.49652352479461115,colour,0.5
063,84,0,2,13,25,625,1458.4214073206385,1459.8780031712377,"[50, 0, 204]",204,a,0.9322861241089413,colour,0.5
063,84,0,2,13,26,626,1460.391869687519,1461.4699613952544,"[0, 0, 254]",254,a,0.554699641521438,colour,0.5
063,84,0,2,13,27,627,1461.9856896197307,1463.0140035745426,"[8, 0, 246]",246,a,0.5049813592922874,colour,0.5
063,84,0,2,13,28,628,1463.5325462197507,1464.5100178569555,"[32, 0, 222]",222,a,0.4541256509255618,colour,0.5
063,84,0,2,13,29,629,1465.0168928259372,1466.9019867935713,"[57, 0, 197]",197,a,1.3617609782522777,colour,0.5
063,84,0,2,13,30,630,1467.4094395340653,1468.8379951525421,"[19, 0, 235]",235,a,0.9051513430458726,colour,0.5
063,84,0,2,13,31,631,1469.3481205293647,1470.286015408812,"[64, 0, 190]",190,a,0.4127494125714293,colour,0.5
063,84,0,2,13,32,632,1470.8030370222696,1471.7660171102325,"[21, 0, 233]",233,a,0.4396518247376662,colour,0.5
063,84,0,2,13,33,633,1472.2901669354032,1472.8619815317943,"[98, 0, 156]",156,l,0.050875400644144975,colour,0.5
063,84,0,2,13,34,634,1473.3814934310503,1474.4699826629221,"[42, 0, 212]",212,a,0.5651003164239228,colour,0.5
063,84,0,2,13,35,635,1474.990876172582,1480.7180077240919,"[33, 0, 221]",221,a,5.204650056359242,colour,0.5
063,84,0,2,13,36,636,1481.2179935456516,1482.5179916552006,"[48, 0, 206]",206,a,0.7768002092198003,colour,0.5
063,84,0,2,13,37,637,1483.0303973980917,1483.9419999322563,"[97, 0, 157]",157,l,0.3883105047279969,colour,0.5
063,84,0,2,13,38,638,1484.4522407058394,1485.2539737052866,"[26, 0, 228]",228,a,0.2782897333090659,colour,0.5
063,84,0,2,13,39,639,1485.7646981212747,1487.0059903917427,"[29, 0, 225]",225,a,0.7178946904168697,colour,0.5
063,84,0,2,13,40,640,1487.5146719305485,1488.5340014792891,"[88, 0, 166]",166,l,0.4958634395588888,colour,0.5
063,84,0,2,13,41,641,1489.0459708412382,1491.134024479863,"[34, 0, 220]",220,a,1.5648498305963585,colour,0.5
063,84,0,2,13,42,642,1491.655311835144,1493.9979563351226,"[99, 0, 155]",155,l,1.8192437691614032,colour,0.5
063,84,0,2,13,43,643,1494.5147022566525,1495.5739724764862,"[54, 0, 200]",200,a,0.5359439258318162,colour,0.5
063,84,0,2,13,44,644,1496.0928266535775,1496.8459717077058,"[10, 0, 244]",244,a,0.2298136401368538,colour,0.5
063,84,0,2,13,45,645,1497.358410533634,1498.5579772247002,"[18, 0, 236]",236,a,0.676182501760195,colour,0.5
063,84,0,2,13,46,646,1499.0771740474593,1500.1259289833397,"[44, 0, 210]",210,a,0.5254479403083678,colour,0.5
063,84,0,2,13,47,647,1500.639658047483,1501.6139478060068,"[3, 0, 251]",251,a,0.45095519376627635,colour,0.5
063,84,0,2,13,48,648,1502.1240357674833,1503.365952677079,"[28, 0, 226]",226,a,0.7186134586372646,colour,0.5
063,84,0,2,13,49,649,1503.8740430536272,1505.110073940581,"[39, 0, 215]",215,a,0.71273137445678,colour,0.5
063,84,0,2,13,50,650,1505.6240452197817,1506.789932597254,"[76, 0, 178]",178,l,0.6425906218937598,colour,0.5
063,84,0,2,14,1,651,1511.6544701870735,1512.8219616977294,"[95, 0, 159]",159,l,0.6433397162618348,colour,0.5
063,84,0,2,14,2,652,1513.3427346906246,1514.1019087333698,"[14, 0, 240]",240,a,0.23465636576293036,colour,0.5
063,84,0,2,14,3,653,1514.6096517380793,1515.5739468765241,"[29, 0, 225]",225,a,0.44104485664865933,colour,0.5
063,84,0,2,14,4,654,1516.0939376920433,1517.1179421881825,"[75, 0, 179]",179,l,0.500861734195496,colour,0.5
063,84,0,2,14,5,655,1517.6252129720087,1518.5659191214363,"[71, 0, 183]",183,l,0.4173952154087601,colour,0.5
063,84,0,2,14,6,656,1519.0783465258428,1520.190041534952,"[59, 0, 195]",195,l,0.5885888748016441,colour,0.5
063,84,0,2,14,7,657,1520.703353516612,1522.0379352092423,"[33, 0, 221]",221,a,0.8232515420968411,colour,0.5
063,84,0,2,14,8,658,1522.550646576332,1523.5339924208383,"[54, 0, 200]",200,a,0.4600234889512649,colour,0.5
063,84,0,2,14,9,659,1524.050676508603,1525.1419143889943,"[85, 0, 169]",169,l,0.5685291363042779,colour,0.5
063,84,0,2,14,10,660,1525.660021834803,1526.9658878500923,"[93, 0, 161]",161,l,0.7825712289486546,colour,0.5
063,84,0,2,14,11,661,1527.472512727123,1528.6779815885093,"[86, 0, 168]",168,l,0.6821815581060946,colour,0.5
063,84,0,2,14,12,662,1529.1913786408113,1530.2458947502746,"[49, 0, 205]",205,a,0.5314052490139147,colour,0.5
063,84,0,2,14,13,663,1530.7537787517067,1533.269920120234,"[55, 0, 199]",199,a,1.992816649901215,colour,0.5
063,84,0,2,14,14,664,1533.7849307580036,1534.5339979346754,"[76, 0, 178]",178,l,0.2256266674521612,colour,0.5
063,84,0,2,14,15,665,1535.0506635117054,1535.901870215268,"[21, 0, 233]",233,a,0.3279591786849778,colour,0.5
063,84,0,2,14,16,666,1536.397601322693,1537.2618825190002,"[28, 0, 226]",226,a,0.3408808593376307,colour,0.5
063,84,0,2,14,17,667,1537.7726203257334,1538.9339599679515,"[74, 0, 180]",180,l,0.6379952313145623,colour,0.5
063,84,0,2,14,18,668,1539.4444929749734,1540.46192891401,"[4, 0, 250]",250,a,0.502865620655939,colour,0.5
063,84,0,2,14,19,669,1540.9826231377956,1541.989947090784,"[15, 0, 239]",239,a,0.48386729609046597,colour,0.5
063,84,0,2,14,20,670,1542.4983060700324,1543.4779265288817,"[47, 0, 207]",207,a,0.45625950644898694,colour,0.5
063,84,0,2,14,21,671,1543.9983100084792,1544.8218782024487,"[10, 0, 244]",244,a,0.3002533214894356,colour,0.5
063,84,0,2,14,22,672,1545.3433569666959,1546.373911903036,"[79, 0, 175]",175,l,0.5071735039527994,colour,0.5
063,84,0,2,14,23,673,1546.8923627822223,1550.221894192582,"[87, 0, 167]",167,l,2.806275220878888,colour,0.5
063,84,0,2,14,24,674,1550.7361427391006,1552.0778857264813,"[64, 0, 190]",190,a,0.8185832900780952,colour,0.5
063,84,0,2,14,25,675,1552.595446514577,1553.3018877807772,"[89, 0, 165]",165,l,0.18331701499118935,colour,0.5
063,84,0,2,14,26,676,1553.814158828478,1554.949884327536,"[43, 0, 211]",211,a,0.6123464297415921,colour,0.5
063,84,0,2,14,27,677,1555.470405259257,1558.8058565630054,"[38, 0, 216]",216,a,2.8091884968744125,colour,0.5
063,84,0,2,14,28,678,1559.3171343320719,1560.005859634999,"[39, 0, 215]",215,a,0.16538995047449134,colour,0.5
063,84,0,2,14,29,679,1560.5202539043821,1561.7179017796298,"[82, 0, 172]",172,l,0.6742987382021965,colour,0.5
063,84,0,2,14,30,680,1562.2389760644292,1563.3258938523068,"[97, 0, 157]",157,l,0.5635556539345998,colour,0.5
063,84,0,2,14,31,681,1563.8328026920062,1565.2859153720347,"[77, 0, 177]",177,l,0.9297525152942399,colour,0.5
063,84,0,2,14,32,682,1565.801483301344,1567.413874629492,"[46, 0, 208]",208,a,1.0983558521111263,colour,0.5
063,84,0,2,14,33,683,1567.9327784311172,1568.7818296176556,"[31, 0, 223]",223,a,0.325616584988893,colour,0.5
063,84,0,2,14,34,684,1569.282670871893,1570.4458978222683,"[20, 0, 234]",234,a,0.6399420101661235,colour,0.5
063,84,0,2,14,35,685,1570.9545387949765,1572.1259104725905,"[36, 0, 218]",218,a,0.6576048042916227,colour,0.5
063,84,0,2,14,36,686,1572.6335416251532,1573.861880313474,"[90, 0, 164]",164,l,0.7049982158787316,colour,0.5
063,84,0,2,14,37,687,1574.3836032619874,1575.229811670899,"[52, 0, 202]",202,a,0.3228829026047606,colour,0.5
063,84,0,2,14,38,688,1575.7338044777134,1576.7338990006538,"[40, 0, 214]",214,a,0.47675365666509606,colour,0.5
063,84,0,2,14,39,689,1577.2494425115437,1578.4618588095036,"[42, 0, 212]",212,a,0.6890569209353998,colour,0.5
063,84,0,2,14,40,690,1578.9680740870826,1579.8618362027628,"[16, 0, 238]",238,a,0.37027552651125006,colour,0.5
063,84,0,2,14,41,691,1580.3744561976782,1581.4938260761992,"[78, 0, 176]",176,l,0.6050977012782823,colour,0.5
063,84,0,2,14,42,692,1582.0060888531443,1582.9418471201643,"[26, 0, 228]",228,a,0.4124890806415351,colour,0.5
063,84,0,2,14,43,693,1583.4591652993695,1584.589865328424,"[69, 0, 185]",185,l,0.6073536489275284,colour,0.5
063,84,0,2,14,44,694,1585.104029591981,1586.1658223929553,"[60, 0, 194]",194,l,0.5384826546360273,colour,0.5
063,84,0,2,14,45,695,1586.682076007477,1587.501817991346,"[13, 0, 241]",241,a,0.2962987177306786,colour,0.5
063,84,0,2,14,46,696,1588.0102104474645,1588.893801500235,"[80, 0, 174]",174,l,0.36024546033877414,colour,0.5
063,84,0,2,14,47,697,1589.400872998187,1590.2538709115906,"[9, 0, 245]",245,a,0.3299977235728875,colour,0.5
063,84,0,2,14,48,698,1590.7602445151133,1591.5738113936386,"[11, 0, 243]",243,a,0.2901614215661539,colour,0.5
063,84,0,2,14,49,699,1592.089001625005,1593.589810583886,"[51, 0, 203]",203,l,0.9775322894274723,colour,0.5
063,84,0,2,14,50,700,1594.1045545881789,1600.8377895651356,"[25, 0, 229]",229,a,6.210165470285574,colour,0.5
063,84,0,2,15,1,701,1611.4655054260074,1614.0458656844712,"[67, 0, 187]",187,l,2.056160021049436,colour,0.5
063,84,0,2,15,2,702,1614.560158735534,1615.3817888152553,"[84, 0, 170]",170,l,0.29863343450415414,colour,0.5
063,84,0,2,15,3,703,1615.8891521527985,1616.8297913484712,"[5, 0, 249]",249,a,0.41724358484498225,colour,0.5
063,84,0,2,15,4,704,1617.3422345067083,1618.0619176500331,"[15, 0, 239]",239,a,0.19483109143038746,colour,0.5
063,84,0,2,15,5,705,1618.5782208891032,1619.4458367761981,"[90, 0, 164]",164,l,0.34446012825355865,colour,0.5
063,84,0,2,15,6,706,1619.9545096504007,1621.0938159937505,"[27, 0, 227]",227,a,0.6160375508188736,colour,0.5
063,84,0,2,15,7,707,1621.6107864072837,1622.6378187884839,"[87, 0, 167]",167,l,0.5037824932514923,colour,0.5
063,84,0,2,15,8,708,1623.157602441206,1624.0617900440557,"[54, 0, 200]",200,a,0.38090463186381385,colour,0.5
063,84,0,2,15,9,709,1624.57948237659,1625.5818100041506,"[10, 0, 244]",244,a,0.47909821958455723,colour,0.5
063,84,0,2,15,10,710,1626.0951259242574,1627.0858106878732,"[23, 0, 231]",231,a,0.4675758723897161,colour,0.5
063,84,0,2,15,11,711,1627.595134195013,1628.5338498487254,"[66, 0, 188]",188,l,0.4154858518886613,colour,0.5
063,84,0,2,15,12,712,1629.0482551457826,1630.1498137504095,"[96, 0, 158]",158,l,0.5783004459080985,colour,0.5
063,84,0,2,15,13,713,1630.6576398565376,1631.605757392681,"[88, 0, 166]",166,l,0.42472310684388503,colour,0.5
063,84,0,2,15,14,714,1632.1263527612173,1633.1338547324121,"[0, 0, 254]",254,a,0.48417607104056515,colour,0.5
063,84,0,2,15,15,715,1633.6426760863978,1634.9417581110465,"[18, 0, 236]",236,a,0.7764626835123636,colour,0.5
063,84,0,2,15,16,716,1635.4543686536636,1636.7098476368847,"[81, 0, 173]",173,l,0.7328293159807799,colour,0.5
063,84,0,2,15,17,717,1637.220047056675,1638.0457510753913,"[56, 0, 198]",198,a,0.30236787858302705,colour,0.5
063,84,0,2,15,18,718,1638.5637710874726,1640.4297655121918,"[71, 0, 183]",183,l,1.342674826097209,colour,0.5
063,84,0,2,15,19,719,1640.9387810320768,1642.0377981509664,"[52, 0, 202]",202,a,0.5756022096320521,colour,0.5
063,84,0,2,15,20,720,1642.550180656981,1643.2138030283531,"[6, 0, 248]",248,a,0.140303560445318,colour,0.5
063,84,0,2,15,21,721,1643.7220576385153,1644.549787599055,"[68, 0, 186]",186,l,0.30447219566849526,colour,0.5
063,84,0,2,15,22,722,1645.0665555759479,1646.165792854532,"[98, 0, 156]",156,l,0.5759062584402272,colour,0.5
063,84,0,2,15,23,723,1646.6669204345235,1647.501743554516,"[41, 0, 213]",213,a,0.31152912133256905,colour,0.5
063,84,0,2,15,24,724,1648.0106393453316,1649.3977427132631,"[40, 0, 214]",214,a,0.8637920400651637,colour,0.5
063,84,0,2,15,25,725,1649.9168544653803,1650.5897637162561,"[20, 0, 234]",234,a,0.14950024930294603,colour,0.5
063,84,0,2,15,26,726,1651.1043537269143,1651.821726965747,"[28, 0, 226]",226,a,0.19393391114135738,colour,0.5
063,84,0,2,15,27,727,1652.3405724782206,1653.1337645417661,"[7, 0, 247]",247,a,0.26981378192431293,colour,0.5
063,84,0,2,15,28,728,1653.6531157520076,1654.3017322117666,"[8, 0, 246]",246,a,0.1252188796934206,colour,0.5
063,84,0,2,15,29,729,1654.809324767455,1656.245699402847,"[62, 0, 192]",192,a,0.9130247106513707,colour,0.5
063,84,0,2,15,30,730,1656.7644054939883,1658.1257293036033,"[32, 0, 222]",222,a,0.8379601002816344,colour,0.5
063,84,0,2,15,31,731,1658.6325373188447,1660.8217635933834,"[30, 0, 224]",224,a,1.6658865897916257,colour,0.5
063,84,0,2,15,32,732,1661.3325222739368,1662.4057322653243,"[70, 0, 184]",184,l,0.5500034264550777,colour,0.5
063,84,0,2,15,33,733,1662.9262579231872,1663.8136960598931,"[93, 0, 161]",161,l,0.3640456766443094,colour,0.5
063,84,0,2,15,34,734,1664.3325522062078,1667.461742625048,"[64, 0, 190]",190,l,2.6045337143732468,colour,0.5
063,84,0,2,15,35,735,1667.9744933766924,1670.5177112371166,"[73, 0, 181]",181,l,2.0200002678029705,colour,0.5
063,84,0,2,15,36,736,1671.036964773666,1672.4297249460942,"[24, 0, 230]",230,a,0.8695378536795033,colour,0.5
063,84,0,2,15,37,737,1672.9432984412415,1673.941718332644,"[89, 0, 165]",165,l,0.47526728332741186,colour,0.5
063,84,0,2,15,38,738,1674.4587978414056,1675.3337967583357,"[11, 0, 243]",243,a,0.351658444487839,colour,0.5
063,84,0,2,15,39,739,1675.8494647244224,1676.5897259070916,"[13, 0, 241]",241,a,0.21554973364982288,colour,0.5
063,84,0,2,15,40,740,1677.1008835532411,1677.8937073711277,"[22, 0, 232]",232,a,0.2695692037814297,colour,0.5
063,84,0,2,15,41,741,1678.4132992210507,1679.1496609383175,"[77, 0, 177]",177,l,0.2130369986552978,colour,0.5
063,84,0,2,15,42,742,1679.6632793318422,1680.7577199647349,"[36, 0, 218]",218,a,0.5710509297496174,colour,0.5
063,84,0,2,15,43,743,1681.2705451532238,1683.9417486587627,"[19, 0, 235]",235,a,2.147844522361993,colour,0.5
063,84,0,2,15,44,744,1684.4580381132255,1685.4856904074113,"[60, 0, 194]",194,a,0.5043271817266941,colour,0.5
063,84,0,2,15,45,745,1686.0048939255648,1687.6056778358616,"[83, 0, 171]",171,l,1.0774024779093452,colour,0.5
063,84,0,2,15,46,746,1688.114317627027,1688.8537147124152,"[50, 0, 204]",204,a,0.2161149020976154,colour,0.5
063,84,0,2,15,47,747,1689.365910929453,1690.7977110480715,"[65, 0, 189]",189,a,0.9084371969802305,colour,0.5
063,84,0,2,15,48,748,1691.3190622063412,1692.269671997492,"[39, 0, 215]",215,a,0.4273374540061923,colour,0.5
063,84,0,2,15,49,749,1692.7889724016568,1693.7176544445829,"[35, 0, 219]",219,a,0.40235700843913946,colour,0.5
063,84,0,2,15,50,750,1694.2293603238359,1695.4137293004605,"[29, 0, 225]",225,a,0.6610867933341069,colour,0.5
063,84,0,2,16,1,751,1703.947326300302,1706.3896649397793,"[18, 0, 236]",236,a,1.9254170628119027,colour,0.5
063,84,0,2,16,2,752,1706.9096573306888,1708.0936631816585,"[72, 0, 182]",182,l,0.6607024000113597,colour,0.5
063,84,0,2,16,3,753,1708.6127898999111,1709.3496620410733,"[39, 0, 215]",215,a,0.21367581622325815,colour,0.5
063,84,0,2,16,4,754,1709.862734170747,1710.9016756555357,"[23, 0, 231]",231,a,0.5155844708206132,colour,0.5
063,84,0,2,16,5,755,1711.4096010107605,1712.3016833749134,"[81, 0, 173]",173,l,0.36888958381314296,colour,0.5
063,84,0,2,16,6,756,1712.8158535461407,1713.6377329301322,"[19, 0, 235]",235,a,0.2985688438056968,colour,0.5
063,84,0,2,16,7,757,1714.1595574908279,1715.38965312441,"[56, 0, 198]",198,a,0.7066952966124518,colour,0.5
063,84,0,2,16,8,758,1715.9095750169508,1716.6296295567008,"[16, 0, 238]",238,a,0.19671052269404754,colour,0.5
063,84,0,2,16,9,759,1717.1439856230572,1718.0057020967506,"[74, 0, 180]",180,l,0.3384768257237738,colour,0.5
063,84,0,2,16,10,760,1718.518923493917,1719.445643004161,"[8, 0, 246]",246,a,0.4033711608935846,colour,0.5
063,84,0,2,16,11,761,1719.956467850774,1720.861629039966,"[48, 0, 206]",206,l,0.381863252070616,colour,0.5
063,84,0,2,16,12,762,1721.3782729554805,1722.2136187086144,"[78, 0, 176]",176,l,0.312168332762667,colour,0.5
063,84,0,2,16,13,763,1722.7095750957233,1723.5176698833384,"[21, 0, 233]",233,a,0.2847058721672511,colour,0.5
063,84,0,2,16,14,764,1724.0377044157212,1724.9096340937976,"[90, 0, 164]",164,l,0.34858408564468846,colour,0.5
063,84,0,2,16,15,765,1725.4282929234614,1726.1896508401114,"[33, 0, 221]",221,a,0.2388626368920086,colour,0.5
063,84,0,2,16,16,766,1726.7095778526418,1727.5176407387626,"[14, 0, 240]",240,a,0.2847176875366131,colour,0.5
063,84,0,2,16,17,767,1728.0391970905766,1729.941670283486,"[25, 0, 229]",229,a,1.3791386281518498,colour,0.5
063,84,0,2,16,18,768,1730.4610711182759,1735.0776671421627,"[66, 0, 188]",188,a,4.093435538889025,colour,0.5
063,84,0,2,16,19,769,1735.5860316352482,1736.765591363117,"[71, 0, 183]",183,l,0.6563448921660893,colour,0.5
063,84,0,2,16,20,770,1737.2734666999604,1738.28564676932,"[0, 0, 254]",254,a,0.48883250770450104,colour,0.5
063,84,0,2,16,21,771,1738.8047534014477,1740.9015968864114,"[79, 0, 175]",175,l,1.5735467293852707,colour,0.5
063,84,0,2,16,22,772,1741.4140817922744,1742.077683289841,"[80, 0, 174]",174,l,0.14050363401474897,colour,0.5
063,84,0,2,16,23,773,1742.5888326652348,1743.3016286303755,"[84, 0, 170]",170,l,0.18954292642592918,colour,0.5
063,84,0,2,16,24,774,1743.8231487484009,1744.7496000497777,"[77, 0, 177]",177,l,0.4030682936136145,colour,0.5
063,84,0,2,16,25,775,1745.2606808960409,1745.8936124543397,"[94, 0, 160]",160,l,0.10969506109540816,colour,0.5
063,84,0,2,16,26,776,1746.401231791533,1747.1176432593638,"[3, 0, 251]",251,a,0.1930918692087289,colour,0.5
063,84,0,2,16,27,777,1747.6357467667258,1748.6455862116272,"[59, 0, 195]",195,l,0.48656277544796467,colour,0.5
063,84,0,2,16,28,778,1749.1669188591331,1750.0295990730374,"[1, 0, 253]",253,a,0.3393042953539407,colour,0.5
063,84,0,2,16,29,779,1750.541886662264,1751.429618213937,"[61, 0, 193]",193,l,0.36432767008955125,colour,0.5
063,84,0,2,16,30,780,1751.9481108407635,1752.885595333093,"[42, 0, 212]",212,a,0.4140920322679449,colour,0.5
063,84,0,2,16,31,781,1753.3887953286758,1754.0136337535077,"[31, 0, 223]",223,a,0.10148259240668267,colour,0.5
063,84,0,2,16,32,782,1754.5294013625535,1755.0615946966282,"[76, 0, 178]",178,l,0.008954867647844367,colour,0.5
063,84,0,2,16,33,783,1755.576286319454,1756.3176160052535,"[69, 0, 185]",185,l,0.21889308902609628,colour,0.5
063,84,0,2,16,34,784,1756.826311328652,1757.509581476028,"[93, 0, 161]",161,l,0.15999741638370324,colour,0.5
063,84,0,2,16,35,785,1758.0294127840752,1758.6935625147162,"[54, 0, 200]",200,a,0.15006581159832422,colour,0.5
063,84,0,2,16,36,786,1759.2076287107193,1759.8536067987152,"[36, 0, 218]",218,a,0.1225982309988467,colour,0.5
063,84,0,2,16,37,787,1760.3638834122394,1761.0295533869503,"[17, 0, 237]",237,a,0.1422676685033366,colour,0.5
063,84,0,2,16,38,788,1761.5346836198878,1762.1815868512203,"[86, 0, 168]",168,l,0.12209332092606928,colour,0.5
063,84,0,2,16,39,789,1762.6925172484625,1763.7896584807168,"[9, 0, 245]",245,a,0.5737519229587633,colour,0.5
063,84,0,2,16,40,790,1764.3018491839175,1765.1015400938777,"[53, 0, 201]",201,a,0.2762464622792322,colour,0.5
063,84,0,2,16,41,791,1765.6155791145284,1766.437584135274,"[47, 0, 207]",207,a,0.2987066897912882,colour,0.5
063,84,0,2,16,42,792,1766.943654477669,1767.5815827552287,"[73, 0, 181]",181,l,0.11489146007806994,colour,0.5
063,84,0,2,16,43,793,1768.0999521083722,1768.9495653125923,"[13, 0, 241]",241,a,0.3261856918979902,colour,0.5
063,84,0,2,16,44,794,1769.4593271699123,1770.6295594521798,"[52, 0, 202]",202,a,0.6468437606672524,colour,0.5
063,84,0,2,16,45,795,1771.1468327329785,1771.9175874120701,"[82, 0, 172]",172,l,0.24747092041070573,colour,0.5
063,84,0,2,16,46,796,1772.428058191479,1773.0695716456394,"[7, 0, 247]",247,a,0.1186136949545471,colour,0.5
063,84,0,2,16,47,797,1773.5842912314984,1776.8615577539167,"[50, 0, 204]",204,l,2.754225372642395,colour,0.5
063,84,0,2,16,48,798,1777.381131486938,1778.4135973621742,"[2, 0, 252]",252,a,0.5091419443197083,colour,0.5
063,84,0,2,16,49,799,1778.9280810345226,1779.6056262420898,"[12, 0, 242]",242,a,0.15433903648226988,colour,0.5
063,84,0,2,16,50,800,1780.1155480007146,1780.7335772287915,"[5, 0, 249]",249,a,0.09469742023793515,colour,0.5
