id,age,condition,counterbalance,block,trialinblock,trial,tstart,tend,trialstim,trialintensity,response,RT,trialtype,colourfreq
77,78,1,2,Practice,1,NA,5.907699232921004e-06,32.029229714935354,"[37, 0, 217]",217,a,31.516698305673344,colour,0.5
77,78,1,2,Practice,2,NA,32.52763857490572,44.92520657251225,"[43, 0, 211]",211,l,11.886407568155846,colour,0.5
77,78,1,2,Practice,3,NA,45.43795696045345,49.733189448066696,"[60, 0, 194]",194,a,3.7832024449999153,colour,0.5
77,78,1,2,Practice,4,NA,50.231353335489985,51.821161768530146,"[61, 0, 193]",193,a,1.0786267358780606,colour,0.5
77,78,1,2,Practice,5,NA,52.3265464384458,53.733199294227234,"[25, 0, 229]",229,a,0.8796846076875227,colour,0.5
77,78,1,2,Practice,6,NA,54.243733113831695,55.44524390916558,"[31, 0, 223]",223,a,0.6750569108262425,colour,0.5
77,78,1,2,Practice,7,NA,55.95667372964817,57.53317960190179,"[80, 0, 174]",174,l,1.0498460060007346,colour,0.5
77,78,1,2,Practice,8,NA,58.038363803927496,58.61319622222436,"[42, 0, 212]",212,a,0.05156317692308221,colour,0.5
77,78,1,2,Practice,9,NA,59.120312635386654,60.28518152387187,"[78, 0, 176]",176,l,0.6383059084837441,colour,0.5
77,78,1,2,Practice,10,NA,60.80242333777278,61.845258087640104,"[84, 0, 170]",170,l,0.5307097902368696,colour,0.5
77,78,1,2,1,1,1,4.674832024451462,6.9759308563006925,"[84, 0, 170]",170,l,1.78213472702555,colour,0.5
77,78,1,2,1,2,2,7.49673658755637,8.255963624331343,"[42, 0, 212]",212,a,0.24835962915312848,colour,0.5
77,78,1,2,1,3,3,8.77245240364573,9.352000740429503,"[35, 0, 219]",219,a,0.04999645537827746,colour,0.5
77,78,1,2,1,4,4,9.863692862712924,10.599919261458126,"[69, 0, 185]",185,l,0.21916417887041462,colour,0.5
77,78,1,2,1,5,5,11.11358140414086,11.935927075373911,"[98, 0, 156]",156,l,0.30152576150067034,colour,0.5
77,78,1,2,1,6,6,12.455184595874016,22.968050774696167,"[62, 0, 192]",192,a,9.99163391176262,colour,0.5
77,78,1,2,1,7,7,23.488535127173236,24.055936448919965,"[37, 0, 217]",217,a,0.04613321465149056,colour,0.5
77,78,1,2,1,8,8,24.577555079438753,25.127951682905405,"[89, 0, 165]",165,l,0.029659007665031822,colour,0.5
77,78,1,2,1,9,9,25.65052145282243,26.247953967216745,"[75, 0, 179]",179,l,0.07663662930281134,colour,0.5
77,78,1,2,1,10,10,26.755324017551175,33.095922506752686,"[1, 0, 253]",253,a,5.819476893022511,colour,0.5
77,78,1,2,1,11,11,33.60223744220275,34.503943979267206,"[81, 0, 173]",173,l,0.3794034012571501,colour,0.5
77,78,1,2,1,12,12,35.02137168873378,35.63192520066514,"[58, 0, 196]",196,a,0.09051459989132127,colour,0.5
77,78,1,2,1,13,13,36.140424409033585,36.695968980646285,"[70, 0, 184]",184,l,0.03385189794789767,colour,0.5
77,78,1,2,1,14,14,37.21483738076131,41.279937063321995,"[38, 0, 216]",216,a,3.5445519207896723,colour,0.5
77,78,1,2,1,15,15,41.79444873299508,42.52792056902763,"[23, 0, 231]",231,a,0.21017857002152596,colour,0.5
77,78,1,2,1,16,16,43.04004671020084,43.68793844966058,"[17, 0, 237]",237,a,0.13716532889884547,colour,0.5
77,78,1,2,1,17,17,44.1824931273768,44.83994037163211,"[94, 0, 160]",160,l,0.13946539270182257,colour,0.5
77,78,1,2,1,18,18,45.34687010153357,45.88792584657131,"[61, 0, 193]",193,a,0.020059392056282377,colour,0.5
77,78,1,2,1,19,19,46.4046497522686,46.99999803076571,"[24, 0, 230]",230,a,0.07492694146640133,colour,0.5
77,78,1,2,1,20,20,47.50875560246641,48.16794325458977,"[74, 0, 180]",180,a,0.13774507100970368,colour,0.5
77,78,1,2,1,21,21,48.6762679889398,55.727923719801765,"[22, 0, 232]",232,a,6.527149811347044,colour,0.5
77,78,1,2,1,22,22,56.242876497599354,56.93595740155797,"[96, 0, 158]",158,l,0.17249178830024903,colour,0.5
77,78,1,2,1,23,23,57.4564051263078,58.32001921971096,"[90, 0, 164]",164,l,0.34289737146900734,colour,0.5
77,78,1,2,1,24,24,58.82433814088654,61.69597055603299,"[18, 0, 236]",236,a,2.3600990130216815,colour,0.5
77,78,1,2,1,25,25,62.202629713359784,63.31198356872119,"[60, 0, 194]",194,a,0.5886012933915481,colour,0.5
77,78,1,2,1,26,26,63.820572967946646,64.56797358077529,"[63, 0, 191]",191,a,0.22571817917196313,colour,0.5
77,78,1,2,1,27,27,65.08219616708448,65.75990957283284,"[97, 0, 157]",157,l,0.15632281237776624,colour,0.5
77,78,1,2,1,28,28,66.26546399061044,70.44803234267602,"[30, 0, 224]",224,a,3.6608284168141836,colour,0.5
77,78,1,2,1,29,29,70.96616858207199,71.62399628208732,"[47, 0, 207]",207,a,0.14713791718168068,colour,0.5
77,78,1,2,1,30,30,72.13384677794238,72.7039774562254,"[11, 0, 243]",243,a,0.04679133222816745,colour,0.5
77,78,1,2,1,31,31,73.22531724338842,78.17600214252525,"[53, 0, 201]",201,a,4.430035131110344,colour,0.5
77,78,1,2,1,32,32,78.68661118681848,79.39196316747257,"[45, 0, 209]",209,a,0.18443124620898743,colour,0.5
77,78,1,2,1,33,33,79.9005356312955,80.67195930777598,"[13, 0, 241]",241,a,0.2509440501598874,colour,0.5
77,78,1,2,1,34,34,81.17948847211301,81.87995163564483,"[71, 0, 183]",183,l,0.18292163241494563,colour,0.5
77,78,1,2,1,35,35,82.39028262427746,87.20799075248215,"[16, 0, 238]",238,a,4.296771639896178,colour,0.5
77,78,1,2,1,36,36,87.72695840192682,88.44000811323713,"[28, 0, 226]",226,a,0.20476790623069974,colour,0.5
77,78,1,2,1,37,37,88.95939796617677,93.71201113798088,"[19, 0, 235]",235,a,4.232458075035538,colour,0.5
77,78,1,2,1,38,38,94.21845525509343,94.80003308310916,"[33, 0, 221]",221,a,0.06045426260243403,colour,0.5
77,78,1,2,1,39,39,95.30801595866069,96.00801950327877,"[8, 0, 246]",246,a,0.1789351177176286,colour,0.5
77,78,1,2,1,40,40,96.5228675178987,99.22399588824192,"[7, 0, 247]",247,a,2.1799717218200385,colour,0.5
77,78,1,2,1,41,41,99.74726276653382,101.11206470110847,"[55, 0, 199]",199,l,0.8435866029140016,colour,0.5
77,78,1,2,1,42,42,101.63056682394381,102.21599332036203,"[29, 0, 225]",225,a,0.06477987916878192,colour,0.5
77,78,1,2,1,43,43,102.7349176466887,103.45604475672008,"[85, 0, 169]",169,l,0.20050845588411903,colour,0.5
77,78,1,2,1,44,44,103.97996148180755,106.39206123525946,"[46, 0, 208]",208,a,1.890926563373796,colour,0.5
77,78,1,2,1,45,45,106.90555835624036,107.43998251321318,"[9, 0, 245]",245,a,0.01300796357827494,colour,0.5
77,78,1,2,1,46,46,107.94850023237086,110.36798145770445,"[82, 0, 172]",172,l,1.8961340023488447,colour,0.5
77,78,1,2,1,47,47,110.8760249856241,113.65599985821609,"[3, 0, 251]",251,a,2.2592908399165026,colour,0.5
77,78,1,2,1,48,48,114.16145502666404,114.80003347695674,"[77, 0, 177]",177,l,0.11791489764073049,colour,0.5
77,78,1,2,1,49,49,115.31371885658518,115.92800721526874,"[86, 0, 168]",168,l,0.10259584255618392,colour,0.5
77,78,1,2,1,50,50,116.4246516427338,118.36803738391245,"[93, 0, 161]",161,l,1.425241624852788,colour,0.5
77,78,1,2,2,1,51,123.43247934274768,126.3520149189062,"[16, 0, 238]",238,a,2.4076469244500913,colour,0.5
77,78,1,2,2,2,52,126.85785290619242,128.06402329996126,"[38, 0, 216]",216,a,0.6954148385630106,colour,0.5
77,78,1,2,2,3,53,128.57160484588894,129.6000634092925,"[0, 0, 254]",254,a,0.5040861578672775,colour,0.5
77,78,1,2,2,4,54,130.11073271210626,130.77603404409456,"[73, 0, 181]",181,l,0.15375729600782506,colour,0.5
77,78,1,2,2,5,55,131.27505415389896,131.83199569919452,"[32, 0, 222]",222,a,0.045670444967981894,colour,0.5
77,78,1,2,2,6,56,132.32971454002472,133.08001110647092,"[90, 0, 164]",164,l,0.22719077138754074,colour,0.5
77,78,1,2,2,7,57,133.58887777366544,134.5040471670618,"[8, 0, 246]",246,a,0.40431773963791784,colour,0.5
77,78,1,2,2,8,58,135.0184647074093,135.83203744692946,"[2, 0, 252]",252,a,0.30239931313190027,colour,0.5
77,78,1,2,2,9,59,136.3380735390274,137.21606381889433,"[25, 0, 229]",229,a,0.350742794576945,colour,0.5
77,78,1,2,2,10,60,137.73599245390142,138.51203910108597,"[41, 0, 213]",213,a,0.24923987617512466,colour,0.5
77,78,1,2,2,11,61,139.01164170992342,139.70404637936736,"[88, 0, 166]",166,l,0.1687435507628834,colour,0.5
77,78,1,2,2,12,62,140.21904444952088,141.0640398415162,"[46, 0, 208]",208,a,0.3177404236230359,colour,0.5
77,78,1,2,2,13,63,141.5588615471861,142.38403385504716,"[52, 0, 202]",202,a,0.3145333312313596,colour,0.5
77,78,1,2,2,14,64,142.87896150543747,143.74407694186084,"[60, 0, 194]",194,a,0.35342725260488805,colour,0.5
77,78,1,2,2,15,65,144.26151489133917,145.23202996384498,"[15, 0, 239]",239,a,0.45886706103920005,colour,0.5
77,78,1,2,2,16,66,145.74072964010338,146.52809071073352,"[99, 0, 155]",155,l,0.26318361913217814,colour,0.5
77,78,1,2,2,17,67,147.03002370956165,147.82407583908935,"[63, 0, 191]",191,a,0.26944853607346886,colour,0.5
77,78,1,2,2,18,68,148.32043118319416,148.984014162721,"[3, 0, 251]",251,a,0.15200310351065127,colour,0.5
77,78,1,2,2,19,69,149.48735516293527,150.1680582577792,"[96, 0, 158]",158,l,0.15755752128825407,colour,0.5
77,78,1,2,2,20,70,150.6683359195922,151.57608997030547,"[64, 0, 190]",190,a,0.38388222413050244,colour,0.5
77,78,1,2,2,21,71,152.08232022874654,152.90405346860643,"[11, 0, 243]",243,a,0.310130520745588,colour,0.5
77,78,1,2,2,22,72,153.41792513764813,154.2320547761774,"[57, 0, 197]",197,a,0.30246035934760584,colour,0.5
77,78,1,2,2,23,73,154.75348160342764,155.53606492166364,"[36, 0, 218]",218,a,0.2559486581631063,colour,0.5
77,78,1,2,2,24,74,156.05698368687445,156.93604207856333,"[68, 0, 186]",186,l,0.35249344245312386,colour,0.5
77,78,1,2,2,25,75,157.44301631312192,159.68804478822858,"[62, 0, 192]",192,a,1.7221570187393809,colour,0.5
77,78,1,2,2,26,76,160.20552999928987,163.21604767118333,"[81, 0, 173]",173,l,2.4990677652349405,colour,0.5
77,78,1,2,2,27,77,163.72538025883478,165.66404338613575,"[79, 0, 175]",175,l,1.427164383669151,colour,0.5
77,78,1,2,2,28,78,166.16177404236078,168.24005616251816,"[93, 0, 161]",161,l,1.5674170756137755,colour,0.5
77,78,1,2,2,29,79,168.75415862563386,170.12010074594582,"[13, 0, 241]",241,a,0.8544981213526626,colour,0.5
77,78,1,2,2,30,80,170.63969146061936,172.12808559073164,"[53, 0, 201]",201,a,0.9770978236047085,colour,0.5
77,78,1,2,2,31,81,172.6344485754562,173.8560297905533,"[87, 0, 167]",167,l,0.694889053429506,colour,0.5
77,78,1,2,2,32,82,174.36369404425204,175.76005765913214,"[34, 0, 220]",220,a,0.8695915023672569,colour,0.5
77,78,1,2,2,33,83,176.27879372681127,177.52806235378375,"[21, 0, 233]",233,a,0.7226197884265275,colour,0.5
77,78,1,2,2,34,84,178.02767677801967,179.25606996289935,"[24, 0, 230]",230,a,0.7016293431443046,colour,0.5
77,78,1,2,2,35,85,179.77242207746167,180.94405212952915,"[4, 0, 250]",250,a,0.6601734500181919,colour,0.5
77,78,1,2,2,36,86,181.43978952840916,182.56814726709854,"[48, 0, 206]",206,a,0.6168633273737214,colour,0.5
77,78,1,2,2,37,87,183.0876379447509,184.24815994895835,"[30, 0, 224]",224,a,0.6336703346933064,colour,0.5
77,78,1,2,2,38,88,184.75433743196118,186.120141312138,"[80, 0, 174]",174,l,0.8391597677873506,colour,0.5
77,78,1,2,2,39,89,186.63953274046435,190.85610225831624,"[5, 0, 249]",249,l,3.6899679408925294,colour,0.5
77,78,1,2,2,40,90,191.35316770773352,193.0560908367661,"[91, 0, 163]",163,l,1.1906106984461076,colour,0.5
77,78,1,2,2,41,91,193.55246863012144,194.9121249596319,"[66, 0, 188]",188,l,0.8356442935582891,colour,0.5
77,78,1,2,2,42,92,195.40798642017035,196.00007404314965,"[29, 0, 225]",225,a,0.06879514465981629,colour,0.5
77,78,1,2,2,43,93,196.52141264877355,198.09608870999364,"[72, 0, 182]",182,l,1.0480138318889658,colour,0.5
77,78,1,2,2,44,94,198.59631517175512,200.1680960670492,"[86, 0, 168]",168,l,1.060159665390529,colour,0.5
77,78,1,2,2,45,95,200.68518861310804,202.06410994620092,"[22, 0, 232]",232,a,0.852240592976159,colour,0.5
77,78,1,2,2,46,96,202.57034414310692,204.85615779067666,"[69, 0, 185]",185,l,1.759148267468845,colour,0.5
77,78,1,2,2,47,97,205.35365135128814,206.73608973399678,"[85, 0, 169]",169,l,0.8709707529560546,colour,0.5
77,78,1,2,2,48,98,207.24017352878582,208.6400805810008,"[67, 0, 187]",187,l,0.8881144990664325,colour,0.5
77,78,1,2,2,49,99,209.15734011799577,210.5361417217391,"[49, 0, 205]",205,a,0.8673733586438175,colour,0.5
77,78,1,2,2,50,100,211.04313722401275,212.2881046529037,"[26, 0, 228]",228,a,0.7247209597262554,colour,0.5
77,78,1,2,3,1,101,217.16519932573283,218.7761069057051,"[47, 0, 207]",207,a,1.0985782139832736,colour,0.5
77,78,1,2,3,2,102,219.2734728600335,220.54408009263352,"[92, 0, 162]",162,l,0.7467787291388959,colour,0.5
77,78,1,2,3,3,103,221.0620804549726,222.26411703543636,"[83, 0, 171]",171,l,0.6748729844875925,colour,0.5
77,78,1,2,3,4,104,222.7760159271529,224.00015675092436,"[13, 0, 241]",241,a,0.6977022992759885,colour,0.5
77,78,1,2,3,5,105,224.51955290540718,225.80820539884735,"[58, 0, 196]",196,a,0.7768201617909654,colour,0.5
77,78,1,2,3,6,106,226.3273345253765,227.48814009909256,"[21, 0, 233]",233,a,0.6489381897263229,colour,0.5
77,78,1,2,3,7,107,227.99561570029982,229.3041188471325,"[69, 0, 185]",185,l,0.7972686742359656,colour,0.5
77,78,1,2,3,8,108,229.8036269328004,231.12017833371283,"[51, 0, 203]",203,a,0.8050467495850171,colour,0.5
77,78,1,2,3,9,109,231.62782919663005,232.83211464085252,"[80, 0, 174]",174,l,0.6928233283215377,colour,0.5
77,78,1,2,3,10,110,233.34010106102141,234.5760982410793,"[89, 0, 165]",165,l,0.7115467929070292,colour,0.5
77,78,1,2,3,11,111,235.082341102614,236.58417721519072,"[67, 0, 187]",187,l,0.9753121233843558,colour,0.5
77,78,1,2,3,12,112,237.08080313186656,238.16021244082367,"[38, 0, 216]",216,a,0.5562286830536323,colour,0.5
77,78,1,2,3,13,113,238.6666226871348,239.95214764519187,"[45, 0, 209]",209,a,0.7588229502252943,colour,0.5
77,78,1,2,3,14,114,240.47365836175595,241.6641067954297,"[84, 0, 170]",170,l,0.6725225083318946,colour,0.5
77,78,1,2,3,15,115,242.16496774396728,243.33611297094103,"[28, 0, 226]",226,a,0.6595818925125059,colour,0.5
77,78,1,2,3,16,116,243.83236433955972,245.09620883319076,"[91, 0, 163]",163,l,0.7409119910516893,colour,0.5
77,78,1,2,3,17,117,245.59442588989623,246.75211219900302,"[20, 0, 234]",234,a,0.635353634810599,colour,0.5
77,78,1,2,3,18,118,247.27328263215531,248.4321496931916,"[25, 0, 229]",229,a,0.6323017179565795,colour,0.5
77,78,1,2,3,19,119,248.94326089182505,250.0801615558521,"[29, 0, 225]",225,a,0.6254539081419352,colour,0.5
77,78,1,2,3,20,120,250.5851886131095,251.83214929934547,"[16, 0, 238]",238,a,0.7356190873761079,colour,0.5
77,78,1,2,3,21,121,252.3404665506132,253.50414799177452,"[9, 0, 245]",245,a,0.64040944286171,colour,0.5
77,78,1,2,3,22,122,254.0111383740441,255.1201228013524,"[8, 0, 246]",246,a,0.5876765417124261,colour,0.5
77,78,1,2,3,23,123,255.63171567430254,257.03217805014356,"[60, 0, 194]",194,l,0.877266389921715,colour,0.5
77,78,1,2,3,24,124,257.52776421195085,258.792190810771,"[97, 0, 157]",157,l,0.7412054067244753,colour,0.5
77,78,1,2,3,25,125,259.3068088190121,260.4961698423831,"[0, 0, 254]",254,a,0.6682425779617915,colour,0.5
77,78,1,2,3,26,126,261.0057241656359,262.3201716383228,"[44, 0, 210]",210,a,0.7913050499009842,colour,0.5
77,78,1,2,3,27,127,262.8316199695946,264.41617094515095,"[7, 0, 247]",247,a,1.0639338967957883,colour,0.5
77,78,1,2,3,28,128,264.93670846691384,266.1601466684515,"[5, 0, 249]",249,a,0.7001024001001497,colour,0.5
77,78,1,2,3,29,129,266.6698825549611,267.8961824454709,"[82, 0, 172]",172,l,0.7056343686235778,colour,0.5
77,78,1,2,3,30,130,268.4139504383493,269.6321532378133,"[1, 0, 253]",253,a,0.6940422833649791,colour,0.5
77,78,1,2,3,31,131,270.1388324813124,271.3522004206279,"[72, 0, 182]",182,l,0.6927922144423064,colour,0.5
77,78,1,2,3,32,132,271.8662268713633,272.9841618551727,"[96, 0, 158]",158,l,0.6075114412415132,colour,0.5
77,78,1,2,3,33,133,273.5022008144733,274.8241778453448,"[11, 0, 243]",243,a,0.8014213921705959,colour,0.5
77,78,1,2,3,34,134,275.3386288626498,276.53620237410723,"[23, 0, 231]",231,a,0.6894208880439692,colour,0.5
77,78,1,2,3,35,135,277.0527076949729,278.24018849495405,"[31, 0, 223]",223,a,0.6658050617152185,colour,0.5
77,78,1,2,3,36,136,278.7491185714389,279.9682327317969,"[10, 0, 244]",244,a,0.6982611675157386,colour,0.5
77,78,1,2,3,37,137,280.4766949185905,281.888161760653,"[50, 0, 204]",204,a,0.8896890975411225,colour,0.5
77,78,1,2,3,38,138,282.4077516876314,283.736138964814,"[61, 0, 193]",193,a,0.8069880191869743,colour,0.5
77,78,1,2,3,39,139,284.26001276062743,286.7202035398914,"[52, 0, 202]",202,a,1.938860838261462,colour,0.5
77,78,1,2,3,40,140,287.23275109686074,288.1121958520089,"[26, 0, 228]",228,a,0.3583487589894503,colour,0.5
77,78,1,2,3,41,141,288.6188061723624,289.8801674635506,"[36, 0, 218]",218,a,0.7408489756053314,colour,0.5
77,78,1,2,3,42,142,290.39204863216946,291.56021165312995,"[74, 0, 180]",180,l,0.6467401321751822,colour,0.5
77,78,1,2,3,43,143,292.0728958748514,293.24815679818494,"[95, 0, 159]",159,l,0.6537907729616563,colour,0.5
77,78,1,2,3,44,144,293.7543228596405,294.85618023993084,"[37, 0, 217]",217,a,0.5909663418751734,colour,0.5
77,78,1,2,3,45,145,295.37453585184994,297.24816270588417,"[57, 0, 197]",197,a,1.353104692287161,colour,0.5
77,78,1,2,3,46,146,297.7549581341118,299.048291493702,"[79, 0, 175]",175,l,0.7726926500363334,colour,0.5
77,78,1,2,3,47,147,299.56140894661803,301.01620599749367,"[86, 0, 168]",168,l,0.9341023843444418,colour,0.5
77,78,1,2,3,48,148,301.52541846195163,302.6321953793922,"[39, 0, 215]",215,a,0.588447693240596,colour,0.5
77,78,1,2,3,49,149,303.1399604578073,304.69619544240777,"[99, 0, 155]",155,l,1.0354698195405945,colour,0.5
77,78,1,2,3,50,150,305.2087437870723,306.4802525344021,"[98, 0, 156]",156,l,0.7484399738495995,colour,0.5
77,78,1,2,4,1,151,311.5289776531463,312.8802088174343,"[46, 0, 208]",208,a,0.8291639425588073,colour,0.5
77,78,1,2,4,2,152,313.39963017809714,315.6242058084499,"[96, 0, 158]",158,l,1.7034686064944253,colour,0.5
77,78,1,2,4,3,153,316.1433179995729,317.4482107551594,"[47, 0, 207]",207,a,0.7817180373822339,colour,0.5
77,78,1,2,4,4,154,317.96461525131235,319.33625199877133,"[13, 0, 241]",241,a,0.8483139429554285,colour,0.5
77,78,1,2,4,5,155,319.84888659582793,321.5202480445514,"[67, 0, 187]",187,l,1.1616822761170624,colour,0.5
77,78,1,2,4,6,156,322.0258635085411,323.25625073846095,"[22, 0, 232]",232,a,0.707517348939291,colour,0.5
77,78,1,2,4,7,157,323.7723358250696,325.24821429977965,"[59, 0, 195]",195,a,0.9548553401655226,colour,0.5
77,78,1,2,4,8,158,325.76510204563965,327.23223200712164,"[55, 0, 199]",199,a,0.946435688798374,colour,0.5
77,78,1,2,4,9,159,327.74000417477146,329.00821406347313,"[28, 0, 226]",226,a,0.7573980134402518,colour,0.5
77,78,1,2,4,10,160,329.5147018975513,330.3122364182018,"[29, 0, 225]",225,a,0.2741565776304924,colour,0.5
77,78,1,2,4,11,161,330.8226142745734,331.52820886469635,"[4, 0, 250]",250,a,0.1839259410953673,colour,0.5
77,78,1,2,4,12,162,332.03699755027264,333.080247020549,"[63, 0, 191]",191,l,0.5220345324632945,colour,0.5
77,78,1,2,4,13,163,333.59483273337173,334.92820532008045,"[12, 0, 242]",242,a,0.8127503879404685,colour,0.5
77,78,1,2,4,14,164,335.4465979535744,336.61624774522716,"[8, 0, 246]",246,a,0.6489956913173955,colour,0.5
77,78,1,2,4,15,165,337.1261486534386,338.3841961198232,"[25, 0, 229]",229,a,0.7369916425777774,colour,0.5
77,78,1,2,4,16,166,338.90064551448086,340.23224421636405,"[20, 0, 234]",234,a,0.8106637889613921,colour,0.5
77,78,1,2,4,17,167,340.7530223783615,342.20022409868034,"[75, 0, 179]",179,l,0.9263152505227481,colour,0.5
77,78,1,2,4,18,168,342.71446086346987,344.56024473623984,"[24, 0, 230]",230,a,1.3252695879564271,colour,0.5
77,78,1,2,4,19,169,345.0798681401793,346.2322241301881,"[64, 0, 190]",190,l,0.6317802651356033,colour,0.5
77,78,1,2,4,20,170,346.74469134246465,347.92024292454516,"[89, 0, 165]",165,l,0.6540451978289639,colour,0.5
77,78,1,2,4,21,171,348.4256457114061,350.10424842264547,"[73, 0, 181]",181,l,1.1575031704669527,colour,0.5
77,78,1,2,4,22,172,350.6214347041823,351.97626877663424,"[79, 0, 175]",175,l,0.8340212519615307,colour,0.5
77,78,1,2,4,23,173,352.488866352116,356.2882515576639,"[41, 0, 213]",213,a,3.2782860586230527,colour,0.5
77,78,1,2,4,24,174,356.79282608524227,358.28830669618037,"[90, 0, 164]",164,l,0.9783805817933171,colour,0.5
77,78,1,2,4,25,175,358.79482840105993,360.2722188526459,"[99, 0, 155]",155,l,0.9568210282559448,colour,0.5
77,78,1,2,4,26,176,360.7870920734458,362.3922321646605,"[50, 0, 204]",204,a,1.084350507670024,colour,0.5
77,78,1,2,4,27,177,362.9031618000372,364.7683044118676,"[26, 0, 228]",228,a,1.3418233519478235,colour,0.5
77,78,1,2,4,28,178,365.27381078036706,367.03224657944156,"[82, 0, 172]",172,l,1.2530353752954397,colour,0.5
77,78,1,2,4,29,179,367.5420458752451,369.4563015446656,"[69, 0, 185]",185,a,1.3936362275817373,colour,0.5
77,78,1,2,4,30,180,369.9695741731193,372.49635731333547,"[5, 0, 249]",249,a,2.0062629477033624,colour,0.5
77,78,1,2,4,31,181,373.00950430474404,374.7522913991779,"[23, 0, 231]",231,a,1.2221700156733277,colour,0.5
77,78,1,2,4,32,182,375.26507683945965,376.7362764172576,"[72, 0, 182]",182,l,0.9499641599650204,colour,0.5
77,78,1,2,4,33,183,377.2423030570353,378.68031003599754,"[30, 0, 224]",224,a,0.916739659558516,colour,0.5
77,78,1,2,4,34,184,379.19213921687697,380.6322725733153,"[32, 0, 222]",222,a,0.9191188865188451,colour,0.5
77,78,1,2,4,35,185,381.1513670413442,382.51231794443447,"[39, 0, 215]",215,a,0.849735335123114,colour,0.5
77,78,1,2,4,36,186,383.01962301008825,384.4162713760197,"[87, 0, 167]",167,l,0.8754842343223572,colour,0.5
77,78,1,2,4,37,187,384.93477980039825,386.1682784179975,"[93, 0, 161]",161,l,0.7118181531768641,colour,0.5
77,78,1,2,4,38,188,386.6783758556303,388.0642344017069,"[34, 0, 220]",220,a,0.8615015005561872,colour,0.5
77,78,1,2,4,39,189,388.58115601836835,391.0802615928733,"[54, 0, 200]",200,a,1.9776728395554528,colour,0.5
77,78,1,2,4,40,190,391.5855489826936,393.0723480343113,"[33, 0, 221]",221,a,0.9656108953713556,colour,0.5
77,78,1,2,4,41,191,393.59376540924495,395.04827928445957,"[56, 0, 198]",198,a,0.9333517128397943,colour,0.5
77,78,1,2,4,42,192,395.5554748607756,396.86428560175773,"[88, 0, 166]",166,l,0.7880625113211863,colour,0.5
77,78,1,2,4,43,193,397.3759107701262,398.60031232030815,"[3, 0, 251]",251,a,0.7034772711158439,colour,0.5
77,78,1,2,4,44,194,399.1183863319493,400.3523331469114,"[98, 0, 156]",156,l,0.7132864130799135,colour,0.5
77,78,1,2,4,45,195,400.86046765338324,402.224321993177,"[83, 0, 171]",171,l,0.8429410884345998,colour,0.5
77,78,1,2,4,46,196,402.74347081203086,404.40836569439125,"[45, 0, 209]",209,a,1.144019834111532,colour,0.5
77,78,1,2,4,47,197,404.92120430395516,406.49632501792075,"[6, 0, 248]",248,a,1.0539250746332982,colour,0.5
77,78,1,2,4,48,198,407.0075713059159,408.28028758674554,"[70, 0, 184]",184,l,0.7520570604865497,colour,0.5
77,78,1,2,4,49,199,408.80031862185206,410.5363445527073,"[58, 0, 196]",196,l,1.2154529629078752,colour,0.5
77,78,1,2,4,50,200,411.0407071908485,412.3842922183794,"[42, 0, 212]",212,a,0.822678471558902,colour,0.5
77,78,1,2,5,1,201,417.1030294675984,418.28833426543497,"[83, 0, 171]",171,l,0.6628476680343738,colour,0.4
77,78,1,2,5,2,202,418.8005990405909,419.90429962269627,"[91, 0, 163]",163,l,0.5926839066451066,colour,0.4
77,78,1,2,5,3,203,420.4207852512336,421.54447275763596,"[15, 0, 239]",239,a,0.6029877198670874,colour,0.4
77,78,1,2,5,4,204,422.0542448780252,423.2402881381313,"[74, 0, 180]",180,l,0.6647018975527317,colour,0.4
77,78,1,2,5,5,205,423.75105235795854,425.0163150929875,"[31, 0, 223]",223,a,0.7443754775413254,colour,0.4
77,78,1,2,5,6,206,425.5255275574418,426.7365993714193,"[70, 0, 184]",184,l,0.689620174394804,colour,0.4
77,78,1,2,5,7,207,427.25451269367477,428.46436594645274,"[10, 0, 244]",244,a,0.6865009097855364,colour,0.4
77,78,1,2,5,8,208,428.98416894441107,430.2163430560904,"[79, 0, 175]",175,l,0.711394374295196,colour,0.4
77,78,1,2,5,9,209,430.72646530605925,432.0883259946604,"[96, 0, 158]",158,l,0.8412046190351248,colour,0.4
77,78,1,2,5,10,210,432.6094668893202,433.84834466298344,"[81, 0, 173]",173,l,0.7179601899915724,colour,0.4
77,78,1,2,5,11,211,434.3674269217736,436.352380408498,"[61, 0, 193]",193,a,1.464708986790356,colour,0.4
77,78,1,2,5,12,212,436.872996699567,438.1763491213278,"[12, 0, 242]",242,a,0.7823844257327437,colour,0.4
77,78,1,2,5,13,213,438.6933601411547,440.392330626295,"[36, 0, 218]",218,a,1.1782915724725171,colour,0.4
77,78,1,2,5,14,214,440.9020417004722,442.12032326924236,"[55, 0, 199]",199,a,0.6968220522576303,colour,0.4
77,78,1,2,5,15,215,442.62985908170594,443.91232070136175,"[56, 0, 198]",198,a,0.7609288476851361,colour,0.4
77,78,1,2,5,16,216,444.42033350924976,445.7683709719349,"[62, 0, 192]",192,a,0.8270962482201867,colour,0.4
77,78,1,2,5,17,217,446.2730297826747,447.57634912132926,"[34, 0, 220]",220,a,0.7821154285447847,colour,0.4
77,78,1,2,5,18,218,448.0947988625703,449.3363303742335,"[47, 0, 207]",207,a,0.7200830228503037,colour,0.4
77,78,1,2,5,19,219,449.85432679810765,451.29635888872144,"[26, 0, 228]",228,a,0.9205390971437737,colour,0.4
77,78,1,2,5,20,220,451.8160437327206,453.5443140374773,"[53, 0, 201]",201,a,1.223150299716508,colour,0.4
77,78,1,2,5,21,221,454.04324947027635,455.4323694595623,"[25, 0, 229]",229,a,0.8788350806971721,colour,0.4
77,78,1,2,5,22,222,455.9293927674007,457.64834584452547,"[60, 0, 194]",194,l,1.2073735949525144,colour,0.4
77,78,1,2,5,23,223,458.1587670240151,459.8403700582094,"[88, 0, 166]",166,l,1.1546706261360669,colour,0.4
77,78,1,2,5,24,224,460.360349893268,461.4723271604453,"[95, 0, 159]",159,l,0.6003776988327445,colour,0.4
77,78,1,2,5,25,225,461.9827345553058,463.4883842839481,"[1, 0, 253]",253,a,0.9823737918777624,colour,0.4
77,78,1,2,5,26,226,463.99299228848395,465.65638425244106,"[94, 0, 160]",160,l,1.1521464636534802,colour,0.4
77,78,1,2,5,27,227,466.1756051452103,467.42434995628355,"[86, 0, 168]",168,l,0.7216335966877523,colour,0.4
77,78,1,2,5,28,228,467.93625278646505,469.7923550447813,"[42, 0, 212]",212,a,1.3299079186799645,colour,0.4
77,78,1,2,5,29,229,470.3091943475156,473.01638125920726,"[28, 0, 226]",226,a,2.18036596220918,colour,0.4
77,78,1,2,5,30,230,473.52947941364255,475.89645341189316,"[66, 0, 188]",188,l,1.8394586973154219,colour,0.4
77,78,1,2,5,31,231,476.4079529432165,478.53640756815366,"[82, 0, 172]",172,l,1.6017096878349548,colour,0.4
77,78,1,2,5,32,232,479.0466562428628,480.648380896866,"[97, 0, 157]",157,l,1.07395729127893,colour,0.4
77,78,1,2,5,33,233,481.15622001843076,482.5603514686518,"[45, 0, 209]",209,a,0.8925102203174902,colour,0.4
77,78,1,2,5,34,234,483.07311170275716,485.9364902759298,"[35, 0, 219]",219,a,2.347200932628766,colour,0.4
77,78,1,2,5,35,235,486.4416614810216,488.80839917134654,"[18, 0, 236]",236,a,1.8437524123110052,colour,0.4
77,78,1,2,5,36,236,489.3150677809899,490.6243598024448,"[76, 0, 178]",178,l,0.7827274660703551,colour,0.4
77,78,1,2,5,37,237,491.1376792986375,492.93642883586654,"[73, 0, 181]",181,l,1.2719900278025307,colour,0.4
77,78,1,2,5,38,238,493.4473856466575,494.76836900270064,"[69, 0, 185]",185,l,0.8094558616176073,colour,0.4
77,78,1,2,5,39,239,495.2867549408038,497.03238718265857,"[3, 0, 251]",251,a,1.233974384220346,colour,0.4
77,78,1,2,5,40,240,497.53622718643965,501.72038786007397,"[75, 0, 179]",179,l,3.673433869225846,colour,0.4
77,78,1,2,5,41,241,502.2328550723505,504.04035706127615,"[51, 0, 203]",203,a,1.28081415957422,colour,0.4
77,78,1,2,5,42,242,504.55732554567294,506.2643832756985,"[92, 0, 162]",162,l,1.1959248698331066,colour,0.4
77,78,1,2,5,43,243,506.75939008924615,508.5364213527828,"[48, 0, 206]",206,a,1.2660216773110733,colour,0.4
77,78,1,2,5,44,244,509.05178727560633,510.8483998014999,"[24, 0, 230]",230,a,1.2699995273833338,colour,0.4
77,78,1,2,5,45,245,511.3626645293916,512.9444518837663,"[64, 0, 190]",190,l,1.0548573093983578,colour,0.4
77,78,1,2,5,46,246,513.4401333564383,515.2244125778816,"[41, 0, 213]",213,a,1.2610903247659735,colour,0.4
77,78,1,2,5,47,247,515.7308657534668,517.4643994234066,"[84, 0, 170]",170,l,1.2068233913305448,colour,0.4
77,78,1,2,5,48,248,517.9737670634022,519.6003867573054,"[98, 0, 156]",156,l,1.1149799532140605,colour,0.4
77,78,1,2,5,49,249,520.0969079107999,521.672408292834,"[27, 0, 227]",227,a,1.0517376509415044,colour,0.4
77,78,1,2,5,50,250,522.1708069127926,524.7844202185042,"[52, 0, 202]",202,l,2.101589564641472,colour,0.4
77,78,1,2,6,1,251,529.6990138082583,530.9604046379354,"[73, 0, 181]",181,l,0.7338928579847561,colour,0.28
77,78,1,2,6,2,252,531.4758891085658,532.7124794215197,"[96, 0, 158]",158,l,0.7253991634715931,colour,0.28
77,78,1,2,6,3,253,533.2215402550537,534.4484281584519,"[75, 0, 179]",179,l,0.715415941333049,colour,0.28
77,78,1,2,6,4,254,534.9515458476744,536.168479673579,"[68, 0, 186]",186,l,0.7053500114197959,colour,0.28
77,78,1,2,6,5,255,536.6654419352053,537.9123978952848,"[85, 0, 169]",169,l,0.7311989476438612,colour,0.28
77,78,1,2,6,6,256,538.4306369286278,539.8644344757522,"[5, 0, 249]",249,a,0.9066197726751852,colour,0.28
77,78,1,2,6,7,257,540.3671134199285,541.8884067332001,"[60, 0, 194]",194,l,0.9982296597954701,colour,0.28
77,78,1,2,6,8,258,542.3964140272365,543.7604129087122,"[69, 0, 185]",185,l,0.8523630792478798,colour,0.28
77,78,1,2,6,9,259,544.2827018660464,545.5924279063911,"[56, 0, 198]",198,a,0.7841401936166221,colour,0.28
77,78,1,2,6,10,260,546.0889494537332,547.4486073586268,"[21, 0, 233]",233,a,0.8447567209877889,colour,0.28
77,78,1,2,6,11,261,547.9627236063752,549.3524595716517,"[39, 0, 215]",215,a,0.8784861326639657,colour,0.28
77,78,1,2,6,12,262,549.8639516198891,551.1684595874067,"[83, 0, 171]",171,l,0.7928225406249112,colour,0.28
77,78,1,2,6,13,263,551.6859637031012,553.1444503083803,"[65, 0, 189]",189,l,0.9472426803622511,colour,0.28
77,78,1,2,6,14,264,553.6611151370962,555.048453758478,"[81, 0, 173]",173,l,0.8610206139273942,colour,0.28
77,78,1,2,6,15,265,555.5619851441079,556.9604956164876,"[55, 0, 199]",199,l,0.8720049939729506,colour,0.28
77,78,1,2,6,16,266,557.4666585271698,558.6564133970824,"[48, 0, 206]",206,a,0.6782171354752791,colour,0.28
77,78,1,2,6,17,267,559.1647089867911,560.320507589422,"[76, 0, 178]",178,l,0.6289930131606525,colour,0.28
77,78,1,2,6,18,268,560.8316451757746,562.0324545304175,"[49, 0, 205]",205,a,0.6892995833113673,colour,0.28
77,78,1,2,6,19,269,562.5301603743101,563.98445408931,"[58, 0, 196]",196,a,0.941249517538381,colour,0.28
77,78,1,2,6,20,270,564.4954002662416,565.8564559325096,"[78, 0, 176]",176,l,0.8488086142097018,colour,0.28
77,78,1,2,6,21,271,566.3661028097013,567.5844521200743,"[94, 0, 160]",160,l,0.706969902246783,colour,0.28
77,78,1,2,6,22,272,568.0804057407076,569.4644388080633,"[80, 0, 174]",174,l,0.872217671108956,colour,0.28
77,78,1,2,6,23,273,569.9663493576372,571.368485581279,"[53, 0, 201]",201,a,0.8909478310888517,colour,0.28
77,78,1,2,6,24,274,571.8836388269665,577.45647089868,"[98, 0, 156]",156,l,5.061196269485663,colour,0.28
77,78,1,2,6,25,275,577.9653812828365,579.0965006734768,"[93, 0, 161]",161,l,0.6198069364254479,colour,0.28
77,78,1,2,6,26,276,579.6014887399288,580.8644525926902,"[71, 0, 183]",183,l,0.751274093559914,colour,0.28
77,78,1,2,6,27,277,581.3619567871574,583.3764660937522,"[61, 0, 193]",193,l,1.4904633998412464,colour,0.28
77,78,1,2,6,28,278,583.872351185084,585.1764479768099,"[44, 0, 210]",210,a,0.781003993604827,colour,0.28
77,78,1,2,6,29,279,585.6804010145497,587.5844761447152,"[62, 0, 192]",192,a,1.3809063196604257,colour,0.28
77,78,1,2,6,30,280,588.0837632824732,589.3845127724417,"[26, 0, 228]",228,a,0.7767020078281348,colour,0.28
77,78,1,2,6,31,281,589.90362260049,591.1684710089576,"[64, 0, 190]",190,l,0.7371921104677313,colour,0.28
77,78,1,2,6,32,282,591.6803876237645,592.9844336092865,"[89, 0, 165]",165,l,0.7774113254490658,colour,0.28
77,78,1,2,6,33,283,593.5031472277151,594.9604743487762,"[84, 0, 170]",170,l,0.9307251502541476,colour,0.28
77,78,1,2,6,34,284,595.4696123762333,596.6165017762469,"[35, 0, 219]",219,a,0.6222137326403754,colour,0.28
77,78,1,2,6,35,285,597.1339377564909,598.7684548612488,"[16, 0, 238]",238,a,1.107859995430772,colour,0.28
77,78,1,2,6,36,286,599.2764546722028,600.5445078099765,"[91, 0, 163]",163,l,0.7533784156330512,colour,0.28
77,78,1,2,6,37,287,601.0535847912215,602.4244818948755,"[82, 0, 172]",172,l,0.8570510346362425,colour,0.28
77,78,1,2,6,38,288,602.932742826084,604.2965057934816,"[52, 0, 202]",202,a,0.8489318881765939,colour,0.28
77,78,1,2,6,39,289,604.8045505029404,606.2805006577219,"[86, 0, 168]",168,l,0.95265964569262,colour,0.28
77,78,1,2,6,40,290,606.7865588052264,607.9764889368489,"[90, 0, 164]",164,l,0.6686801414689398,colour,0.28
77,78,1,2,6,41,291,608.4857805644606,610.2245035564338,"[59, 0, 195]",195,l,1.2149866486033716,colour,0.28
77,78,1,2,6,42,292,610.7381586098782,612.1124904492208,"[43, 0, 211]",211,a,0.8630410466867033,colour,0.28
77,78,1,2,6,43,293,612.6216410797679,614.2965101257942,"[37, 0, 217]",217,a,1.1535867604543455,colour,0.28
77,78,1,2,6,44,294,614.817500964924,616.2165068962531,"[79, 0, 175]",175,l,0.8780308460627566,colour,0.28
77,78,1,2,6,45,295,616.7192843020639,618.0245126149057,"[9, 0, 245]",245,a,0.7873370459928992,colour,0.28
77,78,1,2,6,46,296,618.5247099320222,620.152545824043,"[51, 0, 203]",203,a,1.10935543074811,colour,0.28
77,78,1,2,6,47,297,620.6684087812027,622.7604881334046,"[88, 0, 166]",166,l,1.5709951714416093,colour,0.28
77,78,1,2,6,48,298,623.2678483375748,624.9205209802058,"[14, 0, 240]",240,a,1.1322245240371558,colour,0.28
77,78,1,2,6,49,299,625.4304234638003,626.6005064866513,"[27, 0, 227]",227,a,0.6488342142365582,colour,0.28
77,78,1,2,6,50,300,627.1112076910358,628.2965640827715,"[87, 0, 167]",167,l,0.6620580057206098,colour,0.28
77,78,1,2,7,1,301,633.26095326617,634.6485833339902,"[95, 0, 159]",159,l,0.8656191661502817,colour,0.14
77,78,1,2,7,2,302,635.1611750017728,636.3365221774984,"[30, 0, 224]",224,a,0.6535725819776417,colour,0.14
77,78,1,2,7,3,303,636.8428229344718,637.9045300229227,"[55, 0, 199]",199,a,0.5508916685721488,colour,0.14
77,78,1,2,7,4,304,638.4163422683996,639.8165167424158,"[56, 0, 198]",198,a,0.8795955983696331,colour,0.14
77,78,1,2,7,5,305,640.330481753088,641.7206103833705,"[62, 0, 192]",192,a,0.8692976928468852,colour,0.14
77,78,1,2,7,6,306,642.2167077579907,643.3845509755593,"[99, 0, 155]",155,l,0.6500764062293456,colour,0.14
77,78,1,2,7,7,307,643.8939351571062,645.2805463439217,"[61, 0, 193]",193,a,0.8659622064842551,colour,0.14
77,78,1,2,7,8,308,645.7927993036792,647.4725551975935,"[59, 0, 195]",195,a,1.1591317259153584,colour,0.14
77,78,1,2,7,9,309,647.9870180302933,649.1446066654571,"[83, 0, 171]",171,l,0.6459579529400798,colour,0.14
77,78,1,2,7,10,310,649.639110930817,651.0485593093508,"[70, 0, 184]",184,l,0.8986132663267199,colour,0.14
77,78,1,2,7,11,311,651.5577178168278,652.8006069175208,"[98, 0, 156]",156,l,0.732135514717811,colour,0.14
77,78,1,2,7,12,312,653.3033012217129,655.3925405465016,"[69, 0, 185]",185,l,1.5784672280278755,colour,0.14
77,78,1,2,7,13,313,655.8955278725189,657.3205997495133,"[67, 0, 187]",187,a,0.9139181429345626,colour,0.14
77,78,1,2,7,14,314,657.8283010247869,659.5205450048452,"[54, 0, 200]",200,a,1.1813592431863071,colour,0.14
77,78,1,2,7,15,315,660.0299217033062,661.7765688876971,"[66, 0, 188]",188,a,1.2358420045202365,colour,0.14
77,78,1,2,7,16,316,662.2849247359263,663.6725870991613,"[96, 0, 158]",158,l,0.8609993462123384,colour,0.14
77,78,1,2,7,17,317,664.1866608114797,665.2965593566114,"[40, 0, 214]",214,a,0.5840952951075451,colour,0.14
77,78,1,2,7,18,318,665.8055748977968,667.2645459343221,"[85, 0, 169]",169,l,0.9476944223461032,colour,0.14
77,78,1,2,7,19,319,667.7846884280007,668.9527029688143,"[63, 0, 191]",191,a,0.6415007916293689,colour,0.14
77,78,1,2,7,20,320,669.4670165336793,670.8885713610543,"[36, 0, 218]",218,a,0.9110434570284269,colour,0.14
77,78,1,2,7,21,321,671.4005561113154,672.6565476987525,"[89, 0, 165]",165,l,0.729206477986736,colour,0.14
77,78,1,2,7,22,322,673.1771982544706,674.5926394019843,"[51, 0, 203]",203,a,0.9045162382935814,colour,0.14
77,78,1,2,7,23,323,675.1092479106446,680.9205812387263,"[49, 0, 205]",205,l,5.284728600348899,colour,0.14
77,78,1,2,7,24,324,681.4284278433734,682.680583365498,"[18, 0, 236]",236,a,0.7289685946780082,colour,0.14
77,78,1,2,7,25,325,683.2012835458772,684.4565784187835,"[91, 0, 163]",163,l,0.7282360401077312,colour,0.14
77,78,1,2,7,26,326,684.9796798815296,686.1685840429127,"[86, 0, 168]",168,l,0.6612801587980357,colour,0.14
77,78,1,2,7,27,327,686.6779855537097,687.9605602073207,"[52, 0, 202]",202,a,0.7622884059455828,colour,0.14
77,78,1,2,7,28,328,688.4785050372957,689.6245748426591,"[57, 0, 197]",197,a,0.6349668775073951,colour,0.14
77,78,1,2,7,29,329,690.1297996108806,691.3046158814686,"[60, 0, 194]",194,a,0.6630784621083876,colour,0.14
77,78,1,2,7,30,330,691.8125128984757,693.4086012146217,"[72, 0, 182]",182,l,1.071673375186947,colour,0.14
77,78,1,2,7,31,331,693.9176742574018,695.6645900451331,"[77, 0, 177]",177,l,1.2353276409376122,colour,0.14
77,78,1,2,7,32,332,696.1673524847793,698.1606460658659,"[74, 0, 180]",180,l,1.482168203980109,colour,0.14
77,78,1,2,7,33,333,698.6663288776144,699.8966003166533,"[81, 0, 173]",173,l,0.7195383330836194,colour,0.14
77,78,1,2,7,34,334,700.395529054058,702.8246098950003,"[93, 0, 161]",161,l,1.904582010665763,colour,0.14
77,78,1,2,7,35,335,703.3324824935225,704.600585255961,"[0, 0, 254]",254,a,0.7414566808183736,colour,0.14
77,78,1,2,7,36,336,705.1079367955062,706.4485734878253,"[78, 0, 176]",176,l,0.8139323214090837,colour,0.14
77,78,1,2,7,37,337,706.9619071624911,708.4086090915516,"[97, 0, 157]",157,l,0.9206206233793637,colour,0.14
77,78,1,2,7,38,338,708.9250840862369,712.4326266413555,"[90, 0, 164]",164,l,2.980329334477574,colour,0.14
77,78,1,2,7,39,339,712.9535142926907,714.7845683048072,"[84, 0, 170]",170,l,1.319233495862136,colour,0.14
77,78,1,2,7,40,340,715.2829692878477,717.4406240892313,"[94, 0, 160]",160,l,1.6452411522404873,colour,0.14
77,78,1,2,7,41,341,717.9524820209044,719.9446011516084,"[88, 0, 166]",166,l,1.4657849755421921,colour,0.14
77,78,1,2,7,42,342,720.4659566926348,724.0566733358028,"[71, 0, 183]",183,l,3.064126487755857,colour,0.14
77,78,1,2,7,43,343,724.5683784550201,726.1127011571225,"[75, 0, 179]",179,a,1.032961804765364,colour,0.14
77,78,1,2,7,44,344,726.6256677668098,735.1686269721868,"[9, 0, 245]",245,l,8.017772719038476,colour,0.14
77,78,1,2,7,45,345,735.6754491819811,737.168672264539,"[68, 0, 186]",186,l,0.9665277701205923,colour,0.14
77,78,1,2,7,46,346,737.6855414996098,738.3685927075385,"[64, 0, 190]",190,a,0.15554575315400143,colour,0.14
77,78,1,2,7,47,347,738.8806684363517,740.1046580230468,"[87, 0, 167]",167,l,0.697606200719747,colour,0.14
77,78,1,2,7,48,348,740.6260466471831,741.7686399691229,"[92, 0, 162]",162,l,0.6159342433820711,colour,0.14
77,78,1,2,7,49,349,742.2770438666266,743.4006915945283,"[79, 0, 175]",175,l,0.6116499807030777,colour,0.14
77,78,1,2,7,50,350,743.8980740904117,745.0646132820802,"[82, 0, 172]",172,l,0.643499168982089,colour,0.14
77,78,1,2,8,1,351,749.7116716422606,750.9126290832028,"[88, 0, 166]",166,l,0.686392995830829,colour,0.06
77,78,1,2,8,2,352,751.4130824005733,752.5606740289695,"[90, 0, 164]",164,l,0.6359062015071686,colour,0.06
77,78,1,2,8,3,353,753.0648629807874,754.20070380377,"[97, 0, 157]",157,l,0.6123785968047741,colour,0.06
77,78,1,2,8,4,354,754.7131182406083,755.9766653801016,"[63, 0, 191]",191,a,0.7369183871196583,colour,0.06
77,78,1,2,8,5,355,756.4892263278525,757.8326868998774,"[67, 0, 187]",187,a,0.8323383456881857,colour,0.06
77,78,1,2,8,6,356,758.342448386411,759.5046611738217,"[78, 0, 176]",176,l,0.6350133513988112,colour,0.06
77,78,1,2,8,7,357,760.009773301932,761.336672626876,"[75, 0, 179]",179,l,0.815589233810897,colour,0.06
77,78,1,2,8,8,358,761.8340409442862,763.152612777958,"[98, 0, 156]",156,l,0.8066154403604742,colour,0.06
77,78,1,2,8,9,359,763.6579801186272,765.0486302017271,"[70, 0, 184]",184,l,0.8788138129857543,colour,0.06
77,78,1,2,8,10,360,765.5447110347923,767.2647066237114,"[66, 0, 188]",188,l,1.2083137066474592,colour,0.06
77,78,1,2,8,11,361,767.761710633069,769.1606689089676,"[62, 0, 192]",192,a,0.8752203571420978,colour,0.06
77,78,1,2,8,12,362,769.6643561002893,772.5206426787881,"[60, 0, 194]",194,a,2.333134309548768,colour,0.06
77,78,1,2,8,13,363,773.0414456531144,774.9686446952801,"[64, 0, 190]",190,a,1.4160614558131783,colour,0.06
77,78,1,2,8,14,364,775.4768721495348,776.6166423794639,"[52, 0, 202]",202,a,0.6286377635842655,colour,0.06
77,78,1,2,8,15,365,777.1134305609157,778.2966775105742,"[76, 0, 178]",178,l,0.6588079840585124,colour,0.06
77,78,1,2,8,16,366,778.7931336793918,780.2247205658787,"[82, 0, 172]",172,l,0.9076918229584408,colour,0.06
77,78,1,2,8,17,367,780.7272502422165,782.816688853356,"[59, 0, 195]",195,l,1.5783037817163859,colour,0.06
77,78,1,2,8,18,368,783.3199711704328,784.9286684836115,"[73, 0, 181]",181,l,1.0973844651161926,colour,0.06
77,78,1,2,8,19,369,785.4397257252676,787.0247201720304,"[55, 0, 199]",199,a,1.058240451187885,colour,0.06
77,78,1,2,8,20,370,787.531856277521,788.9287322867531,"[77, 0, 177]",177,l,0.8838282671567868,colour,0.06
77,78,1,2,8,21,371,789.4350862130086,791.0966676644093,"[83, 0, 171]",171,l,1.1489696974458639,colour,0.06
77,78,1,2,8,22,372,791.6038246437638,793.1686746276173,"[61, 0, 193]",193,a,1.0386331949630403,colour,0.06
77,78,1,2,8,23,373,793.6649673501197,795.776670500105,"[58, 0, 196]",196,a,1.599984639982722,colour,0.06
77,78,1,2,8,24,374,796.2885284317817,797.9207068757714,"[81, 0, 173]",173,l,1.1206533126423892,colour,0.06
77,78,1,2,8,25,375,798.4276590549271,799.6247512859081,"[57, 0, 197]",197,a,0.6732708167583041,colour,0.06
77,78,1,2,8,26,376,800.1371783258364,801.2567292620115,"[95, 0, 159]",159,l,0.5928800422225322,colour,0.06
77,78,1,2,8,27,377,801.7723945082034,802.8966790859595,"[99, 0, 155]",155,l,0.6133450962151983,colour,0.06
77,78,1,2,8,28,378,803.3932333225675,804.5926760297116,"[85, 0, 169]",169,l,0.6764428568058065,colour,0.06
77,78,1,2,8,29,379,805.1058344426674,806.3367324915525,"[84, 0, 170]",170,l,0.7040794624808768,colour,0.06
77,78,1,2,8,30,380,806.8504836435532,808.0327105306678,"[89, 0, 165]",165,l,0.6555571747012436,colour,0.06
77,78,1,2,8,31,381,808.5486991248727,810.000717982246,"[92, 0, 162]",162,l,0.940279473506962,colour,0.06
77,78,1,2,8,32,382,810.5126401109083,815.8407489385827,"[51, 0, 203]",203,l,4.801828235646099,colour,0.06
77,78,1,2,8,33,383,816.3442285727797,817.4007207391696,"[3, 0, 251]",251,a,0.5446464439592091,colour,0.06
77,78,1,2,8,34,384,817.9141717801067,818.7047107984836,"[74, 0, 180]",180,l,0.26392208139805007,colour,0.06
77,78,1,2,8,35,385,819.2178030452196,819.9367395807894,"[69, 0, 185]",185,l,0.19175364111288218,colour,0.06
77,78,1,2,8,36,386,820.4435649413572,821.0167388718655,"[87, 0, 167]",167,l,0.046614495127869304,colour,0.06
77,78,1,2,8,37,387,821.5288614684177,822.7847104834073,"[71, 0, 183]",183,l,0.7306841902136512,colour,0.06
77,78,1,2,8,38,388,823.3034579726336,824.9686951076364,"[65, 0, 189]",189,l,1.1539313761786616,colour,0.06
77,78,1,2,8,39,389,825.4745894149783,831.2647357683563,"[54, 0, 200]",200,l,5.278875253046863,colour,0.06
77,78,1,2,8,40,390,831.7743349901139,832.8087760824856,"[53, 0, 201]",201,a,0.5226851669503958,colour,0.06
77,78,1,2,8,41,391,833.3286802990078,834.008687467016,"[56, 0, 198]",198,a,0.1534174064436229,colour,0.06
77,78,1,2,8,42,392,834.5232066197714,835.2247087504838,"[22, 0, 232]",232,a,0.17501555693888804,colour,0.06
77,78,1,2,8,43,393,835.7332520696618,836.472743850085,"[72, 0, 182]",182,l,0.21253534772768035,colour,0.06
77,78,1,2,8,44,394,836.990354698195,837.7207631958263,"[79, 0, 175]",175,l,0.20371436673303833,colour,0.06
77,78,1,2,8,45,395,838.2317987759234,838.8966901136628,"[80, 0, 174]",174,l,0.1381412806294975,colour,0.06
77,78,1,2,8,46,396,839.4115700298535,840.6807342087232,"[29, 0, 225]",225,a,0.7426425527555693,colour,0.06
77,78,1,2,8,47,397,841.1874516553362,842.7206875772936,"[96, 0, 158]",158,l,1.006724535855028,colour,0.06
77,78,1,2,8,48,398,843.2268390664249,847.3047466385178,"[91, 0, 163]",163,l,3.567300103186426,colour,0.06
77,78,1,2,8,49,399,847.8149783778244,848.6167857396031,"[86, 0, 168]",168,l,0.27470599355729064,colour,0.06
77,78,1,2,8,50,400,849.1346943356984,849.768751427695,"[93, 0, 161]",161,l,0.10732239490243956,colour,0.06
77,78,1,2,9,1,401,854.9528955597743,855.6327510968622,"[42, 0, 212]",212,a,0.16748481721515418,colour,0.06
77,78,1,2,9,2,402,856.1334903468196,856.6887505612322,"[80, 0, 174]",174,l,0.04385323702445021,colour,0.06
77,78,1,2,9,3,403,857.1998267075214,857.8887096011895,"[41, 0, 213]",213,a,0.16186895937789814,colour,0.06
77,78,1,2,9,4,404,858.3946996132436,859.0967897568371,"[96, 0, 158]",158,l,0.17576740998629248,colour,0.06
77,78,1,2,9,5,405,859.6046536907343,860.1767571463461,"[63, 0, 191]",191,a,0.04677085220464505,colour,0.06
77,78,1,2,9,6,406,860.6882795207675,861.3687494584592,"[54, 0, 200]",200,a,0.15277543657794013,colour,0.06
77,78,1,2,9,7,407,861.8834371775374,862.568745519995,"[83, 0, 171]",171,l,0.17390845430782065,colour,0.06
77,78,1,2,9,8,408,863.0811028490862,863.7847616834588,"[81, 0, 173]",173,l,0.19159413326269714,colour,0.06
77,78,1,2,9,9,409,864.2835096453018,865.0407906863184,"[65, 0, 189]",189,a,0.2464987042476423,colour,0.06
77,78,1,2,9,10,410,865.5585476514934,866.3607425582704,"[87, 0, 167]",167,l,0.2721203910114127,colour,0.06
77,78,1,2,9,11,411,866.8689857663849,867.7367892054535,"[90, 0, 164]",164,l,0.36235693524213275,colour,0.06
77,78,1,2,9,12,412,868.2569253975889,869.1847463234408,"[70, 0, 184]",184,l,0.40484903861943167,colour,0.06
77,78,1,2,9,13,413,869.6921309460995,870.648820823455,"[88, 0, 166]",166,l,0.43316896804390126,colour,0.06
77,78,1,2,9,14,414,871.1583972021144,872.0967401321759,"[77, 0, 177]",177,l,0.41542972596289474,colour,0.06
77,78,1,2,9,15,415,872.6093408584275,873.1927666144147,"[97, 0, 157]",157,l,0.06252747079633991,colour,0.06
77,78,1,2,9,16,416,873.6880932313543,874.52871416981,"[94, 0, 160]",160,l,0.32036698620868265,colour,0.06
77,78,1,2,9,17,417,875.0425354264953,876.0487648972448,"[53, 0, 201]",201,a,0.4854024717787979,colour,0.06
77,78,1,2,9,18,418,876.555957716635,877.688767496631,"[69, 0, 185]",185,a,0.6113896481365373,colour,0.06
77,78,1,2,9,19,419,878.2076122659564,879.4407784770738,"[60, 0, 194]",194,a,0.7094204154309409,colour,0.06
77,78,1,2,9,20,420,879.9559073042765,880.784755381912,"[58, 0, 196]",196,a,0.30832630973600317,colour,0.06
77,78,1,2,9,21,421,881.2974782005949,885.928787031422,"[68, 0, 186]",186,a,4.110147062299802,colour,0.06
77,78,1,2,9,22,422,886.4453344938665,887.3528085196886,"[93, 0, 161]",161,l,0.3866147314365662,colour,0.06
77,78,1,2,9,23,423,887.8625637046789,888.6887879766509,"[91, 0, 163]",163,l,0.30261238410821534,colour,0.06
77,78,1,2,9,24,424,889.204214157995,890.0487578080065,"[78, 0, 176]",176,l,0.3212169070429809,colour,0.06
77,78,1,2,9,25,425,890.5618591132152,891.5687683630931,"[74, 0, 180]",180,l,0.4827042291217367,colour,0.06
77,78,1,2,9,26,426,892.082645939834,892.7848310004483,"[95, 0, 159]",159,l,0.18080825187280425,colour,0.06
77,78,1,2,9,27,427,893.2969228769689,894.072815136311,"[86, 0, 168]",168,l,0.255511094659596,colour,0.06
77,78,1,2,9,28,428,894.5895150173674,895.2487503249213,"[50, 0, 204]",204,a,0.13809559442961472,colour,0.06
77,78,1,2,9,29,429,895.7572144809492,896.9288035729769,"[72, 0, 182]",182,a,0.6502882956701797,colour,0.06
77,78,1,2,9,30,430,897.4379672004579,899.4087729317143,"[66, 0, 188]",188,a,1.4472907296403719,colour,0.06
77,78,1,2,9,31,431,899.913352973148,902.0488377588554,"[89, 0, 165]",165,l,1.6242562208062736,colour,0.06
77,78,1,2,9,32,432,902.5597733019313,903.8488153096041,"[62, 0, 192]",192,a,0.768593495231471,colour,0.06
77,78,1,2,9,33,433,904.3651835718738,905.6167613211182,"[56, 0, 198]",198,a,0.73042700842052,colour,0.06
77,78,1,2,9,34,434,906.1249856245995,906.8088194056072,"[71, 0, 183]",183,a,0.16224665821209783,colour,0.06
77,78,1,2,9,35,435,907.324350350129,908.4731617212674,"[55, 0, 199]",199,a,0.6242538577280357,colour,0.06
77,78,1,2,9,36,436,908.9734287492211,910.5287897883463,"[59, 0, 195]",195,a,1.031706221987406,colour,0.06
77,78,1,2,9,37,437,911.0318712436892,912.7447984687242,"[99, 0, 155]",155,l,1.2013122966782248,colour,0.06
77,78,1,2,9,38,438,913.2487865588046,915.6088371287005,"[98, 0, 156]",156,l,1.8354938441771083,colour,0.06
77,78,1,2,9,39,439,916.123382669175,917.3607921829353,"[76, 0, 178]",178,l,0.7227603916435328,colour,0.06
77,78,1,2,9,40,440,917.8712129685773,919.1288106622123,"[61, 0, 193]",193,a,0.7464581380518212,colour,0.06
77,78,1,2,9,41,441,919.647555000669,920.8168365458077,"[92, 0, 162]",162,a,0.6569852622633334,colour,0.06
77,78,1,2,9,42,442,921.3159515726293,922.4407780832262,"[51, 0, 203]",203,a,0.61390672138441,colour,0.06
77,78,1,2,9,43,443,922.9489114081589,924.6808082518728,"[75, 0, 179]",179,a,1.2054894330976822,colour,0.06
77,78,1,2,9,44,444,925.1971064094578,925.8728226193925,"[49, 0, 205]",205,a,0.164948445486516,colour,0.06
77,78,1,2,9,45,445,926.393584239835,927.0808263688123,"[57, 0, 197]",197,a,0.17631643206550507,colour,0.06
77,78,1,2,9,46,446,927.6038758438153,928.2248379321463,"[67, 0, 187]",187,a,0.10932707379834028,colour,0.06
77,78,1,2,9,47,447,928.7210404637917,929.5048061093476,"[52, 0, 202]",202,a,0.27234330815190333,colour,0.06
77,78,1,2,9,48,448,930.0099966129201,930.7608055737146,"[84, 0, 170]",170,l,0.23946066654389142,colour,0.06
77,78,1,2,9,49,449,931.2830661740954,931.9928587745053,"[82, 0, 172]",172,l,0.1984628169448115,colour,0.06
77,78,1,2,9,50,450,932.5123423629229,933.2567910959187,"[73, 0, 181]",181,l,0.23305947870539967,colour,0.06
77,78,1,2,10,1,451,938.9899045315979,939.6728092286103,"[54, 0, 200]",200,a,0.15876741786269122,colour,0.06
77,78,1,2,10,2,452,940.1699896812206,941.4888202720686,"[66, 0, 188]",188,a,0.7950194166332949,colour,0.06
77,78,1,2,10,3,453,941.9966972029033,943.2327896938223,"[99, 0, 155]",155,l,0.7126932801875228,colour,0.06
77,78,1,2,10,4,454,943.7540286562726,944.8888037305151,"[62, 0, 192]",192,a,0.6080521925432549,colour,0.06
77,78,1,2,10,5,455,945.4047383677425,946.7528199412372,"[79, 0, 175]",175,l,0.8373390152264619,colour,0.06
77,78,1,2,10,6,456,947.2742999377733,947.8968393815048,"[41, 0, 213]",213,a,0.09463581010641064,colour,0.06
77,78,1,2,10,7,457,948.4073708380274,949.3688077477491,"[70, 0, 184]",184,l,0.44972706434782594,colour,0.06
77,78,1,2,10,8,458,949.8841055351186,950.8809000181172,"[72, 0, 182]",182,l,0.46984001953387633,colour,0.06
77,78,1,2,10,9,459,951.3856679243509,952.1369467440709,"[50, 0, 204]",204,a,0.23931691255711485,colour,0.06
77,78,1,2,10,10,460,952.6438075508268,953.928877222279,"[85, 0, 169]",169,l,0.7735153954599809,colour,0.06
77,78,1,2,10,11,461,954.4364701897539,955.9369049963352,"[75, 0, 179]",179,l,0.9886682473006658,colour,0.06
77,78,1,2,10,12,462,956.4472505572921,957.7608264475821,"[55, 0, 199]",199,a,0.8022646176141279,colour,0.06
77,78,1,2,10,13,463,958.2704717493871,959.656850172898,"[64, 0, 190]",190,a,0.8745204918341187,colour,0.06
77,78,1,2,10,14,464,960.1719604893151,961.9928505037278,"[96, 0, 158]",158,a,1.2944822099489102,colour,0.06
77,78,1,2,10,15,465,962.5141292446824,964.080874811938,"[95, 0, 159]",159,l,1.0554610761464573,colour,0.06
77,78,1,2,10,16,466,964.5873409844571,965.8008546469937,"[88, 0, 166]",166,l,0.686994005653105,colour,0.06
77,78,1,2,10,17,467,966.3167558072673,967.8328787031423,"[24, 0, 230]",230,a,0.989413404960942,colour,0.06
77,78,1,2,10,18,468,968.3306054209024,970.2408221940386,"[92, 0, 162]",162,l,1.3872685166934389,colour,0.06
77,78,1,2,10,19,469,970.7479787795492,974.8729013887023,"[84, 0, 170]",170,l,3.5983639614642016,colour,0.06
77,78,1,2,10,20,470,975.3822599702253,976.72888746229,"[93, 0, 161]",161,l,0.8344450308395608,colour,0.06
77,78,1,2,10,21,471,977.253155104645,978.5528455412641,"[80, 0, 174]",174,l,0.7887962474305823,colour,0.06
77,78,1,2,10,22,472,979.0592085259887,980.360914275363,"[52, 0, 202]",202,a,0.7895717312712804,colour,0.06
77,78,1,2,10,23,473,980.8836904208656,982.0809078950479,"[67, 0, 187]",187,a,0.6856970689950685,colour,0.06
77,78,1,2,10,24,474,982.5967818799072,984.5848743235692,"[78, 0, 176]",176,l,1.476193551945471,colour,0.06
77,78,1,2,10,25,475,985.0806625286532,986.712820492623,"[98, 0, 156]",156,l,1.1200889305473538,colour,0.06
77,78,1,2,10,26,476,987.2202405614662,990.7128768126786,"[58, 0, 196]",196,a,2.9661465266690357,colour,0.06
77,78,1,2,10,27,477,991.2114499066593,992.7768843587764,"[83, 0, 171]",171,l,1.0526356210539234,colour,0.06
77,78,1,2,10,28,478,993.2859420415443,994.944880782652,"[82, 0, 172]",172,l,1.132558505905763,colour,0.06
77,78,1,2,10,29,479,995.4406386615519,996.6808421226742,"[68, 0, 186]",186,a,0.7284046064269205,colour,0.06
77,78,1,2,10,30,480,997.1868368608848,998.4088453994773,"[97, 0, 157]",157,a,0.6987455987655267,colour,0.06
77,78,1,2,10,31,481,998.9282777878434,1000.59285050373,"[90, 0, 164]",164,l,1.1384311516849266,colour,0.06
77,78,1,2,10,32,482,1001.1133726654734,1002.2569159452723,"[69, 0, 185]",185,a,0.6314888186971075,colour,0.06
77,78,1,2,10,33,483,1002.7658495663745,1003.9129603081456,"[53, 0, 201]",201,a,0.635842792213225,colour,0.06
77,78,1,2,10,34,484,1004.4296428599555,1005.7369869164177,"[61, 0, 193]",193,a,0.7801954266542452,colour,0.06
77,78,1,2,10,35,485,1006.2526545256915,1007.6648838546535,"[91, 0, 163]",163,l,0.8856513827959134,colour,0.06
77,78,1,2,10,36,486,1008.1732373398008,1009.6648937008176,"[59, 0, 195]",195,l,0.9678369160246802,colour,0.06
77,78,1,2,10,37,487,1010.1687845108027,1011.7288870684424,"[71, 0, 183]",183,a,1.0479504225986602,colour,0.06
77,78,1,2,10,38,488,1012.2427622821051,1013.3529203721046,"[81, 0, 173]",173,l,0.5836163777130423,colour,0.06
77,78,1,2,10,39,489,1013.8631576252628,1014.7448760564948,"[65, 0, 189]",189,a,0.37067654959173524,colour,0.06
77,78,1,2,10,40,490,1015.2613096972891,1016.1608989153465,"[0, 0, 254]",254,a,0.3884555701733916,colour,0.06
77,78,1,2,10,41,491,1016.6744708671722,1017.9048801524987,"[56, 0, 198]",198,a,0.7035135049991368,colour,0.06
77,78,1,2,10,42,492,1018.4191322773004,1019.2169275243577,"[51, 0, 203]",203,a,0.2712881932675373,colour,0.06
77,78,1,2,10,43,493,1019.7382011453046,1020.552912889023,"[74, 0, 180]",180,l,0.2879695635419921,colour,0.06
77,78,1,2,10,44,494,1021.0606960843761,1022.232894063156,"[63, 0, 191]",191,l,0.6479567241403856,colour,0.06
77,78,1,2,10,45,495,1022.7407587847483,1025.8089391349567,"[73, 0, 181]",181,l,2.5415547486081778,colour,0.06
77,78,1,2,10,46,496,1026.3237788787956,1027.3688971509146,"[57, 0, 197]",197,a,0.5174938756863412,colour,0.06
77,78,1,2,10,47,497,1027.869914062685,1028.9929182453343,"[60, 0, 194]",194,a,0.6123210952064255,colour,0.06
77,78,1,2,10,48,498,1029.5108591368444,1030.2251293785885,"[87, 0, 167]",167,l,0.18402243349919445,colour,0.06
77,78,1,2,10,49,499,1030.7404693075405,1031.9929509345966,"[77, 0, 177]",177,l,0.7377198648318881,colour,0.06
77,78,1,2,10,50,500,1032.5021192882414,1033.2969039723357,"[94, 0, 160]",160,l,0.27072499271525885,colour,0.06
77,78,1,2,11,1,501,1038.0316006711146,1039.2728828779145,"[66, 0, 188]",188,a,0.7262872874198365,colour,0.06
77,78,1,2,11,2,502,1039.7691795388855,1040.8809634274112,"[59, 0, 195]",195,a,0.5863717281208665,colour,0.06
77,78,1,2,11,3,503,1041.3941911573565,1042.624942695329,"[72, 0, 182]",182,a,0.7098067788865592,colour,0.06
77,78,1,2,11,4,504,1043.1397217868034,1043.7929154884077,"[82, 0, 172]",172,l,0.12980433703705785,colour,0.06
77,78,1,2,11,5,505,1044.3096831110706,1045.5209400329259,"[84, 0, 170]",170,l,0.687888431151805,colour,0.06
77,78,1,2,11,6,506,1046.041908028954,1047.0889691460616,"[52, 0, 202]",202,a,0.52356777705063,colour,0.06
77,78,1,2,11,7,507,1047.6022772207034,1049.3209581498668,"[97, 0, 157]",157,l,1.1978944963884715,colour,0.06
77,78,1,2,11,8,508,1049.8325155766288,1051.3049467125638,"[90, 0, 164]",164,l,0.9516529739375983,colour,0.06
77,78,1,2,11,9,509,1051.8219022000267,1052.6729470749015,"[86, 0, 168]",168,l,0.3304557592164201,colour,0.06
77,78,1,2,11,10,510,1053.179416398194,1054.5129291942685,"[70, 0, 184]",184,l,0.8128137972307741,colour,0.06
77,78,1,2,11,11,511,1055.0309949351322,1064.7454172016405,"[55, 0, 199]",199,l,9.193812670830084,colour,0.06
77,78,1,2,11,12,512,1065.2581758603592,1066.5449595519603,"[58, 0, 196]",196,a,0.7659145510551753,colour,0.06
77,78,1,2,11,13,513,1067.062756295636,1069.872924625648,"[92, 0, 162]",162,l,2.2894169495775714,colour,0.06
77,78,1,2,11,14,514,1070.392342047846,1071.1609406630814,"[69, 0, 185]",185,a,0.25782494309169124,colour,0.06
77,78,1,2,11,15,515,1071.6687305538253,1072.4489980543985,"[99, 0, 155]",155,l,0.259339283042209,colour,0.06
77,78,1,2,11,16,516,1072.9614054019985,1073.8009657117182,"[79, 0, 175]",175,l,0.31840051042308914,colour,0.06
77,78,1,2,11,17,517,1074.3159271541444,1075.0489173158567,"[50, 0, 204]",204,a,0.21158184525120305,colour,0.06
77,78,1,2,11,18,518,1075.5615054390219,1079.105031783416,"[61, 0, 193]",193,a,3.022456735958258,colour,0.06
77,78,1,2,11,19,519,1079.6235969216941,1080.8649204823814,"[96, 0, 158]",158,l,0.7196155270030431,colour,0.06
77,78,1,2,11,20,520,1081.3828255338594,1082.9450162658613,"[71, 0, 183]",183,l,1.041044323490496,colour,0.06
77,78,1,2,11,21,521,1083.4563200554549,1084.6330015832646,"[95, 0, 159]",159,l,0.6561010767763946,colour,0.06
77,78,1,2,11,22,522,1085.15215591597,1086.2489704851396,"[68, 0, 186]",186,a,0.5758627208488178,colour,0.06
77,78,1,2,11,23,523,1086.7559683504915,1087.8489980543964,"[88, 0, 166]",166,l,0.5697439209761797,colour,0.06
77,78,1,2,11,24,524,1088.3604215733394,1089.3449599458072,"[64, 0, 190]",190,a,0.46386024749517674,colour,0.06
77,78,1,2,11,25,525,1089.853437098769,1090.9369538333085,"[81, 0, 173]",173,l,0.5615042574827385,colour,0.06
77,78,1,2,11,26,526,1091.458399565192,1092.1129477050563,"[16, 0, 238]",238,a,0.13392633494368056,colour,0.06
77,78,1,2,11,27,527,1092.625203027892,1093.5930222208226,"[85, 0, 169]",169,l,0.447389585122437,colour,0.06
77,78,1,2,11,28,528,1094.103099572283,1094.6729285641122,"[93, 0, 161]",161,l,0.04890825738402782,colour,0.06
77,78,1,2,11,29,529,1095.1665998440367,1095.8649240270024,"[20, 0, 234]",234,a,0.17987838018962066,colour,0.06
77,78,1,2,11,30,530,1096.3780103660392,1097.2409970619046,"[53, 0, 201]",201,a,0.3421671799806063,colour,0.06
77,78,1,2,11,31,531,1097.7462651532442,1098.4089899411592,"[73, 0, 181]",181,l,0.1415823178649589,colour,0.06
77,78,1,2,11,32,532,1098.9141729616458,1099.6729541641398,"[78, 0, 176]",176,l,0.24796578261157265,colour,0.06
77,78,1,2,11,33,533,1100.1910726804417,1100.969067292619,"[83, 0, 171]",171,l,0.25645672020255006,colour,0.06
77,78,1,2,11,34,534,1101.4840346427409,1102.6970154309056,"[75, 0, 179]",179,l,0.6917075610654138,colour,0.06
77,78,1,2,11,35,535,1103.2120064118208,1104.7290040408661,"[54, 0, 200]",200,a,0.9961666916096874,colour,0.06
77,78,1,2,11,36,536,1105.2356891920645,1106.744990271989,"[98, 0, 156]",156,a,0.9881822406714491,colour,0.06
77,78,1,2,11,37,537,1107.264032358431,1108.5449717612028,"[94, 0, 160]",160,l,0.7602573393305647,colour,0.06
77,78,1,2,11,38,538,1109.054132237914,1110.209027356581,"[62, 0, 192]",192,a,0.634268193742173,colour,0.06
77,78,1,2,11,39,539,1110.7185986152363,1111.841156963601,"[51, 0, 203]",203,a,0.6014375398772245,colour,0.06
77,78,1,2,11,40,540,1112.351875891076,1113.4569994407393,"[77, 0, 177]",177,l,0.5837758855668653,colour,0.06
77,78,1,2,11,41,541,1113.9721786802984,1115.3930427008418,"[80, 0, 174]",174,l,0.8997144612585544,colour,0.06
77,78,1,2,11,42,542,1115.9001866832587,1117.1369711625557,"[56, 0, 198]",198,a,0.7135219333140412,colour,0.06
77,78,1,2,11,43,543,1117.6325935582463,1118.9130631020926,"[67, 0, 187]",187,a,0.7672138507950876,colour,0.06
77,78,1,2,11,44,544,1119.4266732570322,1120.561015493924,"[29, 0, 225]",225,a,0.6076756752518122,colour,0.06
77,78,1,2,11,45,545,1121.0777035595856,1122.1850243791014,"[91, 0, 163]",163,l,0.5964380518780672,colour,0.06
77,78,1,2,11,46,546,1122.6818988129453,1124.4410616527384,"[60, 0, 194]",194,l,1.2317444251020788,colour,0.06
77,78,1,2,11,47,547,1124.9584019282738,1126.5050947988639,"[63, 0, 191]",191,l,1.0197246224997798,colour,0.06
77,78,1,2,11,48,548,1127.0042433026392,1128.1210054114526,"[76, 0, 178]",178,l,0.6051412727574643,colour,0.06
77,78,1,2,11,49,549,1128.6355726134861,1129.9770552881782,"[74, 0, 180]",180,l,0.813881909052725,colour,0.06
77,78,1,2,11,50,550,1130.4905283845183,1132.4410100588393,"[65, 0, 189]",189,l,1.4235933770760312,colour,0.06
77,78,1,2,12,1,551,1137.2168121273207,1138.3370042456663,"[90, 0, 164]",164,l,0.5923916725114395,colour,0.06
77,78,1,2,12,2,552,1138.853168101581,1139.7450111458566,"[95, 0, 159]",159,l,0.3801115373389621,colour,0.06
77,78,1,2,12,3,553,1140.2536706497667,1141.337027482612,"[79, 0, 175]",175,l,0.5566244988294784,colour,0.06
77,78,1,2,12,4,554,1141.8576737060175,1142.8250596677499,"[69, 0, 185]",185,l,0.44181311193824513,colour,0.06
77,78,1,2,12,5,555,1143.3321548131971,1143.977036777389,"[75, 0, 179]",179,l,0.11824730411899509,colour,0.06
77,78,1,2,12,6,556,1144.495219884524,1145.2010306964003,"[24, 0, 230]",230,a,0.17987522941621137,colour,0.06
77,78,1,2,12,7,557,1145.7204764755443,1146.5930265531351,"[64, 0, 190]",190,l,0.3458350728251389,colour,0.06
77,78,1,2,12,8,558,1147.090212125746,1148.153031436832,"[58, 0, 196]",196,a,0.5392062416794943,colour,0.06
77,78,1,2,12,9,559,1148.660143517678,1149.209024599655,"[97, 0, 157]",157,l,0.02781856277579209,colour,0.06
77,78,1,2,12,10,560,1149.708989153467,1150.4331012264374,"[89, 0, 165]",165,l,0.21257473238074454,colour,0.06
77,78,1,2,12,11,561,1150.9353662378999,1152.1289882870042,"[99, 0, 155]",155,l,0.6817865666816942,colour,0.06
77,78,1,2,12,12,562,1152.6342843414495,1158.6090517750672,"[55, 0, 199]",199,l,5.45190503572303,colour,0.06
77,78,1,2,12,13,563,1159.1203441431062,1161.2250561231303,"[60, 0, 194]",194,a,1.5780966184320278,colour,0.06
77,78,1,2,12,14,564,1161.743299094942,1162.4250403692713,"[85, 0, 169]",169,l,0.15455010909499833,colour,0.06
77,78,1,2,12,15,565,1162.938252345357,1164.0410561388853,"[67, 0, 187]",187,l,0.5762463273822505,colour,0.06
77,78,1,2,12,16,566,1164.5460264822395,1165.1290323978174,"[84, 0, 170]",170,a,0.07150559655929101,colour,0.06
77,78,1,2,12,17,567,1165.6326010413286,1166.6650752640744,"[92, 0, 162]",162,l,0.5124487014873012,colour,0.06
77,78,1,2,12,18,568,1167.1694635022395,1168.233047663307,"[59, 0, 195]",195,a,0.5369286271270539,colour,0.06
77,78,1,2,12,19,569,1168.7494198640452,1169.8810496798033,"[73, 0, 181]",181,l,0.6200873551642871,colour,0.06
77,78,1,2,12,20,570,1170.3863941773707,1171.4170574937161,"[72, 0, 182]",182,l,0.5192394035584584,colour,0.06
77,78,1,2,12,21,571,1171.9249619938091,1172.5690724126252,"[83, 0, 171]",171,l,0.11767150047671748,colour,0.06
77,78,1,2,12,22,572,1173.0768221310245,1175.5450564382081,"[76, 0, 178]",178,l,1.9571762778323318,colour,0.06
77,78,1,2,12,23,573,1176.0473836774254,1177.2650957440928,"[65, 0, 189]",189,a,0.7054980977191008,colour,0.06
77,78,1,2,12,24,574,1177.7626223878142,1178.8571506778098,"[51, 0, 203]",203,a,0.5838022732823447,colour,0.06
77,78,1,2,12,25,575,1179.3562857908037,1180.4891440139254,"[62, 0, 192]",192,a,0.6070782100468932,colour,0.06
77,78,1,2,12,26,576,1181.0072668625398,1182.1690854095614,"[52, 0, 202]",202,a,0.6503851819179545,colour,0.06
77,78,1,2,12,27,577,1182.6818326467255,1183.697056390949,"[68, 0, 186]",186,l,0.4921482753488817,colour,0.06
77,78,1,2,12,28,578,1184.2041515363962,1185.6650520271287,"[77, 0, 177]",177,l,0.9467724275928049,colour,0.06
77,78,1,2,12,29,579,1186.1779071782476,1187.2250667569897,"[96, 0, 158]",158,l,0.5238607988794683,colour,0.06
77,78,1,2,12,30,580,1187.7289969516278,1188.6410498373407,"[81, 0, 173]",173,l,0.39173237339855405,colour,0.06
77,78,1,2,12,31,581,1189.160685056675,1190.3690747757028,"[44, 0, 210]",210,a,0.6878762219057535,colour,0.06
77,78,1,2,12,32,582,1190.8902877442815,1191.9530700337928,"[53, 0, 201]",201,a,0.5414440777312848,colour,0.06
77,78,1,2,12,33,583,1192.4643903649376,1193.2571380747213,"[78, 0, 176]",176,l,0.2689436248074344,colour,0.06
77,78,1,2,12,34,584,1193.7689361417215,1194.5850716406858,"[50, 0, 204]",204,a,0.2950272935668181,colour,0.06
77,78,1,2,12,35,585,1195.0922857277874,1196.433118555684,"[70, 0, 184]",184,l,0.8204221247215173,colour,0.06
77,78,1,2,12,36,586,1196.9441182957453,1198.4571376808744,"[82, 0, 172]",172,a,0.9925106141636206,colour,0.06
77,78,1,2,12,37,587,1198.9657377139556,1200.6890837554056,"[47, 0, 207]",207,l,1.200233551000565,colour,0.06
77,78,1,2,12,38,588,1201.208463762181,1204.1131532929503,"[54, 0, 200]",200,l,2.3840196765740984,colour,0.06
77,78,1,2,12,39,589,1204.6307885595452,1205.833042937149,"[61, 0, 193]",193,a,0.6809996612901159,colour,0.06
77,78,1,2,12,40,590,1206.3429694453844,1207.1450714043785,"[87, 0, 167]",167,l,0.2813883878297929,colour,0.06
77,78,1,2,12,41,591,1207.6519093680326,1208.9770982174487,"[57, 0, 197]",197,a,0.8039959670095413,colour,0.06
77,78,1,2,12,42,592,1209.48871196427,1212.937111765772,"[63, 0, 191]",191,l,2.9270611958745576,colour,0.06
77,78,1,2,12,43,593,1213.4583404882105,1214.8011661796081,"[56, 0, 198]",198,a,0.8220573755643272,colour,0.06
77,78,1,2,12,44,594,1215.301805786392,1216.4811560183698,"[74, 0, 180]",180,l,0.6613033957473817,colour,0.06
77,78,1,2,12,45,595,1216.9944412499099,1218.3050944050156,"[71, 0, 183]",183,l,0.7893956818661536,colour,0.06
77,78,1,2,12,46,596,1218.816364323804,1220.2891873370463,"[88, 0, 166]",166,l,0.9521964821615256,colour,0.06
77,78,1,2,12,47,597,1220.7844729939425,1222.1611462509754,"[98, 0, 156]",156,l,0.8588741502753692,colour,0.06
77,78,1,2,12,48,598,1222.6779036336266,1223.721132230039,"[80, 0, 174]",174,l,0.5325612628294039,colour,0.06
77,78,1,2,12,49,599,1224.2357175490142,1225.6171023922252,"[91, 0, 163]",163,l,0.8608890691830311,colour,0.06
77,78,1,2,12,50,600,1226.1342611045038,1227.3931061101357,"[94, 0, 160]",160,l,0.7383921608779929,colour,0.06
77,78,1,2,13,1,601,1232.1277713011914,1233.1611281340338,"[71, 0, 183]",183,l,0.5119504856120329,colour,0.06
77,78,1,2,13,2,602,1233.6695024930486,1234.713094609815,"[60, 0, 194]",194,l,0.532196560932789,colour,0.06
77,78,1,2,13,3,603,1235.2234563184793,1235.8890861184846,"[89, 0, 165]",165,l,0.1385847518358787,colour,0.06
77,78,1,2,13,4,604,1236.4027191165223,1237.4251092924133,"[75, 0, 179]",179,l,0.49537466621404747,colour,0.06
77,78,1,2,13,5,605,1237.943648830671,1238.8491134514334,"[12, 0, 242]",242,a,0.3946657424385194,colour,0.06
77,78,1,2,13,6,606,1239.3734389892306,1240.3291005332685,"[53, 0, 201]",201,a,0.4441884004336316,colour,0.06
77,78,1,2,13,7,607,1240.8493347931908,1241.4971253140939,"[54, 0, 200]",200,a,0.12112317156788777,colour,0.06
77,78,1,2,13,8,608,1242.0131454160182,1242.6491051806588,"[22, 0, 232]",232,a,0.10941490158074885,colour,0.06
77,78,1,2,13,9,609,1243.1617126023011,1243.9691031326547,"[68, 0, 186]",186,l,0.2826475152214698,colour,0.06
77,78,1,2,13,10,610,1244.4790824163283,1245.1291852102731,"[95, 0, 159]",159,l,0.12372492182112182,colour,0.06
77,78,1,2,13,11,611,1245.6328625554343,1246.3290898994128,"[69, 0, 185]",185,l,0.1700826290070836,colour,0.06
77,78,1,2,13,12,612,1246.84353579671,1250.1451391459814,"[74, 0, 180]",180,l,2.7765637676930055,colour,0.06
77,78,1,2,13,13,613,1250.6477633454888,1251.9051877466445,"[90, 0, 164]",164,l,0.7336207100233878,colour,0.06
77,78,1,2,13,14,614,1252.4207068757714,1253.4971205879338,"[58, 0, 196]",196,a,0.5499358030137955,colour,0.06
77,78,1,2,13,15,615,1253.994415649886,1255.0891463770058,"[77, 0, 177]",177,l,0.5834226052174927,colour,0.06
77,78,1,2,13,16,616,1255.5830909864271,1256.6331146172197,"[84, 0, 170]",170,l,0.5269627342386229,colour,0.06
77,78,1,2,13,17,617,1257.1530129260427,1258.2171256291695,"[63, 0, 191]",191,a,0.5528223043183971,colour,0.06
77,78,1,2,13,18,618,1258.7263668444211,1259.7371381534904,"[81, 0, 173]",173,l,0.5000035446209949,colour,0.06
77,78,1,2,13,19,619,1260.2491618945605,1260.9851697084741,"[52, 0, 202]",202,a,0.20792379857084597,colour,0.06
77,78,1,2,13,20,620,1261.4914295054077,1262.3371720242903,"[97, 0, 157]",157,l,0.31882862161364756,colour,0.06
77,78,1,2,13,21,621,1262.8578682662082,1263.7851263853554,"[70, 0, 184]",184,a,0.40046080045431154,colour,0.06
77,78,1,2,13,22,622,1264.2894894173442,1265.2172193646475,"[57, 0, 197]",197,a,0.4169480043819931,colour,0.06
77,78,1,2,13,23,623,1265.735531259601,1266.5691578773258,"[76, 0, 178]",178,a,0.3223897820462298,colour,0.06
77,78,1,2,13,24,624,1267.0860794939872,1267.7451485983001,"[82, 0, 172]",172,l,0.13233322568339645,colour,0.06
77,78,1,2,13,25,625,1268.2666010255743,1269.313230880718,"[61, 0, 193]",193,a,0.5199565981092746,colour,0.06
77,78,1,2,13,26,626,1269.8084168944406,1270.8011122226344,"[99, 0, 155]",155,l,0.4655325199091749,colour,0.06
77,78,1,2,13,27,627,1271.3158696525497,1272.4251404062925,"[80, 0, 174]",174,l,0.5824950966125471,colour,0.06
77,78,1,2,13,28,628,1272.9347534126791,1273.7851342622853,"[73, 0, 181]",181,l,0.33885256748544634,colour,0.06
77,78,1,2,13,29,629,1274.3032968894004,1275.2491634699436,"[72, 0, 182]",182,l,0.4345690924965311,colour,0.06
77,78,1,2,13,30,630,1275.7633057115636,1276.585179160793,"[79, 0, 175]",175,l,0.2947890164105047,colour,0.06
77,78,1,2,13,31,631,1277.0871838396888,1277.945171441399,"[92, 0, 162]",162,l,0.33486329586594366,colour,0.06
77,78,1,2,13,32,632,1278.4555768670289,1279.2011417611247,"[78, 0, 176]",176,l,0.23397359652881278,colour,0.06
77,78,1,2,13,33,633,1279.6979858687846,1280.4091525997792,"[51, 0, 203]",203,a,0.199589611900592,colour,0.06
77,78,1,2,13,34,634,1280.9088268886917,1281.633121706458,"[59, 0, 195]",195,a,0.19805361039107083,colour,0.06
77,78,1,2,13,35,635,1282.1342941876137,1282.881217458431,"[64, 0, 190]",190,a,0.23515592384865158,colour,0.06
77,78,1,2,13,36,636,1283.37711082054,1284.601180358084,"[88, 0, 166]",166,l,0.7122604428404884,colour,0.06
77,78,1,2,13,37,637,1285.109305806087,1286.80114806267,"[94, 0, 160]",160,l,1.1813182831465383,colour,0.06
77,78,1,2,13,38,638,1287.308100241822,1291.721226359361,"[55, 0, 199]",199,l,3.8875635077565676,colour,0.06
77,78,1,2,13,39,639,1292.2391341677612,1294.9691803265778,"[83, 0, 171]",171,l,2.2045083613629686,colour,0.06
77,78,1,2,13,40,640,1295.477485762447,1296.6571526470434,"[96, 0, 158]",158,l,0.6564330894107115,colour,0.06
77,78,1,2,13,41,641,1297.1725701637624,1298.4332024449977,"[85, 0, 169]",169,l,0.7338696210390481,colour,0.06
77,78,1,2,13,42,642,1298.9441805235,1300.1611746079252,"[87, 0, 167]",167,l,0.6906362984736916,colour,0.06
77,78,1,2,13,43,643,1300.673660724835,1301.9372200735706,"[50, 0, 204]",204,a,0.7523894669684523,colour,0.06
77,78,1,2,13,44,644,1302.4496947689295,1304.2171752538343,"[93, 0, 161]",161,l,1.256292486195889,colour,0.06
77,78,1,2,13,45,645,1304.7142470047984,1305.921229903979,"[65, 0, 189]",189,a,0.6813714524250827,colour,0.06
77,78,1,2,13,46,646,1306.4266882232005,1308.1132080376192,"[56, 0, 198]",198,a,1.1630851574991539,colour,0.06
77,78,1,2,13,47,647,1308.6233220168106,1310.9771927406218,"[67, 0, 187]",187,a,1.8423286570650816,colour,0.06
77,78,1,2,13,48,648,1311.4834430852352,1312.9131922837587,"[86, 0, 168]",168,l,0.9189463817310752,colour,0.06
77,78,1,2,13,49,649,1313.4168842012405,1314.8892113616857,"[98, 0, 156]",156,l,0.9605184595893661,colour,0.06
77,78,1,2,13,50,650,1315.396486888847,1316.617157530738,"[30, 0, 224]",224,a,0.7087638732446067,colour,0.06
77,78,1,2,14,1,651,1321.512300615188,1322.8652300457652,"[64, 0, 190]",190,a,0.8408206186541065,colour,0.06
77,78,1,2,14,2,652,1323.382945263209,1324.5931876363684,"[79, 0, 175]",175,l,0.6824679211968032,colour,0.06
77,78,1,2,14,3,653,1325.0974399974803,1326.3612072971882,"[69, 0, 185]",185,l,0.7521799406094942,colour,0.06
77,78,1,2,14,4,654,1326.8590387781296,1327.969170086566,"[96, 0, 158]",158,l,0.5984604538680287,colour,0.06
77,78,1,2,14,5,655,1328.4760620071975,1329.2011886288637,"[92, 0, 162]",162,l,0.19805715501206578,colour,0.06
77,78,1,2,14,6,656,1329.7179278945732,1330.8572270840377,"[60, 0, 194]",194,a,0.6124589414976072,colour,0.06
77,78,1,2,14,7,657,1331.368414688899,1332.441203043647,"[65, 0, 189]",189,a,0.5463447102483769,colour,0.06
77,78,1,2,14,8,658,1332.9418434381223,1333.8492107315287,"[71, 0, 183]",183,l,0.395892574415484,colour,0.06
77,78,1,2,14,9,659,1334.371140894662,1335.7852736839632,"[70, 0, 184]",184,l,0.9029715721590037,colour,0.06
77,78,1,2,14,10,660,1336.3064673540612,1337.4571936070824,"[82, 0, 172]",172,l,0.6269308326700411,colour,0.06
77,78,1,2,14,11,661,1337.9547486077536,1339.0891885185847,"[13, 0, 241]",241,a,0.622975825699541,colour,0.06
77,78,1,2,14,12,662,1339.5918528904404,1340.849254842342,"[77, 0, 177]",177,l,0.7341122305078898,colour,0.06
77,78,1,2,14,13,663,1341.3560297905533,1342.4892153001492,"[88, 0, 166]",166,l,0.6093589753691049,colour,0.06
77,78,1,2,14,14,664,1343.00813686955,1344.1612124171952,"[63, 0, 191]",191,a,0.6263825982859998,colour,0.06
77,78,1,2,14,15,665,1344.6592676029722,1345.945236032232,"[52, 0, 202]",202,a,0.774461021006573,colour,0.06
77,78,1,2,14,16,666,1346.4520775405072,1351.3212787409502,"[66, 0, 188]",188,l,4.357639835212467,colour,0.06
77,78,1,2,14,17,667,1351.8275546855912,1353.6972485880615,"[84, 0, 170]",170,l,1.3464959473203635,colour,0.06
77,78,1,2,14,18,668,1354.212932345039,1355.3612458941498,"[87, 0, 167]",167,l,0.6212184824289579,colour,0.06
77,78,1,2,14,19,669,1355.8800855434674,1356.9452080691262,"[97, 0, 157]",157,l,0.5390821800174308,colour,0.06
77,78,1,2,14,20,670,1357.4533047663317,1358.9852402070064,"[56, 0, 198]",198,a,1.0203957370067656,colour,0.06
77,78,1,2,14,21,671,1359.488662339605,1360.2332126850088,"[50, 0, 204]",204,a,0.23280308460743981,colour,0.06
77,78,1,2,14,22,672,1360.7466058305035,1361.9372370089732,"[74, 0, 180]",180,l,0.6636152749451867,colour,0.06
77,78,1,2,14,23,673,1362.4450694351435,1364.9213114302147,"[58, 0, 196]",196,a,1.9632056745431328,colour,0.06
77,78,1,2,14,24,674,1365.4263802352034,1366.5453526108067,"[99, 0, 155]",155,l,0.6073310595238581,colour,0.06
77,78,1,2,14,25,675,1367.058643356202,1368.089268075586,"[51, 0, 203]",203,a,0.5013851582843927,colour,0.06
77,78,1,2,14,26,676,1368.5872952982609,1369.2818519452085,"[61, 0, 193]",193,a,0.18303466637371457,colour,0.06
77,78,1,2,14,27,677,1369.7860704355153,1371.6732605767502,"[67, 0, 187]",187,a,1.3754062527077622,colour,0.06
77,78,1,2,14,28,678,1372.1763518782536,1373.4572329917355,"[54, 0, 200]",200,a,0.7691626034829824,colour,0.06
77,78,1,2,14,29,679,1373.9534634864867,1374.6335116145347,"[55, 0, 199]",199,a,0.1687837231111189,colour,0.06
77,78,1,2,14,30,680,1375.1364308051016,1376.0973982497453,"[72, 0, 182]",182,a,0.44925129772309447,colour,0.06
77,78,1,2,14,31,681,1376.6046985892426,1381.5933183934212,"[85, 0, 169]",169,l,4.470730900411581,colour,0.06
77,78,1,2,14,32,682,1382.1065457295226,1382.8013371090092,"[78, 0, 176]",176,l,0.173933660487819,colour,0.06
77,78,1,2,14,33,683,1383.3076292013575,1386.4333099651049,"[83, 0, 171]",171,l,2.604384693546308,colour,0.06
77,78,1,2,14,34,684,1386.941807204239,1388.185313068614,"[21, 0, 233]",233,a,0.7229258071856748,colour,0.06
77,78,1,2,14,35,685,1388.702666341087,1390.0172426015924,"[57, 0, 197]",197,a,0.7907221570203546,colour,0.06
77,78,1,2,14,36,686,1390.536371728118,1391.6252810095066,"[68, 0, 186]",186,a,0.5680881901171233,colour,0.06
77,78,1,2,14,37,687,1392.139105810813,1393.3292954873068,"[94, 0, 160]",160,l,0.6667778626760992,colour,0.06
77,78,1,2,14,38,688,1393.8374863138306,1395.2092656337372,"[75, 0, 179]",179,l,0.8507640622883628,colour,0.06
77,78,1,2,14,39,689,1395.7088276763825,1397.4892893432989,"[76, 0, 178]",178,l,1.263330523892364,colour,0.06
77,78,1,2,14,40,690,1398.0074641796564,1401.4333442297539,"[86, 0, 168]",168,l,2.9032106370068504,colour,0.06
77,78,1,2,14,41,691,1401.9485211062347,1402.6572920687177,"[89, 0, 165]",165,l,0.18814561294129817,colour,0.06
77,78,1,2,14,42,692,1403.1623451198466,1403.8172678077717,"[93, 0, 161]",161,l,0.13352421762465383,colour,0.06
77,78,1,2,14,43,693,1404.3301926697277,1406.121326002536,"[98, 0, 156]",156,l,1.2799516356462846,colour,0.06
77,78,1,2,14,44,694,1406.6231491181788,1407.8413401022408,"[62, 0, 192]",192,a,0.7004470158244658,colour,0.06
77,78,1,2,14,45,695,1408.3630020558776,1409.377311682274,"[90, 0, 164]",164,l,0.493865840111539,colour,0.06
77,78,1,2,14,46,696,1409.8872476428296,1410.9293195119462,"[73, 0, 181]",181,l,0.5207848573882075,colour,0.06
77,78,1,2,14,47,697,1411.4452021614306,1412.2653139350768,"[91, 0, 163]",163,l,0.2992083684512181,colour,0.06
77,78,1,2,14,48,698,1412.7814766094525,1413.9132891700065,"[80, 0, 174]",174,l,0.6084669129522808,colour,0.06
77,78,1,2,14,49,699,1414.4329708632322,1415.4253046402991,"[81, 0, 173]",173,l,0.47174229833035497,colour,0.06
77,78,1,2,14,50,700,1415.941993493656,1417.1213004025121,"[20, 0, 234]",234,a,0.6574125857623585,colour,0.06
77,78,1,2,15,1,701,1450.3124920246082,1453.5133147700326,"[89, 0, 165]",165,l,2.6787653698629583,colour,0.06
77,78,1,2,15,2,702,1454.031250147691,1455.2973828897302,"[97, 0, 157]",157,l,0.7432155994720233,colour,0.06
77,78,1,2,15,3,703,1455.7954664324607,1456.9453234661632,"[99, 0, 155]",155,l,0.6324064811378776,colour,0.06
77,78,1,2,15,4,704,1457.4579702724623,1458.385317794775,"[93, 0, 161]",161,l,0.4066512803947262,colour,0.06
77,78,1,2,15,5,705,1458.9050341464936,1460.0252959756763,"[64, 0, 190]",190,a,0.5969079108035658,colour,0.06
77,78,1,2,15,6,706,1460.5404110182499,1461.6654151536386,"[91, 0, 163]",163,l,0.6042271549304132,colour,0.06
77,78,1,2,15,7,707,1462.1893850480083,1463.3293289642606,"[69, 0, 185]",185,a,0.6193232928708312,colour,0.06
77,78,1,2,15,8,708,1463.838733625831,1464.777333737682,"[79, 0, 175]",175,l,0.41690625664705294,colour,0.06
77,78,1,2,15,9,709,1465.287527273871,1466.529345899664,"[98, 0, 156]",156,l,0.7206647341918142,colour,0.06
77,78,1,2,15,10,710,1467.04613715312,1468.153365024853,"[54, 0, 200]",200,a,0.5862134018134384,colour,0.06
77,78,1,2,15,11,711,1468.6641812324233,1470.0493422762738,"[83, 0, 171]",171,l,0.8743672855307523,colour,0.06
77,78,1,2,15,12,712,1470.5642800879068,1471.7214173749344,"[94, 0, 160]",160,l,0.6359731554221071,colour,0.06
77,78,1,2,15,13,713,1472.219341409811,1473.2174158940725,"[76, 0, 178]",178,l,0.4800327680350165,colour,0.06
77,78,1,2,15,14,714,1473.7401475349143,1474.8173457893863,"[30, 0, 224]",224,a,0.5561266768017958,colour,0.06
77,78,1,2,15,15,715,1475.3262400258354,1476.1293506258226,"[84, 0, 170]",170,l,0.2916473025470623,colour,0.06
77,78,1,2,15,16,716,1476.6345088339767,1478.529386465856,"[59, 0, 195]",195,a,1.3736118878623529,colour,0.06
77,78,1,2,15,17,717,1479.047158791047,1480.6973576835517,"[77, 0, 177]",177,l,1.1288181452982826,colour,0.06
77,78,1,2,15,18,718,1481.2119752979452,1482.7533406063667,"[90, 0, 164]",164,l,1.0208935590344481,colour,0.06
77,78,1,2,15,19,719,1483.2651839657192,1484.5693583452157,"[53, 0, 201]",201,a,0.7835387899467605,colour,0.06
77,78,1,2,15,20,720,1485.086968011783,1486.3693599206017,"[81, 0, 173]",173,l,0.7610044662214932,colour,0.06
77,78,1,2,15,21,721,1486.8771415405681,1488.3373677660238,"[67, 0, 187]",187,l,0.9494852425705176,colour,0.06
77,78,1,2,15,22,722,1488.8547517585248,1490.4653714366723,"[68, 0, 186]",186,l,1.0891404693065851,colour,0.06
77,78,1,2,15,23,723,1490.972714311596,1492.537396516822,"[95, 0, 159]",159,l,1.0440111694879306,colour,0.06
77,78,1,2,15,24,724,1493.0565059510227,1494.5533918064175,"[50, 0, 204]",204,a,0.985748269045871,colour,0.06
77,78,1,2,15,25,725,1495.064397848022,1496.305400817626,"[66, 0, 188]",188,a,0.7140106968727196,colour,0.06
77,78,1,2,15,26,726,1496.8249210337672,1498.2253700188267,"[58, 0, 196]",196,a,0.8893121864020941,colour,0.06
77,78,1,2,15,27,727,1498.7414003607628,1500.3533780217876,"[85, 0, 169]",169,l,1.085355604041979,colour,0.06
77,78,1,2,15,28,728,1500.8488562696439,1502.3133888131815,"[61, 0, 193]",193,a,0.9413944530642766,colour,0.06
77,78,1,2,15,29,729,1502.813058375934,1504.129418761273,"[55, 0, 199]",199,a,0.8046166691601684,colour,0.06
77,78,1,2,15,30,730,1504.6370834088193,1506.5534150433632,"[65, 0, 189]",189,a,1.4048045339623059,colour,0.06
77,78,1,2,15,31,731,1507.0582132757772,1508.1694012744883,"[88, 0, 166]",166,l,0.6007553976669442,colour,0.06
77,78,1,2,15,32,732,1508.675392468078,1509.4573854103473,"[82, 0, 172]",172,l,0.2552487928587652,colour,0.06
77,78,1,2,15,33,733,1509.963598339542,1512.01739305097,"[75, 0, 179]",179,l,1.5265149307197134,colour,0.06
77,78,1,2,15,34,734,1512.5127815018168,1514.1774266854663,"[80, 0, 174]",174,l,1.141255031390756,colour,0.06
77,78,1,2,15,35,735,1514.6969772277916,1516.0733751860935,"[62, 0, 192]",192,a,0.8491347191484238,colour,0.06
77,78,1,2,15,36,736,1516.572342126612,1517.9133718777812,"[41, 0, 213]",213,l,0.8143903649397544,colour,0.06
77,78,1,2,15,37,737,1518.4262695643265,1519.7214488826576,"[56, 0, 198]",198,a,0.768329224199988,colour,0.06
77,78,1,2,15,38,738,1520.2339243657116,1521.4253786834488,"[78, 0, 176]",176,l,0.6648350176837994,colour,0.06
77,78,1,2,15,39,739,1521.9344013138725,1522.9374166029957,"[70, 0, 184]",184,l,0.49147519160760567,colour,0.06
77,78,1,2,15,40,740,1523.4447878348692,1524.4734295369162,"[16, 0, 238]",238,a,0.5045178136788309,colour,0.06
77,78,1,2,15,41,741,1524.9836344946561,1526.0893842603182,"[52, 0, 202]",202,a,0.5942384189438599,colour,0.06
77,78,1,2,15,42,742,1526.6029593629137,1527.785536773452,"[96, 0, 158]",158,l,0.6595740155826206,colour,0.06
77,78,1,2,15,43,743,1528.2977570439434,1529.4174257402337,"[86, 0, 168]",168,l,0.5929363622744859,colour,0.06
77,78,1,2,15,44,744,1529.9323422841517,1530.8253696249776,"[92, 0, 162]",162,l,0.3815601049209363,colour,0.06
77,78,1,2,15,45,745,1531.345698801917,1532.2173918694316,"[51, 0, 203]",203,a,0.3452659645699896,colour,0.06
77,78,1,2,15,46,746,1532.7164265515567,1533.625417280411,"[73, 0, 181]",181,l,0.38595385694134166,colour,0.06
77,78,1,2,15,47,747,1534.1301855804886,1534.841419659242,"[87, 0, 167]",167,a,0.19955259032576578,colour,0.06
77,78,1,2,15,48,748,1535.344086000332,1536.1693717359958,"[60, 0, 194]",194,l,0.3133013792503334,colour,0.06
77,78,1,2,15,49,749,1536.6820126345956,1537.441626822525,"[57, 0, 197]",197,a,0.24844036769718514,colour,0.06
77,78,1,2,15,50,750,1537.954564287571,1538.7374886769103,"[74, 0, 180]",180,a,0.2566040188103216,colour,0.06
77,78,1,2,16,1,751,1543.6663284837705,1544.8574153426853,"[60, 0, 194]",194,a,0.6663757453534345,colour,0.06
77,78,1,2,16,2,752,1545.3775609871373,1546.5854398872034,"[64, 0, 190]",190,a,0.6811552306789963,colour,0.06
77,78,1,2,16,3,753,1547.1069923514988,1547.881411624774,"[56, 0, 198]",198,a,0.2632375761095318,colour,0.06
77,78,1,2,16,4,754,1548.3954813986275,1549.4413913022909,"[63, 0, 191]",191,a,0.519008215636859,colour,0.06
77,78,1,2,16,5,755,1549.93791600041,1550.7694217545068,"[62, 0, 192]",192,a,0.32071554039794137,colour,0.06
77,78,1,2,16,6,756,1551.273262545983,1552.0974356651677,"[65, 0, 189]",189,a,0.31248966152998037,colour,0.06
77,78,1,2,16,7,757,1552.6087461501484,1553.3374725292051,"[89, 0, 165]",165,l,0.21761518042330863,colour,0.06
77,78,1,2,16,8,758,1553.848695186407,1556.6494214394297,"[67, 0, 187]",187,l,2.285986152353871,colour,0.06
77,78,1,2,16,9,759,1557.1554059376285,1558.1854209825688,"[75, 0, 179]",179,l,0.5061885107097623,colour,0.06
77,78,1,2,16,10,760,1558.6957464573497,1560.1854469764403,"[57, 0, 197]",197,l,0.9698092995058687,colour,0.06
77,78,1,2,16,11,761,1560.6992733531297,1561.2734007861181,"[71, 0, 183]",183,l,0.047566422221279936,colour,0.06
77,78,1,2,16,12,762,1561.7840945074167,1562.9854548533694,"[74, 0, 180]",180,l,0.6901632887747837,colour,0.06
77,78,1,2,16,13,763,1563.4858439737545,1564.7214287964816,"[92, 0, 162]",162,l,0.7205316140607465,colour,0.06
77,78,1,2,16,14,764,1565.2284928280533,1566.4974762313614,"[70, 0, 184]",184,l,0.7550660480665101,colour,0.06
77,78,1,2,16,15,765,1567.0079954786415,1567.5534607295594,"[94, 0, 160]",160,l,0.024262916194857098,colour,0.06
77,78,1,2,16,16,766,1568.0683898765674,1570.801488346082,"[69, 0, 185]",185,a,2.212235236664128,colour,0.06
77,78,1,2,16,17,767,1571.3116161098988,1572.873615826331,"[72, 0, 182]",182,l,1.0419257520516112,colour,0.06
77,78,1,2,16,18,768,1573.3847931911805,1575.9534548218617,"[81, 0, 173]",173,l,2.0446881916905113,colour,0.06
77,78,1,2,16,19,769,1576.4749501784136,1577.7294223058925,"[51, 0, 203]",203,a,0.7332847589277662,colour,0.06
77,78,1,2,16,20,770,1578.2353351240235,1579.4094235662014,"[80, 0, 174]",174,l,0.6498349782996229,colour,0.06
77,78,1,2,16,21,771,1579.9217482060303,1581.0734535615557,"[84, 0, 170]",170,l,0.6308980488865927,colour,0.06
77,78,1,2,16,22,772,1581.588917552166,1582.7854359487355,"[93, 0, 161]",161,l,0.6721282679391152,colour,0.06
77,78,1,2,16,23,773,1583.29427268359,1584.6414901577737,"[87, 0, 167]",167,l,0.827969406000193,colour,0.06
77,78,1,2,16,24,774,1585.146139122353,1586.4414744039132,"[54, 0, 200]",200,a,0.7720999109915283,colour,0.06
77,78,1,2,16,25,775,1586.9423743432599,1587.9375233354076,"[59, 0, 195]",195,a,0.4740809590948629,colour,0.06
77,78,1,2,16,26,776,1588.4535414681013,1589.6894476696107,"[53, 0, 201]",201,a,0.7150461194323725,colour,0.06
77,78,1,2,16,27,777,1590.199962978426,1591.497460477498,"[58, 0, 196]",196,a,0.7752262648355099,colour,0.06
77,78,1,2,16,28,778,1592.0098347419917,1593.2254487881328,"[91, 0, 163]",163,l,0.6947669610017329,colour,0.06
77,78,1,2,16,29,779,1593.7404058982465,1594.7694729545583,"[40, 0, 214]",214,a,0.5183371011335112,colour,0.06
77,78,1,2,16,30,780,1595.2838381133188,1596.3775153009374,"[90, 0, 164]",164,l,0.5697234409562952,colour,0.06
77,78,1,2,16,31,781,1596.891795388845,1597.9854899057136,"[97, 0, 157]",157,l,0.5722665080793377,colour,0.06
77,78,1,2,16,32,782,1598.4864469528075,1599.6734638015623,"[61, 0, 193]",193,a,0.669264609736274,colour,0.06
77,78,1,2,16,33,783,1600.1824616196536,1601.5454183831826,"[48, 0, 206]",206,a,0.8399545501124521,colour,0.06
77,78,1,2,16,34,784,1602.0551487558369,1603.4254909297124,"[83, 0, 171]",171,l,0.84909021448766,colour,0.06
77,78,1,2,16,35,785,1603.9416075240442,1605.4094657077803,"[77, 0, 177]",177,l,0.9450158720137551,colour,0.06
77,78,1,2,16,36,786,1605.928928028483,1607.1695280930726,"[95, 0, 159]",159,l,0.719734468661045,colour,0.06
77,78,1,2,16,37,787,1607.6877675202632,1612.761492442085,"[98, 0, 156]",156,l,4.550382818837534,colour,0.06
77,78,1,2,16,38,788,1613.2741211314424,1614.345462887839,"[76, 0, 178]",178,l,0.5500819200788101,colour,0.06
77,78,1,2,16,39,789,1614.86325254228,1615.897473868281,"[17, 0, 237]",237,a,0.5107283797951823,colour,0.06
77,78,1,2,16,40,790,1616.4209593314044,1617.4655742676405,"[52, 0, 202]",202,a,0.523430324607034,colour,0.06
77,78,1,2,16,41,791,1617.9767520263413,1619.0415078808692,"[96, 0, 158]",158,l,0.5413101699050458,colour,0.06
77,78,1,2,16,42,792,1619.5500382031132,1620.6014655029794,"[78, 0, 176]",176,l,0.5306660732712771,colour,0.06
77,78,1,2,16,43,793,1621.1207521681245,1622.3134805794252,"[73, 0, 181]",181,l,0.6719132277285098,colour,0.06
77,78,1,2,16,44,794,1622.832683749104,1623.977510968627,"[99, 0, 155]",155,l,0.6245598764908209,colour,0.06
77,78,1,2,16,45,795,1624.4875016738479,1625.5934692366463,"[88, 0, 166]",166,l,0.5853548163504456,colour,0.06
77,78,1,2,16,46,796,1626.1062121415016,1627.2735547801167,"[50, 0, 204]",204,a,0.6465770797076402,colour,0.06
77,78,1,2,16,47,797,1627.786201586412,1629.0335490299549,"[68, 0, 186]",186,l,0.7255015635710151,colour,0.06
77,78,1,2,16,48,798,1629.545777965075,1630.6575646105266,"[66, 0, 188]",188,a,0.5887923089649121,colour,0.06
77,78,1,2,16,49,799,1631.1657857632345,1632.505515820816,"[86, 0, 168]",168,l,0.8196178900871018,colour,0.06
77,78,1,2,16,50,800,1633.0174509464123,1634.1294880782661,"[85, 0, 169]",169,l,0.5855816719595168,colour,0.06
