id,age,condition,counterbalance,block,trialinblock,trial,tstart,tend,trialstim,trialintensity,response,RT,trialtype,colourfreq
025,67,0,1,Practice,1,NA,5.907728336751461e-06,3.7702677049674094,"[67, 0, 187]",187,a,3.2309819681104273,colour,0.5
025,67,0,1,Practice,2,NA,4.282045273343101,24.938283556490205,"[72, 0, 182]",182,l,20.13305139215663,colour,0.5
025,67,0,1,Practice,3,NA,25.456198032014072,26.642224063631147,"[66, 0, 188]",188,a,0.6626552146626636,colour,0.5
025,67,0,1,Practice,4,NA,27.159300435101613,28.250242609065026,"[44, 0, 210]",210,a,0.5675449692644179,colour,0.5
025,67,0,1,Practice,5,NA,28.769119644071907,29.402230506995693,"[45, 0, 209]",209,a,0.11017327639274299,colour,0.5
025,67,0,1,Practice,6,NA,29.90939456433989,31.130236575379968,"[7, 0, 247]",247,a,0.697564929490909,colour,0.5
025,67,0,1,Practice,7,NA,31.643715558224358,32.33838256937452,"[68, 0, 186]",186,a,0.1719157138140872,colour,0.5
025,67,0,1,Practice,8,NA,32.84687152435072,33.50625821168069,"[39, 0, 215]",215,a,0.13606943341437727,colour,0.5
025,67,0,1,Practice,9,NA,34.01860409975052,34.738284265389666,"[11, 0, 243]",243,a,0.19630895473528653,colour,0.5
025,67,0,1,Practice,10,NA,35.253071604296565,36.29829614376649,"[79, 0, 175]",175,a,0.5217887378530577,colour,0.5
025,67,0,1,1,1,1,6.027040279470384,6.992038010852411,"[35, 0, 219]",219,a,0.440859702648595,colour,0.5
025,67,0,1,1,2,2,7.512195832794532,8.151971356361173,"[80, 0, 174]",174,a,0.11645630036946386,colour,0.5
025,67,0,1,1,3,3,8.668384885182604,9.288019128376618,"[29, 0, 225]",225,a,0.09619135246612132,colour,0.5
025,67,0,1,1,4,4,9.809052863623947,10.527970149647444,"[75, 0, 179]",179,a,0.19587611814495176,colour,0.5
025,67,0,1,1,5,5,11.043443568167277,12.448035969166085,"[82, 0, 172]",172,a,0.8812436393927783,colour,0.5
025,67,0,1,1,6,6,12.966496315202676,14.37601060862653,"[70, 0, 184]",184,a,0.8860690395813435,colour,0.5
025,67,0,1,1,7,7,14.882817447651178,16.0960023063235,"[93, 0, 161]",161,l,0.6897541771177202,colour,0.5
025,67,0,1,1,8,8,16.61714159231633,17.752060995670035,"[11, 0, 243]",243,a,0.6122303336160257,colour,0.5
025,67,0,1,1,9,9,18.26400201022625,26.584114461089484,"[55, 0, 199]",199,a,7.796984636806883,colour,0.5
025,67,0,1,1,10,10,27.092109533259645,27.6239830898121,"[40, 0, 214]",214,a,0.00919315149076283,colour,0.5
025,67,0,1,1,11,11,28.138923241058365,34.31202167412266,"[63, 0, 191]",191,l,5.650124612846412,colour,0.5
025,67,0,1,1,12,12,34.82756795419846,35.58397976576816,"[26, 0, 228]",228,a,0.23303114844020456,colour,0.5
025,67,0,1,1,13,13,36.09337771718856,36.92000004730653,"[98, 0, 156]",156,l,0.30336060852278024,colour,0.5
025,67,0,1,1,14,14,37.436985440319404,38.095982614089735,"[24, 0, 230]",230,a,0.13560154451988637,colour,0.5
025,67,0,1,1,15,15,38.608901547966525,40.00793520768639,"[73, 0, 181]",181,l,0.880824193591252,colour,0.5
025,67,0,1,1,16,16,40.525665363296866,41.231946102925576,"[33, 0, 221]",221,a,0.18302768259309232,colour,0.5
025,67,0,1,1,17,17,41.74440148018766,42.41595564351883,"[5, 0, 249]",249,a,0.1484334385022521,colour,0.5
025,67,0,1,1,18,18,42.922635270282626,45.591988622560166,"[36, 0, 218]",218,a,2.1461609475081787,colour,0.5
025,67,0,1,1,19,19,46.110033067292534,47.064005869906396,"[12, 0, 242]",242,a,0.4306433394085616,colour,0.5
025,67,0,1,1,20,20,47.57879911654163,49.11194479546975,"[28, 0, 226]",226,a,1.0097587142372504,colour,0.5
025,67,0,1,1,21,21,49.62559628277086,50.215955958585255,"[91, 0, 163]",163,l,0.06689472973812371,colour,0.5
025,67,0,1,1,22,22,50.734989350428805,51.31196299113799,"[94, 0, 160]",160,l,0.05361700220964849,colour,0.5
025,67,0,1,1,23,23,51.828772728913464,52.4399318016367,"[57, 0, 197]",197,a,0.08782724651973695,colour,0.5
025,67,0,1,1,24,24,52.954954660497606,54.2399939505849,"[31, 0, 223]",223,a,0.762069802149199,colour,0.5
025,67,0,1,1,25,25,54.75179278664291,55.99998464004602,"[38, 0, 216]",216,a,0.7249313133070245,colour,0.5
025,67,0,1,1,26,26,56.517568678827956,57.80801704886835,"[9, 0, 245]",245,a,0.7672327283071354,colour,0.5
025,67,0,1,1,27,27,58.31437411578372,59.575952004408464,"[32, 0, 222]",222,a,0.7384311700006947,colour,0.5
025,67,0,1,1,28,28,60.09565690346062,61.04002537939232,"[49, 0, 205]",205,a,0.42120167112443596,colour,0.5
025,67,0,1,1,29,29,61.548708500456996,62.256054987199605,"[8, 0, 246]",246,a,0.18407452513929456,colour,0.5
025,67,0,1,1,30,30,62.76870571204927,67.83195264078677,"[88, 0, 166]",166,l,4.5398666594410315,colour,0.5
025,67,0,1,1,31,31,68.34692429972347,69.03193932888098,"[54, 0, 200]",200,a,0.16190572595223784,colour,0.5
025,67,0,1,1,32,32,69.54998022899963,70.17596917611081,"[50, 0, 204]",204,a,0.10267641942482442,colour,0.5
025,67,0,1,1,33,33,70.69049263827037,72.51996247435454,"[58, 0, 196]",196,l,1.3060879914555699,colour,0.5
025,67,0,1,1,34,34,73.03549890825525,73.75997217872646,"[22, 0, 232]",232,a,0.20109378884080797,colour,0.5
025,67,0,1,1,35,35,74.2699731081957,77.11998240300454,"[61, 0, 193]",193,l,2.3284525321796536,colour,0.5
025,67,0,1,1,36,36,77.630592612084,78.32000690023415,"[4, 0, 250]",250,a,0.16622700332663953,colour,0.5
025,67,0,1,1,37,37,78.83366744592786,79.36796079191845,"[1, 0, 253]",253,a,0.010930405929684639,colour,0.5
025,67,0,1,1,38,38,79.88058394752443,82.59999944863375,"[65, 0, 189]",189,l,2.1962305795168504,colour,0.5
025,67,0,1,1,39,39,83.11490375979338,85.23993644898292,"[62, 0, 192]",192,a,1.6019060566322878,colour,0.5
025,67,0,1,1,40,40,85.75555519678164,86.51998177287169,"[56, 0, 198]",198,a,0.2412629221798852,colour,0.5
025,67,0,1,1,41,41,87.03670131985564,87.75195229426026,"[90, 0, 164]",164,l,0.19211370800621808,colour,0.5
025,67,0,1,1,42,42,88.27104358142242,88.86390693578869,"[86, 0, 168]",168,l,0.06935311597771943,colour,0.5
025,67,0,1,1,43,43,89.38049848296214,89.9199508165475,"[95, 0, 159]",159,l,0.016235510469414294,colour,0.5
025,67,0,1,1,44,44,90.42731691675726,91.55195142782759,"[44, 0, 210]",210,a,0.601158537203446,colour,0.5
025,67,0,1,1,45,45,92.06808138743509,92.67192280304153,"[17, 0, 237]",237,a,0.08056551543995738,colour,0.5
025,67,0,1,1,46,46,93.1930691782618,94.42397631565109,"[21, 0, 233]",233,a,0.7076308435061947,colour,0.5
025,67,0,1,1,47,47,94.94301364594139,96.24792009964585,"[68, 0, 186]",186,a,0.7815923505695537,colour,0.5
025,67,0,1,1,48,48,96.7554736706661,97.68795902747661,"[89, 0, 165]",165,l,0.40918070601765066,colour,0.5
025,67,0,1,1,49,49,98.19429561449215,98.90393901057541,"[45, 0, 209]",209,a,0.1864277544664219,colour,0.5
025,67,0,1,1,50,50,99.4130679651862,100.22398017533123,"[10, 0, 244]",244,a,0.2876430053729564,colour,0.5
025,67,0,1,2,1,51,105.61533777799923,106.59991831635125,"[89, 0, 165]",165,l,0.4604673217982054,colour,0.5
025,67,0,1,2,2,52,107.1161219252972,107.78392273688223,"[36, 0, 218]",218,a,0.1426379957702011,colour,0.5
025,67,0,1,2,3,53,108.30540112417657,108.94389940542169,"[27, 0, 227]",227,a,0.11517630110029131,colour,0.5
025,67,0,1,2,4,54,109.46164885954931,110.19991185725667,"[94, 0, 160]",160,l,0.21481104847043753,colour,0.5
025,67,0,1,2,5,55,110.70868241216522,111.88797367853113,"[34, 0, 220]",220,a,0.6562063816236332,colour,0.5
025,67,0,1,2,6,56,112.3962779197609,112.9519393760711,"[11, 0, 243]",243,a,0.03248283616267145,colour,0.5
025,67,0,1,2,7,57,113.45865090447478,116.53589314804412,"[4, 0, 250]",250,l,2.5539305035490543,colour,0.5
025,67,0,1,2,8,58,117.05251147667877,117.84792466834188,"[21, 0, 233]",233,a,0.2720951500814408,colour,0.5
025,67,0,1,2,9,59,118.36487776599824,120.02396788739134,"[74, 0, 180]",180,l,1.1362852610182017,colour,0.5
025,67,0,1,2,10,60,120.53677142446395,121.84795341908466,"[6, 0, 248]",248,a,0.7878730115480721,colour,0.5
025,67,0,1,2,11,61,122.36483404913452,125.52789650042541,"[61, 0, 193]",193,l,2.6383974567288533,colour,0.5
025,67,0,1,2,12,62,126.03790963918436,127.11195739847608,"[8, 0, 246]",246,a,0.5504906532587484,colour,0.5
025,67,0,1,2,13,63,127.63162645767443,149.47197077353485,"[81, 0, 173]",173,l,21.31704242201522,colour,0.5
025,67,0,1,2,14,64,149.98736621055286,150.59193821030203,"[77, 0, 177]",177,a,0.08109523821622133,colour,0.5
025,67,0,1,2,15,65,151.10323174204677,151.83994416845962,"[3, 0, 251]",251,l,0.21346212620846927,colour,0.5
025,67,0,1,2,16,66,152.3531809359556,153.23991675674915,"[31, 0, 223]",223,a,0.369002120452933,colour,0.5
025,67,0,1,2,17,67,153.75405858224258,155.07989400823135,"[58, 0, 196]",196,a,0.8026083627482876,colour,0.5
025,67,0,1,2,18,68,155.59754185006022,156.72785798227414,"[0, 0, 254]",254,a,0.606826767558232,colour,0.5
025,67,0,1,2,19,69,157.2383535823319,158.2159130293876,"[49, 0, 205]",205,a,0.45492590975482017,colour,0.5
025,67,0,1,2,20,70,158.72274586220738,159.75193417735863,"[66, 0, 188]",188,a,0.5058848457410932,colour,0.5
025,67,0,1,2,21,71,160.2696407022886,173.65588579094037,"[45, 0, 209]",209,a,12.862880967091769,colour,0.5
025,67,0,1,2,22,72,174.17705304000992,174.75988198805135,"[26, 0, 228]",228,a,0.05953926336951554,colour,0.5
025,67,0,1,2,23,73,175.27073244319763,177.00791236455552,"[37, 0, 217]",217,a,1.2137397875776514,colour,0.5
025,67,0,1,2,24,74,177.52076946466696,179.06393891607877,"[95, 0, 159]",159,l,1.0197868191171438,colour,0.5
025,67,0,1,2,25,75,179.58321964310016,187.55987639538944,"[10, 0, 244]",244,a,7.453252852195874,colour,0.5
025,67,0,1,2,26,76,188.06889152852818,189.5438783740392,"[96, 0, 158]",158,l,0.9519515852443874,colour,0.5
025,67,0,1,2,27,77,190.05329916847404,191.17601604375523,"[23, 0, 231]",231,a,0.5993956828024238,colour,0.5
025,67,0,1,2,28,78,191.6939482423477,192.82386895327363,"[50, 0, 204]",204,a,0.6066625339444727,colour,0.5
025,67,0,1,2,29,79,193.33453745162115,194.61590491619427,"[83, 0, 171]",171,l,0.7580285491421819,colour,0.5
025,67,0,1,2,30,80,195.1313862116076,196.27189547009766,"[1, 0, 253]",253,a,0.6174763613380492,colour,0.5
025,67,0,1,2,31,81,196.78763867320959,197.90388387220446,"[14, 0, 240]",240,a,0.5931461357977241,colour,0.5
025,67,0,1,2,32,82,198.41260362090543,199.4398896601051,"[75, 0, 179]",179,l,0.5040664591360837,colour,0.5
025,67,0,1,2,33,83,199.95949215930887,200.7358562053414,"[79, 0, 175]",175,l,0.25302906904835254,colour,0.5
025,67,0,1,2,34,84,201.25637636543252,202.58388406119775,"[18, 0, 236]",236,a,0.8042380971601233,colour,0.5
025,67,0,1,2,35,85,203.1013814539183,204.2958779297769,"[19, 0, 235]",235,a,0.6711997018428519,colour,0.5
025,67,0,1,2,36,86,204.80517111823428,205.5118854822358,"[76, 0, 178]",178,l,0.18405955901835114,colour,0.5
025,67,0,1,2,37,87,206.02323533396702,207.2878222053405,"[91, 0, 163]",163,l,0.7413156974362209,colour,0.5
025,67,0,1,2,38,88,207.80441138939932,208.90388741681818,"[71, 0, 183]",183,a,0.5760481028119102,colour,0.5
025,67,0,1,2,39,89,209.4138469924219,210.45586759527214,"[99, 0, 155]",155,l,0.5187777858227491,colour,0.5
025,67,0,1,2,40,90,210.97631450020708,212.13586581510026,"[62, 0, 192]",192,a,0.6362852610182017,colour,0.5
025,67,0,1,2,41,91,212.64820343244355,214.18390438368078,"[70, 0, 184]",184,a,1.0126558447955176,colour,0.5
025,67,0,1,2,42,92,214.69500453711953,216.08792413270567,"[68, 0, 186]",186,a,0.8694570125080645,colour,0.5
025,67,0,1,2,43,93,216.60133301094174,217.5758657520637,"[32, 0, 222]",222,a,0.45122730266302824,colour,0.5
025,67,0,1,2,44,94,218.09127261070535,218.84785850218032,"[13, 0, 241]",241,a,0.23330053908284754,colour,0.5
025,67,0,1,2,45,95,219.35691144457087,220.58382931665983,"[98, 0, 156]",156,l,0.7036904150154442,colour,0.5
025,67,0,1,2,46,96,221.0912277122261,223.9438462362159,"[29, 0, 225]",225,a,2.3292425869731233,colour,0.5
025,67,0,1,2,47,97,224.45067670603748,225.10385795705952,"[56, 0, 198]",198,a,0.12992976931855083,colour,0.5
025,67,0,1,2,48,98,225.62243448768277,227.05581545014866,"[69, 0, 185]",185,a,0.9100270809140056,colour,0.5
025,67,0,1,2,49,99,227.5756113276584,228.2798901485512,"[97, 0, 157]",157,l,0.18091981927864254,colour,0.5
025,67,0,1,2,50,100,228.7944041583687,229.83186126861256,"[28, 0, 226]",226,a,0.514510071487166,colour,0.5
025,67,0,1,3,1,101,235.35779129632283,236.3758692179108,"[24, 0, 230]",230,a,0.4943983294069767,colour,0.5
025,67,0,1,3,2,102,236.88978458207566,238.03184283652809,"[99, 0, 155]",155,l,0.6186677452642471,colour,0.5
025,67,0,1,3,3,103,238.5460776097607,239.823835082585,"[50, 0, 204]",204,a,0.7544961450621486,colour,0.5
025,67,0,1,3,4,104,240.342875957489,241.40788731595967,"[23, 0, 231]",231,a,0.5417350645875558,colour,0.5
025,67,0,1,3,5,105,241.92101853282657,242.8878665524535,"[90, 0, 164]",164,l,0.4435610919026658,colour,0.5
025,67,0,1,3,6,106,243.40661125513725,244.61584702075925,"[12, 0, 242]",242,a,0.6858877916820347,colour,0.5
025,67,0,1,3,7,107,245.12537375977263,246.27983658551238,"[14, 0, 240]",240,a,0.6314732516184449,colour,0.5
025,67,0,1,3,8,108,246.7972559967311,248.02384658285882,"[20, 0, 234]",234,a,0.7036293689161539,colour,0.5
025,67,0,1,3,9,109,248.53150924912188,249.24787362583447,"[91, 0, 163]",163,l,0.19317945500370115,colour,0.5
025,67,0,1,3,10,110,249.7659897505073,251.20787227107212,"[84, 0, 170]",170,l,0.9185896849958226,colour,0.5
025,67,0,1,3,11,111,251.71901417220943,253.07983847591095,"[66, 0, 188]",188,a,0.8373585699591786,colour,0.5
025,67,0,1,3,12,112,253.58841880317777,254.7438193759881,"[63, 0, 191]",191,l,0.6319698912557214,colour,0.5
025,67,0,1,3,13,113,255.26027307705954,257.9678412990179,"[62, 0, 192]",192,a,2.1842682972783223,colour,0.5
025,67,0,1,3,14,114,258.4862831343198,259.4718360782135,"[61, 0, 193]",193,a,0.46211911167483777,colour,0.5
025,67,0,1,3,15,115,259.9862386296736,260.8318506347714,"[30, 0, 224]",224,a,0.32222149579320103,colour,0.5
025,67,0,1,3,16,116,261.34557498351205,262.47188530897256,"[32, 0, 222]",222,a,0.6029080008156598,colour,0.5
025,67,0,1,3,17,117,262.98623902350664,263.79983923211694,"[16, 0, 238]",238,a,0.2903790530981496,colour,0.5
025,67,0,1,3,18,118,264.31437647889834,265.399810717674,"[0, 0, 254]",254,a,0.5626545845298097,colour,0.5
025,67,0,1,3,19,119,265.9082291742088,266.5758303059265,"[71, 0, 183]",183,l,0.14519878185819834,colour,0.5
025,67,0,1,3,20,120,267.09547494666185,268.39987570222,"[41, 0, 213]",213,a,0.7808842156082392,colour,0.5
025,67,0,1,3,21,121,268.9081590696005,270.0318298396887,"[88, 0, 166]",166,l,0.6004488267935812,colour,0.5
025,67,0,1,3,22,122,270.5487140143523,271.71185247797985,"[7, 0, 247]",247,a,0.6398523235693574,colour,0.5
025,67,0,1,3,23,123,272.220703377272,272.9199244288029,"[92, 0, 162]",162,l,0.18725916312541813,colour,0.5
025,67,0,1,3,24,124,273.4288245589705,274.6238905360224,"[11, 0, 243]",243,a,0.6716608954593539,colour,0.5
025,67,0,1,3,25,125,275.13214003271423,276.0160397690488,"[93, 0, 161]",161,l,0.3607254484668374,colour,0.5
025,67,0,1,3,26,126,276.5227060050238,277.85583309445065,"[97, 0, 157]",157,l,0.8097456386312842,colour,0.5
025,67,0,1,3,27,127,278.3641129172174,279.35981330124196,"[22, 0, 232]",232,a,0.47254185006022453,colour,0.5
025,67,0,1,3,28,128,279.87966628652066,283.4318209387129,"[60, 0, 194]",194,a,3.028803133754991,colour,0.5
025,67,0,1,3,29,129,283.94212158501614,284.6158907377394,"[85, 0, 169]",169,l,0.15034162194933742,colour,0.5
025,67,0,1,3,30,130,285.12964423105586,286.2238096400397,"[33, 0, 221]",221,a,0.57087178574875,colour,0.5
025,67,0,1,3,31,131,286.7389758587815,287.48782267794013,"[55, 0, 199]",199,a,0.22552877746056765,colour,0.5
025,67,0,1,3,32,132,288.00579977501184,289.0798132697819,"[34, 0, 220]",220,a,0.550767526961863,colour,0.5
025,67,0,1,3,33,133,289.5966879921034,290.54388467560057,"[57, 0, 197]",197,a,0.42435322620440274,colour,0.5
025,67,0,1,3,34,134,291.0654764905339,292.18380710377824,"[10, 0, 244]",244,a,0.5952386391581967,colour,0.5
025,67,0,1,3,35,135,292.67890135897323,293.6077964163851,"[80, 0, 174]",174,l,0.4055084866704419,colour,0.5
025,67,0,1,3,36,136,294.11643266968895,296.61585371615365,"[3, 0, 251]",251,a,1.9760561372386292,colour,0.5
025,67,0,1,3,37,137,297.13209789118264,299.4959776515607,"[8, 0, 246]",246,a,1.8407716386718675,colour,0.5
025,67,0,1,3,38,138,300.0070443281438,300.7998219028814,"[25, 0, 229]",229,a,0.26956941618118435,colour,0.5
025,67,0,1,3,39,139,301.31959690654185,301.9677912805928,"[95, 0, 159]",159,l,0.12525442452169955,colour,0.5
025,67,0,1,3,40,140,302.47580092505086,303.61580133473035,"[2, 0, 252]",252,a,0.616694183438085,colour,0.5
025,67,0,1,3,41,141,304.1320376327494,305.44786425237544,"[18, 0, 236]",236,a,0.7926149163395166,colour,0.5
025,67,0,1,3,42,142,305.96010104508605,308.55181121861096,"[69, 0, 185]",185,l,2.0683287227293476,colour,0.5
025,67,0,1,3,43,143,309.06950356508605,309.85581891599577,"[26, 0, 228]",228,a,0.26295674312859774,colour,0.5
025,67,0,1,3,44,144,310.3663519312395,311.35178081376944,"[70, 0, 184]",184,l,0.4621230501215905,colour,0.5
025,67,0,1,3,45,145,311.866393285105,312.983771184925,"[44, 0, 210]",210,a,0.5940122028114274,colour,0.5
025,67,0,1,3,46,146,313.49255631212145,314.5199041852029,"[9, 0, 245]",245,a,0.5041282930178568,colour,0.5
025,67,0,1,3,47,147,315.03942121984437,318.527800795855,"[27, 0, 227]",227,a,2.965120217530057,colour,0.5
025,67,0,1,3,48,148,319.0393672628561,319.79183195065707,"[72, 0, 182]",182,l,0.22912262158934027,colour,0.5
025,67,0,1,3,49,149,320.30498876748607,322.5198518036632,"[65, 0, 189]",189,l,1.6914520468562841,colour,0.5
025,67,0,1,3,50,150,323.0393873490393,324.2878623775905,"[94, 0, 160]",160,l,0.7252743530552834,colour,0.5
025,67,0,1,4,1,151,330.1615496891318,330.7837900108425,"[40, 0, 214]",214,a,0.09807472361717373,colour,0.5
025,67,0,1,4,2,152,331.30300339020323,332.4803750516148,"[34, 0, 220]",220,a,0.6546235148562118,colour,0.5
025,67,0,1,4,3,153,332.99192615866195,334.08792964648455,"[12, 0, 242]",242,a,0.5727996615460142,colour,0.5
025,67,0,1,4,4,154,334.6010648017982,335.99184857099317,"[73, 0, 181]",181,l,0.8681151794735342,colour,0.5
025,67,0,1,4,5,155,336.5071817804128,337.5838045043638,"[75, 0, 179]",179,l,0.5535012114560232,colour,0.5
025,67,0,1,4,6,156,338.1010813433677,338.7678483094787,"[23, 0, 231]",231,a,0.14400897338055074,colour,0.5
025,67,0,1,4,7,157,339.2728363680653,341.99187929101754,"[41, 0, 213]",213,a,2.1961104564834386,colour,0.5
025,67,0,1,4,8,158,342.50736688799225,343.6717672338709,"[92, 0, 162]",162,l,0.6397022681776434,colour,0.5
025,67,0,1,4,9,159,344.1806224655593,345.28783047606703,"[2, 0, 252]",252,a,0.584195593255572,colour,0.5
025,67,0,1,4,10,160,345.8053629210917,346.9038200691575,"[69, 0, 185]",185,l,0.5759610628010705,colour,0.5
025,67,0,1,4,11,161,347.4149375518318,348.6558613725938,"[88, 0, 166]",166,l,0.7179433051496744,colour,0.5
025,67,0,1,4,12,162,349.16470675810706,349.92781158722937,"[32, 0, 222]",222,a,0.23995220276992768,colour,0.5
025,67,0,1,4,13,163,350.44594937353395,352.36783397349063,"[42, 0, 212]",212,a,1.3987248844932765,colour,0.5
025,67,0,1,4,14,164,352.8835035272641,353.7119974131929,"[48, 0, 206]",206,a,0.3054605949437246,colour,0.5
025,67,0,1,4,15,165,354.22761104092933,355.5598023523344,"[15, 0, 239]",239,a,0.8095857370644808,colour,0.5
025,67,0,1,4,16,166,356.07112739188597,357.67187987384386,"[63, 0, 191]",191,l,1.0777562125585973,colour,0.5
025,67,0,1,4,17,167,358.1802857273724,358.96780073293485,"[67, 0, 187]",187,l,0.26400161639321595,colour,0.5
025,67,0,1,4,18,168,359.47723806882277,361.28780842071865,"[68, 0, 186]",186,a,1.2874492332339287,colour,0.5
025,67,0,1,4,19,169,361.80050089326687,363.95187124074437,"[36, 0, 218]",218,a,1.628203936619684,colour,0.5
025,67,0,1,4,20,170,364.4723134194501,365.3839060377795,"[78, 0, 176]",176,l,0.38826985051855445,colour,0.5
025,67,0,1,4,21,171,365.89422007475514,366.8559807866113,"[19, 0, 235]",235,a,0.4384962331969291,colour,0.5
025,67,0,1,4,22,172,367.363201557775,369.1278593214229,"[93, 0, 161]",161,l,1.2414125835057348,colour,0.5
025,67,0,1,4,23,173,369.64402905956376,370.8878511923831,"[35, 0, 219]",219,a,0.7203953897114843,colour,0.5
025,67,0,1,4,24,174,371.3941231886856,372.37579202419147,"[58, 0, 196]",196,a,0.4583511877572164,colour,0.5
025,67,0,1,4,25,175,372.8954929847969,376.9677448067814,"[28, 0, 226]",226,a,3.5489192079985514,colour,0.5
025,67,0,1,4,26,176,377.4892925109016,378.3917636577971,"[31, 0, 223]",223,a,0.37918067444115877,colour,0.5
025,67,0,1,4,27,177,378.91111685254145,379.62371921306476,"[76, 0, 178]",178,l,0.18921657744795084,colour,0.5
025,67,0,1,4,28,178,380.1299077140866,381.35982432903256,"[74, 0, 180]",180,l,0.7070002962136641,colour,0.5
025,67,0,1,4,29,179,381.8798376094783,382.9677802529186,"[87, 0, 167]",167,l,0.5645371680147946,colour,0.5
025,67,0,1,4,30,180,383.48925233865157,384.5997796825832,"[6, 0, 248]",248,a,0.5872675915015861,colour,0.5
025,67,0,1,4,31,181,385.1142417048104,386.2637527057668,"[25, 0, 229]",229,a,0.6266447006491944,colour,0.5
025,67,0,1,4,32,182,386.77051267714705,387.9677424436668,"[96, 0, 158]",158,l,0.6739495341898873,colour,0.5
025,67,0,1,4,33,183,388.4748257625615,389.54375234339386,"[81, 0, 173]",173,l,0.5460386190097779,colour,0.5
025,67,0,1,4,34,184,390.0528797226725,391.1997736173216,"[94, 0, 160]",160,l,0.623511262354441,colour,0.5
025,67,0,1,4,35,185,391.7091656610137,393.0237575736828,"[72, 0, 182]",182,l,0.7911498096073046,colour,0.5
025,67,0,1,4,36,186,393.53738385485485,394.5517489910126,"[7, 0, 247]",247,a,0.4911475252592936,colour,0.5
025,67,0,1,4,37,187,395.0684992580209,396.2397919076029,"[60, 0, 194]",194,a,0.6482688109390438,colour,0.5
025,67,0,1,4,38,188,396.7459233008558,397.8157766012009,"[89, 0, 165]",165,l,0.5463021019240841,colour,0.5
025,67,0,1,4,39,189,398.33440984552726,402.0557351055322,"[46, 0, 208]",208,a,3.197953261551447,colour,0.5
025,67,0,1,4,40,190,402.56881354702637,403.74379220057745,"[14, 0, 240]",240,a,0.6516231965506449,colour,0.5
025,67,0,1,4,41,191,404.25627435941715,405.2397603999125,"[62, 0, 192]",192,a,0.46086038008797914,colour,0.5
025,67,0,1,4,42,192,405.7562215840444,406.88778817711864,"[99, 0, 155]",155,l,0.6081658438779414,colour,0.5
025,67,0,1,4,43,193,407.3968446640065,411.64770442969166,"[59, 0, 195]",195,a,3.7275988317560405,colour,0.5
025,67,0,1,4,44,194,412.1624768024776,430.7357727099443,"[65, 0, 189]",189,l,18.0480539285345,colour,0.5
025,67,0,1,4,45,195,431.243680348387,432.3677500842605,"[39, 0, 215]",215,a,0.6015200876863673,colour,0.5
025,67,0,1,4,46,196,432.88894962868653,433.72768665931653,"[26, 0, 228]",228,a,0.315459948964417,colour,0.5
025,67,0,1,4,47,197,434.2482749548508,435.3196949742269,"[33, 0, 221]",221,a,0.5484599836636335,colour,0.5
025,67,0,1,4,48,198,435.8263056779979,436.7677490602946,"[27, 0, 227]",227,a,0.4180063991807401,colour,0.5
025,67,0,1,4,49,199,437.27952977945097,437.85568540217355,"[53, 0, 201]",201,a,0.05277929187286645,colour,0.5
025,67,0,1,4,50,200,438.3732139087515,439.1597190933535,"[11, 0, 243]",243,a,0.263139093760401,colour,0.5
025,67,0,1,5,1,201,444.80997406924143,445.52774014358874,"[53, 0, 201]",201,a,0.1936134733259678,colour,0.5
025,67,0,1,5,2,202,446.04500122880563,447.175713176257,"[47, 0, 207]",207,a,0.6079047239618376,colour,0.5
025,67,0,1,5,3,203,447.6869220311055,448.5677048708312,"[35, 0, 219]",219,a,0.3573608227306977,colour,0.5
025,67,0,1,5,4,204,449.0775384157896,449.88773815869354,"[3, 0, 251]",251,a,0.28714321507140994,colour,0.5
025,67,0,1,5,5,205,450.4056313665351,453.42377899889834,"[23, 0, 231]",231,a,2.4949146615108475,colour,0.5
025,67,0,1,5,6,206,453.9370476679178,454.5596845924156,"[33, 0, 221]",221,a,0.09933345508761704,colour,0.5
025,67,0,1,5,7,207,455.077511634212,455.7357183592394,"[80, 0, 174]",174,l,0.13479652348905802,colour,0.5
025,67,0,1,5,8,208,456.2494399511488,457.5357903542463,"[99, 0, 155]",155,l,0.762681444757618,colour,0.5
025,67,0,1,5,9,209,458.058415620937,458.8477025391767,"[30, 0, 224]",224,a,0.2659676951589063,colour,0.5
025,67,0,1,5,10,210,459.35528092237655,461.2316983739147,"[79, 0, 175]",175,l,1.3530828683869913,colour,0.5
025,67,0,1,5,11,211,461.74590833473485,462.79972383519635,"[40, 0, 214]",214,a,0.5307014710269868,colour,0.5
025,67,0,1,5,12,212,463.3125636060722,464.23973204300273,"[91, 0, 163]",163,l,0.403745238436386,colour,0.5
025,67,0,1,5,13,213,464.7500476553105,465.42370456201024,"[37, 0, 217]",217,a,0.15022268053144217,colour,0.5
025,67,0,1,5,14,214,465.93761165533215,467.0717220992083,"[24, 0, 230]",230,l,0.6110574605409056,colour,0.5
025,67,0,1,5,15,215,467.57821110461373,468.5997343902709,"[42, 0, 212]",212,l,0.5099048310657963,colour,0.5
025,67,0,1,5,16,216,469.1208086917177,470.11171912169084,"[17, 0, 237]",237,l,0.4675715145422146,colour,0.5
025,67,0,1,5,17,217,470.62078939331695,472.2643359915819,"[74, 0, 180]",180,l,1.1208969132276252,colour,0.5
025,67,0,1,5,18,218,472.767311103642,474.07975734362844,"[72, 0, 182]",182,l,0.7890525800175965,colour,0.5
025,67,0,1,5,19,219,474.5970522996504,475.23971353226807,"[76, 0, 178]",178,l,0.11943535099271685,colour,0.5
025,67,0,1,5,20,220,475.7531944842776,477.2397596122464,"[69, 0, 185]",185,l,0.963522384641692,colour,0.5
025,67,0,1,5,21,221,477.7532283550827,478.4396836786764,"[39, 0, 215]",215,a,0.1629632021067664,colour,0.5
025,67,0,1,5,22,222,478.9562673489563,480.1917375852354,"[86, 0, 168]",168,l,0.7120159240439534,colour,0.5
025,67,0,1,5,23,223,480.7063382412307,481.98373258812353,"[25, 0, 229]",229,a,0.7540735483635217,colour,0.5
025,67,0,1,5,24,224,482.50317124731373,483.59175152739044,"[32, 0, 222]",222,a,0.5639215868432075,colour,0.5
025,67,0,1,5,25,225,484.0981385266641,485.1917100159917,"[95, 0, 159]",159,l,0.5704929060302675,colour,0.5
025,67,0,1,5,26,226,485.707570585073,487.10369372332934,"[52, 0, 202]",202,a,0.8727601981954649,colour,0.5
025,67,0,1,5,27,227,487.61381556349806,488.7837364478037,"[71, 0, 183]",183,l,0.646656405646354,colour,0.5
025,67,0,1,5,28,228,489.3013334835414,490.87181733117905,"[94, 0, 160]",160,l,1.0470964891137555,colour,0.5
025,67,0,1,5,29,229,491.3794433696894,492.75979652348906,"[8, 0, 246]",246,a,0.8569984844652936,colour,0.5
025,67,0,1,5,30,230,493.27126531663816,494.3996811422985,"[46, 0, 208]",208,a,0.6050670640543103,colour,0.5
025,67,0,1,5,31,231,494.9119045443367,495.61570917477366,"[98, 0, 156]",156,l,0.18046610883902758,colour,0.5
025,67,0,1,5,32,232,496.13066074741073,498.23967572301626,"[16, 0, 238]",238,a,1.5857497092802078,colour,0.5
025,67,0,1,5,33,233,498.7557036766084,499.6557239203248,"[6, 0, 248]",248,a,0.3768152358243242,colour,0.5
025,67,0,1,5,34,234,500.1619624396553,501.11174708476756,"[62, 0, 192]",192,a,0.42650401883292943,colour,0.5
025,67,0,1,5,35,235,501.63070761505514,502.8956741539296,"[90, 0, 164]",164,l,0.741699303383939,colour,0.5
025,67,0,1,5,36,236,503.41298525757156,505.06367622083053,"[48, 0, 206]",206,a,1.1273701647296548,colour,0.5
025,67,0,1,5,37,237,505.5819506716216,506.5836958028376,"[61, 0, 193]",193,a,0.4785515449475497,colour,0.5
025,67,0,1,5,38,238,507.0976206192281,508.223677701666,"[4, 0, 250]",250,a,0.6031340683111921,colour,0.5
025,67,0,1,5,39,239,508.7382244007895,511.5117110084975,"[63, 0, 191]",191,l,2.250501365866512,colour,0.5
025,67,0,1,5,40,240,512.0195327884285,513.3277085571317,"[56, 0, 198]",198,a,0.785106637631543,colour,0.5
025,67,0,1,5,41,241,513.8487375662662,514.7916496000253,"[14, 0, 240]",240,a,0.4201000841567293,colour,0.5
025,67,0,1,5,42,242,515.3019218893023,516.4477134093177,"[26, 0, 228]",228,a,0.6224210968939587,colour,0.5
025,67,0,1,5,43,243,516.9581857724115,518.1116868263343,"[87, 0, 167]",167,l,0.6305347167653963,colour,0.5
025,67,0,1,5,44,244,518.6299821508583,519.6956449305872,"[22, 0, 232]",232,a,0.5422435196815059,colour,0.5
025,67,0,1,5,45,245,520.2081396924332,521.359685301315,"[0, 0, 254]",254,a,0.6282464718678966,colour,0.5
025,67,0,1,5,46,246,521.8800609201426,523.1437191028381,"[50, 0, 204]",204,a,0.7403484118403867,colour,0.5
025,67,0,1,5,47,247,523.6611928647617,524.719654565677,"[67, 0, 187]",187,l,0.5349739117082208,colour,0.5
025,67,0,1,5,48,248,525.2393689170713,526.4397025833605,"[64, 0, 190]",190,l,0.6773602399043739,colour,0.5
025,67,0,1,5,49,249,526.9581869539106,529.0476541749667,"[49, 0, 205]",205,a,1.566136182518676,colour,0.5
025,67,0,1,5,50,250,529.5687229625182,530.2636814196594,"[93, 0, 161]",161,l,0.17164199089165777,colour,0.5
025,67,0,1,6,1,251,535.6303933260497,536.7037297995994,"[5, 0, 249]",249,a,0.5492728815879673,colour,0.5
025,67,0,1,6,2,252,537.2249080763431,537.8716763342964,"[34, 0, 220]",220,a,0.12167121423408389,colour,0.5
025,67,0,1,6,3,253,538.3829868014436,542.2716973656788,"[58, 0, 196]",196,a,3.3653909472050145,colour,0.5
025,67,0,1,6,4,254,542.7907280005747,543.9916792172007,"[81, 0, 173]",173,l,0.6778068611165509,colour,0.5
025,67,0,1,6,5,255,544.5094901113771,545.2716623133747,"[78, 0, 176]",176,l,0.2389018158428371,colour,0.5
025,67,0,1,6,6,256,545.7908008620143,547.0396870657569,"[74, 0, 180]",180,l,0.7260088756447658,colour,0.5
025,67,0,1,6,7,257,547.5563904651208,548.6156319809379,"[90, 0, 164]",164,l,0.5358860588166863,colour,0.5
025,67,0,1,6,8,258,549.1345129543915,550.2796605363255,"[25, 0, 229]",229,a,0.6220040140906349,colour,0.5
025,67,0,1,6,9,259,550.7906775883166,551.7436480530305,"[37, 0, 217]",217,a,0.42991354293189943,colour,0.5
025,67,0,1,6,10,260,552.2593802283518,553.3356670016656,"[65, 0, 189]",189,a,0.5528734209947288,colour,0.5
025,67,0,1,6,11,261,553.853122646804,554.5437397402711,"[51, 0, 203]",203,a,0.1671293042600155,colour,0.5
025,67,0,1,6,12,262,555.0563203606289,555.7276185239898,"[91, 0, 163]",163,l,0.14800532790832222,colour,0.5
025,67,0,1,6,13,263,556.2437374560395,557.9196601582225,"[31, 0, 223]",223,a,1.1532820755383,colour,0.5
025,67,0,1,6,14,264,558.432428249158,559.7276153732091,"[66, 0, 188]",188,l,0.7719466701382771,colour,0.5
025,67,0,1,6,15,265,560.2449445937527,561.3996248224284,"[63, 0, 191]",191,l,0.6321183711988851,colour,0.5
025,67,0,1,6,16,266,561.9167933537392,563.031678996631,"[14, 0, 240]",240,a,0.5914994658669457,colour,0.5
025,67,0,1,6,17,267,563.5418098953087,564.9196337705944,"[56, 0, 198]",198,l,0.8544109167996794,colour,0.5
025,67,0,1,6,18,268,565.432428249158,566.4396545341006,"[44, 0, 210]",210,a,0.4839503848925233,colour,0.5
025,67,0,1,6,19,269,566.9480769291986,568.0076654232107,"[77, 0, 177]",177,l,0.5364082985324785,colour,0.5
025,67,0,1,6,20,270,568.527113534743,570.1676566640381,"[10, 0, 244]",244,a,1.1171853091800585,colour,0.5
025,67,0,1,6,21,271,570.6832675348269,571.607963800896,"[19, 0, 235]",235,a,0.40122226148378104,colour,0.5
025,67,0,1,6,22,272,572.1208401994081,573.1037149910117,"[52, 0, 202]",202,a,0.45958116848487407,colour,0.5
025,67,0,1,6,23,273,573.6208476824686,574.7597205111524,"[69, 0, 185]",185,l,0.6155658147763461,colour,0.5
025,67,0,1,6,24,274,575.2770820270525,576.5602245552,"[33, 0, 221]",221,a,0.7600694586290047,colour,0.5
025,67,0,1,6,25,275,577.0817261794582,578.5756207800005,"[68, 0, 186]",186,l,0.9705403251573443,colour,0.5
025,67,0,1,6,26,276,579.0972933332669,580.0879489450017,"[79, 0, 175]",175,l,0.4674210654338822,colour,0.5
025,67,0,1,6,27,277,580.5973067240557,581.5037521701306,"[45, 0, 209]",209,a,0.3832262597279623,colour,0.5
025,67,0,1,6,28,278,582.0191066472325,585.543633795809,"[23, 0, 231]",231,a,3.0011460916139185,colour,0.5
025,67,0,1,6,29,279,586.0516312310938,586.9356329734437,"[48, 0, 206]",206,a,0.3606226546689868,colour,0.5
025,67,0,1,6,30,280,587.4522658743663,588.5916400689166,"[75, 0, 179]",179,l,0.6247798401163891,colour,0.5
025,67,0,1,6,31,281,589.0998056763783,590.2159390231827,"[87, 0, 167]",167,l,0.5928090036613867,colour,0.5
025,67,0,1,6,32,282,590.7247501441743,591.8237582825823,"[86, 0, 168]",168,l,0.5757653213804588,colour,0.5
025,67,0,1,6,33,283,592.3342527010245,593.4316645818762,"[26, 0, 228]",228,a,0.5745156481862068,colour,0.5
025,67,0,1,6,34,284,593.9434346673079,595.423693140503,"[41, 0, 213]",213,a,0.956324850441888,colour,0.5
025,67,0,1,6,35,285,595.9434126119595,597.0716901976848,"[24, 0, 230]",230,a,0.604774042731151,colour,0.5
025,67,0,1,6,36,286,597.5841455749469,598.335642977152,"[42, 0, 212]",212,a,0.2269580444553867,colour,0.5
025,67,0,1,6,37,287,598.8509828818496,599.5516985787544,"[83, 0, 171]",171,l,0.17728816613089293,colour,0.5
025,67,0,1,6,38,288,600.0698119464796,601.3436033908511,"[4, 0, 250]",250,a,0.7505450827302411,colour,0.5
025,67,0,1,6,39,289,601.8509234111989,602.9036881307838,"[98, 0, 156]",156,l,0.5293793303426355,colour,0.5
025,67,0,1,6,40,290,603.4135287649697,604.975633146707,"[6, 0, 248]",248,a,1.0388060325058177,colour,0.5
025,67,0,1,6,41,291,605.4916441648966,606.7756381878862,"[17, 0, 237]",237,a,0.7607764120912179,colour,0.5
025,67,0,1,6,42,292,607.2884476326872,608.2156243403442,"[20, 0, 234]",234,a,0.40381652454379946,colour,0.5
025,67,0,1,6,43,293,608.7258926911745,609.6636410109932,"[50, 0, 204]",204,a,0.41426604450680315,colour,0.5
025,67,0,1,6,44,294,610.1791534203803,611.2796585671604,"[94, 0, 160]",160,l,0.5772489390801638,colour,0.5
025,67,0,1,6,45,295,611.7884594480274,612.5276349867927,"[28, 0, 226]",226,a,0.21253973909188062,colour,0.5
025,67,0,1,6,46,296,613.0419536490226,615.1676665102132,"[67, 0, 187]",187,l,1.6024015148868784,colour,0.5
025,67,0,1,6,47,297,615.6825676705921,616.6156363132177,"[27, 0, 227]",227,a,0.40966395486611873,colour,0.5
025,67,0,1,6,48,298,617.1358079197817,618.2716083565028,"[0, 0, 254]",254,a,0.6128140133805573,colour,0.5
025,67,0,1,6,49,299,618.7919725537067,620.6156642762944,"[73, 0, 181]",181,l,1.3009270345792174,colour,0.5
025,67,0,1,6,50,300,621.1357799567049,622.255632390501,"[2, 0, 252]",252,a,0.5969081519870088,colour,0.5
025,67,0,1,7,1,301,627.7618669715011,628.9516491116956,"[9, 0, 245]",245,a,0.6657516313716769,colour,0.5
025,67,0,1,7,2,302,629.4656641187612,630.5836615383159,"[74, 0, 180]",180,l,0.5947983193909749,colour,0.5
025,67,0,1,7,3,303,631.0906381249661,632.3835700872587,"[11, 0, 243]",243,a,0.7696032868698239,colour,0.5
025,67,0,1,7,4,304,632.9032336325618,633.8876593894092,"[36, 0, 218]",218,a,0.46104312455281615,colour,0.5
025,67,0,1,7,5,305,634.4031469865004,635.8395877378061,"[66, 0, 188]",188,l,0.9131148328306153,colour,0.5
025,67,0,1,7,6,306,636.3563415495446,637.1196117940126,"[0, 0, 254]",254,a,0.24003766744863242,colour,0.5
025,67,0,1,7,7,307,637.6375928295311,638.7036746612284,"[77, 0, 177]",177,l,0.5418957537040114,colour,0.5
025,67,0,1,7,8,308,639.2169386041351,641.9036841923371,"[48, 0, 206]",206,a,2.1634720511501655,colour,0.5
025,67,0,1,7,9,309,642.4199551488273,643.35165990307,"[31, 0, 223]",223,a,0.4082654081285,colour,0.5
025,67,0,1,7,10,310,643.873156801099,645.0317097166553,"[37, 0, 217]",217,a,0.6352435385342687,colour,0.5
025,67,0,1,7,11,311,645.5456932161469,647.343612055527,"[61, 0, 193]",193,a,1.2753640712471679,colour,0.5
025,67,0,1,7,12,312,647.8592331662076,648.815639936598,"[30, 0, 224]",224,a,0.43542265961878,colour,0.5
025,67,0,1,7,13,313,649.3255703676259,650.4635960338637,"[65, 0, 189]",189,l,0.6146765107987449,colour,0.5
025,67,0,1,7,14,314,650.9818066814914,652.4636736214161,"[58, 0, 196]",196,l,0.9587848120136186,colour,0.5
025,67,0,1,7,15,315,652.9696931624785,654.4396179064643,"[69, 0, 185]",185,l,0.9465050901053473,colour,0.5
025,67,0,1,7,16,316,654.9540759902447,655.8715971712954,"[81, 0, 173]",173,l,0.39420156413689256,colour,0.5
025,67,0,1,7,17,317,656.3915793378837,657.5515989357373,"[52, 0, 202]",202,a,0.6367177038919181,colour,0.5
025,67,0,1,7,18,318,658.0634848116897,659.1596021211008,"[59, 0, 195]",195,a,0.5727201047120616,colour,0.5
025,67,0,1,7,19,319,659.6727995041292,660.8236287073232,"[60, 0, 194]",194,a,0.6274804417043924,colour,0.5
025,67,0,1,7,20,320,661.3446971010417,662.5836213659495,"[17, 0, 237]",237,a,0.7159685615915805,colour,0.5
025,67,0,1,7,21,321,663.0940858521499,664.0075768078677,"[76, 0, 178]",178,l,0.3902075726073235,colour,0.5
025,67,0,1,7,22,322,664.5159499720903,665.6156111070886,"[86, 0, 168]",168,l,0.5855586940888315,colour,0.5
025,67,0,1,7,23,323,666.1317788759479,667.2395973476814,"[85, 0, 169]",169,l,0.5848092052619904,colour,0.5
025,67,0,1,7,24,324,667.7531700658146,669.0715956746135,"[6, 0, 248]",248,a,0.794975628843531,colour,0.5
025,67,0,1,7,25,325,669.5813413920114,671.807606661343,"[93, 0, 161]",161,l,1.7078738464042544,colour,0.5
025,67,0,1,7,26,326,672.3264076841297,673.2075591635657,"[7, 0, 247]",247,a,0.36751810903660953,colour,0.5
025,67,0,1,7,27,327,673.7230140713509,674.927611907362,"[29, 0, 225]",225,a,0.681363683543168,colour,0.5
025,67,0,1,7,28,328,675.441682446748,676.4076120177051,"[79, 0, 175]",175,l,0.44260404619853944,colour,0.5
025,67,0,1,7,29,329,676.9260963882552,679.0155758184846,"[70, 0, 184]",184,a,1.566188563941978,colour,0.5
025,67,0,1,7,30,330,679.5353705144953,680.503645044053,"[18, 0, 236]",236,a,0.44479816185776144,colour,0.5
025,67,0,1,7,31,331,681.0197797298897,681.9276438088855,"[40, 0, 214]",214,a,0.38440228370018303,colour,0.5
025,67,0,1,7,32,332,682.4416363667697,683.2715496734018,"[87, 0, 167]",167,l,0.3065763603663072,colour,0.5
025,67,0,1,7,33,333,683.7854217144195,684.8956064124359,"[23, 0, 231]",231,a,0.5964300229679793,colour,0.5
025,67,0,1,7,34,334,685.4164388924837,686.3755966766039,"[56, 0, 198]",198,a,0.4357527026440948,colour,0.5
025,67,0,1,7,35,335,686.8851974585559,688.6395923852688,"[43, 0, 211]",211,a,1.230949672870338,colour,0.5
025,67,0,1,7,36,336,689.1609447418014,690.7115752104437,"[68, 0, 186]",186,l,1.027263983967714,colour,0.5
025,67,0,1,7,37,337,691.223523707944,691.9996250587283,"[33, 0, 221]",221,a,0.2531129581620917,colour,0.5
025,67,0,1,7,38,338,692.5203953110613,694.055585837923,"[57, 0, 197]",197,a,1.011807500733994,colour,0.5
025,67,0,1,7,39,339,694.5672881817445,696.0315828982275,"[45, 0, 209]",209,a,0.941022754763253,colour,0.5
025,67,0,1,7,40,340,696.5516292618122,697.591606198228,"[47, 0, 207]",207,a,0.5169905130751431,colour,0.5
025,67,0,1,7,41,341,698.105579457595,699.1836019100156,"[78, 0, 176]",176,l,0.5608031149022281,colour,0.5
025,67,0,1,7,42,342,699.6934212765191,700.5675670247292,"[55, 0, 199]",199,a,0.3507847774308175,colour,0.5
025,67,0,1,7,43,343,701.0841644795146,702.9036109369481,"[28, 0, 226]",226,a,1.296282803406939,colour,0.5
025,67,0,1,7,44,344,703.4121195842745,704.3755840734811,"[19, 0, 235]",235,a,0.44002396159339696,colour,0.5
025,67,0,1,7,45,345,704.8965256488882,705.6315449315589,"[62, 0, 192]",192,a,0.21159608429297805,colour,0.5
025,67,0,1,7,46,346,706.1465736980317,708.2395725353854,"[14, 0, 240]",240,a,1.5700624324381351,colour,0.5
025,67,0,1,7,47,347,708.755899811862,709.7596417419845,"[10, 0, 244]",244,a,0.4804069531382993,colour,0.5
025,67,0,1,7,48,348,710.2714610580588,711.0715432930738,"[27, 0, 227]",227,a,0.2773978915065527,colour,0.5
025,67,0,1,7,49,349,711.5840786211193,712.5675630862825,"[15, 0, 239]",239,a,0.45256125880405307,colour,0.5
025,67,0,1,7,50,350,713.0780626246706,714.1515562428394,"[90, 0, 164]",164,l,0.5502086596097797,colour,0.5
025,67,0,1,8,1,351,719.6553667021217,721.3195846973686,"[70, 0, 184]",184,l,1.152360082254745,colour,0.5
025,67,0,1,8,2,352,721.8314926287858,722.5760792165529,"[17, 0, 237]",237,a,0.22140481683891267,colour,0.5
025,67,0,1,8,3,353,723.0970538749825,724.2876831777394,"[8, 0, 246]",246,a,0.6682005652692169,colour,0.5
025,67,0,1,8,4,354,724.8001511581242,725.647523654392,"[93, 0, 161]",161,l,0.3242068730760366,colour,0.5
025,67,0,1,8,5,355,726.1595304411603,727.1195869817166,"[51, 0, 203]",203,a,0.4366561851929873,colour,0.5
025,67,0,1,8,6,356,727.6283150011441,728.431588963489,"[81, 0, 173]",173,l,0.2799188991775736,colour,0.5
025,67,0,1,8,7,357,728.9406844412442,730.4555702416692,"[10, 0, 244]",244,a,0.9914070697268471,colour,0.5
025,67,0,1,8,8,358,730.9719609273598,731.8155481704744,"[6, 0, 248]",248,a,0.3200529800960794,colour,0.5
025,67,0,1,8,9,359,732.3314445796423,733.4955558426445,"[22, 0, 232]",232,a,0.6409188583493233,colour,0.5
025,67,0,1,8,10,360,734.0032240226865,735.1355731876101,"[20, 0, 234]",234,a,0.6087975726695731,colour,0.5
025,67,0,1,8,11,361,735.6438258350827,736.695529927616,"[91, 0, 163]",163,l,0.5286526846466586,colour,0.5
025,67,0,1,8,12,362,737.2063244566089,738.3275900095468,"[56, 0, 198]",198,a,0.5984209141461179,colour,0.5
025,67,0,1,8,13,363,738.848548914073,741.9195561829256,"[11, 0, 243]",243,a,2.5478514917194843,colour,0.5
025,67,0,1,8,14,364,742.4267438709503,743.4155436806614,"[46, 0, 208]",208,a,0.46554163261316717,colour,0.5
025,67,0,1,8,15,365,743.926617840305,745.3275246311678,"[39, 0, 215]",215,a,0.877507223165594,colour,0.5
025,67,0,1,8,16,366,745.8486209878465,746.7595531266415,"[48, 0, 206]",206,a,0.38795241073239595,colour,0.5
025,67,0,1,8,17,367,747.2704677786678,749.6075569579843,"[66, 0, 188]",188,l,1.8147025832440704,colour,0.5
025,67,0,1,8,18,368,750.1141696310369,751.0155269815587,"[41, 0, 213]",213,a,0.3781570688588545,colour,0.5
025,67,0,1,8,19,369,751.5359794002725,752.5676131047076,"[67, 0, 187]",187,l,0.5081908135907724,colour,0.5
025,67,0,1,8,20,370,753.0840242704144,754.2155317865545,"[65, 0, 189]",189,l,0.6082174376351759,colour,0.5
025,67,0,1,8,21,371,754.7246568027185,755.5675327600911,"[30, 0, 224]",224,a,0.3195520080626011,colour,0.5
025,67,0,1,8,22,372,756.0840230887989,759.8075700337067,"[63, 0, 191]",191,l,3.2006235368316993,colour,0.5
025,67,0,1,8,23,373,760.3191928206943,761.4635255354224,"[97, 0, 157]",157,l,0.6209390547592193,colour,0.5
025,67,0,1,8,24,374,761.9754070792114,763.8475099485368,"[83, 0, 171]",171,l,1.3486481632571667,colour,0.5
025,67,0,1,8,25,375,764.366028189892,765.4075265531428,"[33, 0, 221]",221,a,0.5180830416502431,colour,0.5
025,67,0,1,8,26,376,765.9285201161401,766.9915212850319,"[59, 0, 195]",195,a,0.5395949058001861,colour,0.5
025,67,0,1,8,27,377,767.5067587898811,768.6474854513071,"[32, 0, 222]",222,a,0.61739562288858,colour,0.5
025,67,0,1,8,28,378,769.1628308700165,770.1115371648921,"[3, 0, 251]",251,a,0.4253279948607087,colour,0.5
025,67,0,1,8,29,379,770.6316721437033,771.6555470834719,"[82, 0, 172]",172,l,0.5006868672790006,colour,0.5
025,67,0,1,8,30,380,772.1628820699407,773.1835455900291,"[38, 0, 216]",216,a,0.4974435460753739,colour,0.5
025,67,0,1,8,31,381,773.6957977428101,774.7195486210985,"[4, 0, 250]",250,a,0.500410387525335,colour,0.5
025,67,0,1,8,32,382,775.2270742289256,776.3275352650089,"[36, 0, 218]",218,a,0.577150083729066,colour,0.5
025,67,0,1,8,33,383,776.8364145212108,777.6955255952198,"[87, 0, 167]",167,l,0.33568275545258075,colour,0.5
025,67,0,1,8,34,384,778.2113774997415,780.3995539301541,"[69, 0, 185]",185,l,1.664804825792089,colour,0.5
025,67,0,1,8,35,385,780.9145535520511,782.7835639432305,"[62, 0, 192]",192,l,1.3458101095166057,colour,0.5
025,67,0,1,8,36,386,783.3050265767379,784.2475522476016,"[18, 0, 236]",236,a,0.4193372045410797,colour,0.5
025,67,0,1,8,37,387,784.7582238967298,787.5275144699262,"[58, 0, 196]",196,a,2.2458220825064927,colour,0.5
025,67,0,1,8,38,388,788.0395622166106,788.9755650113802,"[99, 0, 155]",155,l,0.41266703011933714,colour,0.5
025,67,0,1,8,39,389,789.4926283858949,790.3835125857731,"[1, 0, 253]",253,a,0.36762759822886437,colour,0.5
025,67,0,1,8,40,390,790.8989434689283,792.4315574557986,"[64, 0, 190]",190,l,1.0095279205124825,colour,0.5
025,67,0,1,8,41,391,792.9397695371881,796.9435540025588,"[71, 0, 183]",183,l,3.480414436198771,colour,0.5
025,67,0,1,8,42,392,797.4554249125067,798.4235107897548,"[84, 0, 170]",170,l,0.4428974613547325,colour,0.5
025,67,0,1,8,43,393,798.9416521206731,799.8315052319085,"[24, 0, 230]",230,a,0.36645314970519394,colour,0.5
025,67,0,1,8,44,394,800.3478967052652,802.5115081778495,"[16, 0, 238]",238,a,1.6403158801840618,colour,0.5
025,67,0,1,8,45,395,803.0196930837119,804.11155173718,"[77, 0, 177]",177,l,0.5683893749956042,colour,0.5
025,67,0,1,8,46,396,804.6290231361054,805.487481213524,"[98, 0, 156]",156,l,0.3349529589759186,colour,0.5
025,67,0,1,8,47,397,806.0041432591388,807.7034993998241,"[13, 0, 241]",241,a,1.1759798099519685,colour,0.5
025,67,0,1,8,48,398,808.224056975334,809.2714622396743,"[76, 0, 178]",178,l,0.5240923427045345,colour,0.5
025,67,0,1,8,49,399,809.7865737137618,813.5595573801547,"[21, 0, 233]",233,l,3.2499165046028793,colour,0.5
025,67,0,1,8,50,400,814.0677848214982,815.135522775352,"[42, 0, 212]",212,a,0.5444793829228729,colour,0.5
025,67,0,1,9,1,401,834.6490631981287,836.7434976038057,"[36, 0, 218]",218,a,1.5703302476322278,colour,0.5
025,67,0,1,9,2,402,837.259229385294,838.255488242954,"[80, 0, 174]",174,l,0.4736209879629314,colour,0.5
025,67,0,1,9,3,403,838.7748556161532,840.4554906847188,"[27, 0, 227]",227,a,1.1573946146527305,colour,0.5
025,67,0,1,9,4,404,840.9623124899808,842.5674788032193,"[75, 0, 179]",179,l,1.0818624501116574,colour,0.5
025,67,0,1,9,5,405,843.0889178059297,845.4074997715652,"[17, 0, 237]",237,a,1.7952588039916009,colour,0.5
025,67,0,1,9,6,406,845.9170635320479,846.5274652391672,"[24, 0, 230]",230,a,0.08705412701237947,colour,0.5
025,67,0,1,9,7,407,847.0419615260325,847.5841290333774,"[19, 0, 235]",235,a,0.018758881255052984,colour,0.5
025,67,0,1,9,8,408,848.1052521716338,851.1274768969743,"[57, 0, 197]",197,a,2.4996120617724955,colour,0.5
025,67,0,1,9,9,409,851.635845335084,852.4795085905353,"[34, 0, 220]",220,a,0.32039089989848435,colour,0.5
025,67,0,1,9,10,410,852.9950718060136,854.0795104022836,"[73, 0, 181]",181,l,0.561033908626996,colour,0.5
025,67,0,1,9,11,411,854.5889071720885,855.3274911541957,"[86, 0, 168]",168,l,0.21513242670334876,colour,0.5
025,67,0,1,9,12,412,855.8388382490957,857.0634832363576,"[82, 0, 172]",172,l,0.7012414811179042,colour,0.5
025,67,0,1,9,13,413,857.5732608551625,859.2955041700043,"[99, 0, 155]",155,l,1.1989075501915067,colour,0.5
025,67,0,1,9,14,414,859.8076176890172,860.855563309975,"[77, 0, 177]",177,l,0.524867431493476,colour,0.5
025,67,0,1,9,15,415,861.3701017382555,862.3274647665676,"[55, 0, 199]",199,a,0.4339528267737478,colour,0.5
025,67,0,1,9,16,416,862.8407763649011,864.2395331508014,"[46, 0, 208]",208,l,0.8753194090677425,colour,0.5
025,67,0,1,9,17,417,864.7347928213421,866.4874560073949,"[76, 0, 178]",178,l,1.233487615827471,colour,0.5
025,67,0,1,9,18,418,866.9962316822493,867.8474579609465,"[15, 0, 239]",239,a,0.3278786987066269,colour,0.5
025,67,0,1,9,19,419,868.3568685153732,873.4955097626662,"[10, 0, 244]",244,a,4.615362196462229,colour,0.5
025,67,0,1,9,20,420,874.0130532353651,874.7354237624677,"[84, 0, 170]",170,l,0.1989622947294265,colour,0.5
025,67,0,1,9,21,421,875.2474348815158,876.4954565934604,"[79, 0, 175]",175,l,0.7247678672429174,colour,0.5
025,67,0,1,9,22,422,877.0130225153407,878.7434976038057,"[50, 0, 204]",204,a,1.2070522838039324,colour,0.5
025,67,0,1,9,23,423,879.2642048408743,880.3274588588392,"[93, 0, 161]",161,l,0.5399485795060173,colour,0.5
025,67,0,1,9,24,424,880.8424246100476,882.3434379756218,"[5, 0, 249]",249,l,0.9776677547488362,colour,0.5
025,67,0,1,9,25,425,882.8581520591397,883.879485117388,"[59, 0, 195]",195,l,0.49833206250332296,colour,0.5
025,67,0,1,9,26,426,884.3892383177299,885.2394736800343,"[44, 0, 210]",210,a,0.32693149917759,colour,0.5
025,67,0,1,9,27,427,885.7487133053364,886.6554454712896,"[38, 0, 216]",216,a,0.3836031702812761,colour,0.5
025,67,0,1,9,28,428,887.1706183854258,888.1595477703959,"[29, 0, 225]",225,a,0.46576139866374433,colour,0.5
025,67,0,1,9,29,429,888.6717475416372,889.6074994564988,"[31, 0, 223]",223,a,0.4123015410732478,colour,0.5
025,67,0,1,9,30,430,890.124984640046,891.5674283909611,"[63, 0, 191]",191,a,0.919451026013121,colour,0.5
025,67,0,1,9,31,431,892.0781201261561,893.0314781352645,"[42, 0, 212]",212,a,0.4300580844283104,colour,0.5
025,67,0,1,9,32,432,893.5468290677527,894.3114194837399,"[37, 0, 217]",217,a,0.24173553718719631,colour,0.5
025,67,0,1,9,33,433,894.8281413938385,896.1114517003298,"[14, 0, 240]",240,a,0.7600021109683439,colour,0.5
025,67,0,1,9,34,434,896.6249208369991,899.1514459659811,"[68, 0, 186]",186,a,2.0031614012550563,colour,0.5
025,67,0,1,9,35,435,899.6730054854415,900.5674484771444,"[71, 0, 183]",183,l,0.37108162697404623,colour,0.5
025,67,0,1,9,36,436,901.0710462596035,902.0474584335461,"[90, 0, 164]",164,l,0.45303899387363344,colour,0.5
025,67,0,1,9,37,437,902.5618334157625,903.9434551472077,"[7, 0, 247]",247,a,0.8561895248712972,colour,0.5
025,67,0,1,9,38,438,904.454694328364,905.4315354004502,"[32, 0, 222]",222,a,0.4542953623458743,colour,0.5
025,67,0,1,9,39,439,905.939054312883,906.9194675675826,"[12, 0, 242]",242,a,0.45702077611349523,colour,0.5
025,67,0,1,9,40,440,907.4390751867322,908.4874111090321,"[60, 0, 194]",194,a,0.5249493514420465,colour,0.5
025,67,0,1,9,41,441,909.0016072852304,910.0474288950209,"[58, 0, 196]",196,a,0.522425192873925,colour,0.5
025,67,0,1,9,42,442,910.5640432852088,911.7434160776902,"[72, 0, 182]",182,l,0.6560271816560999,colour,0.5
025,67,0,1,9,43,443,912.2515907436609,913.2874200886581,"[13, 0, 241]",241,a,0.5125818017404526,colour,0.5
025,67,0,1,9,44,444,913.8000727827894,915.4394741526339,"[47, 0, 207]",207,a,1.116308214259334,colour,0.5
025,67,0,1,9,45,445,915.9563173673814,917.0874739667634,"[61, 0, 193]",193,a,0.6079015731811523,colour,0.5
025,67,0,1,9,46,446,917.5969502935186,918.6794661339372,"[26, 0, 228]",228,a,0.5593450971646234,colour,0.5
025,67,0,1,9,47,447,919.1906300904229,920.2314703371376,"[39, 0, 215]",215,a,0.5176415403839201,colour,0.5
025,67,0,1,9,48,448,920.7531082320493,921.6794015432242,"[21, 0, 233]",233,a,0.402909497381188,colour,0.5
025,67,0,1,9,49,449,922.1905938566197,923.0474793073954,"[97, 0, 157]",157,l,0.3335079384269193,colour,0.5
025,67,0,1,9,50,450,923.5667966620531,924.5274431838188,"[95, 0, 159]",159,l,0.4373347816290334,colour,0.5
025,67,0,1,10,1,451,936.8016367448727,939.6873962215614,"[15, 0, 239]",239,a,2.3670065031619743,colour,0.5
025,67,0,1,10,2,452,940.194058913039,945.7754467788618,"[31, 0, 223]",223,a,5.058069036458619,colour,0.5
025,67,0,1,10,3,453,946.2877753376961,946.9114665876841,"[37, 0, 217]",217,a,0.11333743459545076,colour,0.5
025,67,0,1,10,4,454,947.4316362249665,954.4074529039208,"[52, 0, 202]",202,a,6.453048840048723,colour,0.5
025,67,0,1,10,5,455,954.9187807003036,955.5914218783146,"[30, 0, 224]",224,a,0.14920537651050836,colour,0.5
025,67,0,1,10,6,456,956.1063510017702,957.5754195246845,"[58, 0, 196]",196,a,0.9458765119779855,colour,0.5
025,67,0,1,10,7,457,958.0906830233289,962.0314068491571,"[47, 0, 207]",207,a,3.417442411882803,colour,0.5
025,67,0,1,10,8,458,962.5437732172431,963.5274979283568,"[1, 0, 253]",253,a,0.46038264490198344,colour,0.5
025,67,0,1,10,9,459,964.0437814879697,964.6474043190246,"[97, 0, 157]",157,l,0.08073408144991845,colour,0.5
025,67,0,1,10,10,460,965.1687042941339,965.695431859931,"[90, 0, 164]",164,l,0.003683640854433179,colour,0.5
025,67,0,1,10,11,461,966.2157283156412,967.4715056414716,"[21, 0, 233]",233,a,0.732861794764176,colour,0.5
025,67,0,1,10,12,462,967.9812482079724,968.727387336432,"[22, 0, 232]",232,a,0.22289158520288765,colour,0.5
025,67,0,1,10,13,463,969.246921306476,970.1754370902199,"[44, 0, 210]",210,a,0.40560970501974225,colour,0.5
025,67,0,1,10,14,464,970.6843742418569,971.6074045395944,"[85, 0, 169]",169,l,0.39965199772268534,colour,0.5
025,67,0,1,10,15,465,972.1218185126781,972.8155087858904,"[86, 0, 168]",168,l,0.17034229938872159,colour,0.5
025,67,0,1,10,16,466,973.3263226134004,974.5594671894796,"[45, 0, 209]",209,a,0.7063287888886407,colour,0.5
025,67,0,1,10,17,467,975.0798455651384,976.0234669153579,"[38, 0, 216]",216,a,0.4202048471197486,colour,0.5
025,67,0,1,10,18,468,976.5330676974263,977.7914668555604,"[7, 0, 247]",247,a,0.7352008457528427,colour,0.5
025,67,0,1,10,19,469,978.2985663220752,979.3594096092274,"[11, 0, 243]",243,a,0.5378789191599935,colour,0.5
025,67,0,1,10,20,470,979.876753402059,981.183422316215,"[78, 0, 176]",176,l,0.7834375186357647,colour,0.5
025,67,0,1,10,21,471,981.7047285928857,982.6634456634056,"[63, 0, 191]",191,a,0.43523952132090926,colour,0.5
025,67,0,1,10,22,472,983.1747344690375,984.2554661876056,"[48, 0, 206]",206,a,0.5573337262030691,colour,0.5
025,67,0,1,10,23,473,984.7684950045077,985.4794093413511,"[0, 0, 254]",254,a,0.18752461532130837,colour,0.5
025,67,0,1,10,24,474,985.9873043767875,987.1834041993134,"[40, 0, 214]",214,a,0.6729022978106514,colour,0.5
025,67,0,1,10,25,475,987.6903540045023,988.6154074887745,"[17, 0, 237]",237,a,0.40162516583222896,colour,0.5
025,67,0,1,10,26,476,989.1279085521819,989.7594349728897,"[99, 0, 155]",155,l,0.10816820687614381,colour,0.5
025,67,0,1,10,27,477,990.2685391152045,991.439403260476,"[23, 0, 231]",231,a,0.6475165651645511,colour,0.5
025,67,0,1,10,28,478,991.9560846043751,992.8954008248402,"[10, 0, 244]",244,a,0.4160773418843746,colour,0.5
025,67,0,1,10,29,479,993.4102874130476,994.3594615969341,"[8, 0, 246]",246,a,0.4259175822371617,colour,0.5
025,67,0,1,10,30,480,994.8789975361433,995.6074360472849,"[75, 0, 179]",179,l,0.2050483957864344,colour,0.5
025,67,0,1,10,31,481,996.1290365268942,996.8874463187531,"[57, 0, 197]",197,a,0.2350074672140181,colour,0.5
025,67,0,1,10,32,482,997.3946726038121,999.0714145054808,"[41, 0, 213]",213,a,1.1537389368750155,colour,0.5
025,67,0,1,10,33,483,999.5821743761189,1000.5674366616877,"[25, 0, 229]",229,a,0.46238259447272867,colour,0.5
025,67,0,1,10,34,484,1001.0822279391577,1002.0553975795629,"[54, 0, 200]",200,a,0.4501418633153662,colour,0.5
025,67,0,1,10,35,485,1002.5665079730097,1003.6634137618821,"[71, 0, 183]",183,l,0.5720111819682643,colour,0.5
025,67,0,1,10,36,486,1004.1773377906065,1005.6313940885011,"[55, 0, 199]",199,l,0.9307638562750071,colour,0.5
025,67,0,1,10,37,487,1006.1461373167112,1006.9273819014197,"[82, 0, 172]",172,l,0.257877312367782,colour,0.5
025,67,0,1,10,38,488,1007.4429986798204,1008.6153558949009,"[88, 0, 166]",166,l,0.6489387426991016,colour,0.5
025,67,0,1,10,39,489,1009.130464218324,1010.0074078479083,"[73, 0, 181]",181,l,0.3535661172354594,colour,0.5
025,67,0,1,10,40,490,1010.5141646685079,1011.6073623981792,"[34, 0, 220]",220,a,0.569911589496769,colour,0.5
025,67,0,1,10,41,491,1012.1234663639916,1013.1594099242939,"[62, 0, 192]",192,a,0.5126058263704181,colour,0.5
025,67,0,1,10,42,492,1013.6785953406943,1014.7273893057136,"[92, 0, 162]",162,l,0.5257811540504918,colour,0.5
025,67,0,1,10,43,493,1015.2410545776365,1016.2474207030609,"[77, 0, 177]",177,l,0.4830122438725084,colour,0.5
025,67,0,1,10,44,494,1016.7566670237575,1017.8634004499763,"[89, 0, 165]",165,l,0.5834000245667994,colour,0.5
025,67,0,1,10,45,495,1018.38165993453,1020.447379034129,"[42, 0, 212]",212,a,1.5424668302293867,colour,0.5
025,67,0,1,10,46,496,1020.9597572176717,1021.9433700765949,"[93, 0, 161]",161,l,0.4602199866203591,colour,0.5
025,67,0,1,10,47,497,1022.4597520976095,1024.2313714817865,"[13, 0, 241]",241,a,1.2483013425953686,colour,0.5
025,67,0,1,10,48,498,1024.7410640298622,1025.6233801117633,"[66, 0, 188]",188,a,0.35893148032482713,colour,0.5
025,67,0,1,10,49,499,1026.1315902237548,1026.8313697488047,"[94, 0, 160]",160,l,0.17683288012631238,colour,0.5
025,67,0,1,10,50,500,1027.3504370114533,1028.623399410164,"[95, 0, 159]",159,l,0.7496207263320684,colour,0.5
025,67,0,1,11,1,501,1036.0539557096781,1038.1273634693353,"[12, 0, 242]",242,a,1.5494469614932314,colour,0.5
025,67,0,1,11,2,502,1038.648412564653,1039.2473777738633,"[77, 0, 177]",177,l,0.07571097067557275,colour,0.5
025,67,0,1,11,3,503,1039.7577587646665,1040.9913511435734,"[24, 0, 230]",230,a,0.7101309774443507,colour,0.5
025,67,0,1,11,4,504,1041.5078907030402,1042.5674476893619,"[16, 0, 238]",238,a,0.5364524092292413,colour,0.5
025,67,0,1,11,5,505,1043.0858938569436,1047.0235618322622,"[38, 0, 216]",216,a,3.4143042475916445,colour,0.5
025,67,0,1,11,6,506,1047.5366792645073,1048.1753528071567,"[72, 0, 182]",182,l,0.11527673189993948,colour,0.5
025,67,0,1,11,7,507,1048.6929352706065,1049.6473720236681,"[18, 0, 236]",236,a,0.43115573294926435,colour,0.5
025,67,0,1,11,8,508,1050.161648938316,1051.1114201926393,"[41, 0, 213]",213,a,0.4267698647454381,colour,0.5
025,67,0,1,11,9,509,1051.6303169199964,1052.6793574325275,"[51, 0, 203]",203,a,0.5255121572408825,colour,0.5
025,67,0,1,11,10,510,1053.1940663960995,1054.3913772949018,"[21, 0, 233]",233,a,0.6739400818478316,colour,0.5
025,67,0,1,11,11,511,1054.8971636792412,1055.831376050366,"[54, 0, 200]",200,a,0.410817529540509,colour,0.5
025,67,0,1,11,12,512,1056.350376359187,1057.3033834515372,"[35, 0, 219]",219,a,0.4297304046340287,colour,0.5
025,67,0,1,11,13,513,1057.8198308510473,1059.0874164652778,"[29, 0, 225]",225,a,0.7449898860650137,colour,0.5
025,67,0,1,11,14,514,1059.6003082238603,1060.463390446268,"[53, 0, 201]",201,a,0.3393313441192731,colour,0.5
025,67,0,1,11,15,515,1060.9753287037602,1061.9353801243706,"[74, 0, 180]",180,l,0.43670896044932306,colour,0.5
025,67,0,1,11,16,516,1062.444092390011,1063.7753365020035,"[7, 0, 247]",247,a,0.8079599412158132,colour,0.5
025,67,0,1,11,17,517,1064.2884586603614,1065.5193405916216,"[62, 0, 192]",192,a,0.708837193553336,colour,0.5
025,67,0,1,11,18,518,1066.0377973930445,1067.047350519686,"[11, 0, 243]",243,a,0.4862362665589899,colour,0.5
025,67,0,1,11,19,519,1067.5690372515237,1068.3673558444716,"[26, 0, 228]",228,a,0.2730876416899264,colour,0.5
025,67,0,1,11,20,520,1068.883422788931,1069.8874041773379,"[80, 0, 174]",174,l,0.48065901454538107,colour,0.5
025,67,0,1,11,21,521,1070.3990391734987,1071.4713796107098,"[81, 0, 173]",173,l,0.5492417677305639,colour,0.5
025,67,0,1,11,22,522,1071.9928776903544,1072.8237559194677,"[70, 0, 184]",184,l,0.3075420706300065,colour,0.5
025,67,0,1,11,23,523,1073.336482656654,1074.8073376646498,"[44, 0, 210]",210,a,0.9474318096181378,colour,0.5
025,67,0,1,11,24,524,1075.3209131396143,1076.3193314544624,"[98, 0, 156]",156,l,0.4750778239686042,colour,0.5
025,67,0,1,11,25,525,1076.8365110135637,1077.6233474225737,"[52, 0, 202]",202,a,0.26345574599690735,colour,0.5
025,67,0,1,11,26,526,1078.1333436258137,1079.3913666610606,"[31, 0, 223]",223,a,0.7346348890569061,colour,0.5
025,67,0,1,11,27,527,1079.8989387428155,1081.2793336441973,"[61, 0, 193]",193,a,0.8571702012559399,colour,0.5
025,67,0,1,11,28,528,1081.7896012073616,1082.4553256633226,"[82, 0, 172]",172,l,0.14263720798771828,colour,0.5
025,67,0,1,11,29,529,1082.978720504907,1084.199399463716,"[93, 0, 161]",161,l,0.6975424801930785,colour,0.5
025,67,0,1,11,30,530,1084.7131470494205,1085.8153394322144,"[57, 0, 197]",197,a,0.5789223903557286,colour,0.5
025,67,0,1,11,31,531,1086.3224329911172,1088.8073601138312,"[73, 0, 181]",181,a,1.9619202194735408,colour,0.5
025,67,0,1,11,32,532,1089.3224006956443,1090.5193086900981,"[64, 0, 190]",190,a,0.67350448819343,colour,0.5
025,67,0,1,11,33,533,1091.0261533383746,1092.0074212386971,"[20, 0, 234]",234,a,0.4579333171714097,colour,0.5
025,67,0,1,11,34,534,1092.52621871687,1093.703321381472,"[9, 0, 245]",245,a,0.6538330661132932,colour,0.5
025,67,0,1,11,35,535,1094.21373703063,1095.1753256318625,"[55, 0, 199]",199,a,0.438343814923428,colour,0.5
025,67,0,1,11,36,536,1095.6824101322563,1096.7593203637516,"[68, 0, 186]",186,a,0.5538135312963277,colour,0.5
025,67,0,1,11,37,537,1097.276232895325,1098.3673306383425,"[14, 0, 240]",240,a,0.5678580767707899,colour,0.5
025,67,0,1,11,38,538,1098.8867539376952,1100.7513213530183,"[69, 0, 185]",185,l,1.3410914414562285,colour,0.5
025,67,0,1,11,39,539,1101.2617047069361,1104.0473564274143,"[85, 0, 169]",169,l,2.262280509690754,colour,0.5
025,67,0,1,11,40,540,1104.5586535037728,1105.6394143669168,"[23, 0, 231]",231,a,0.557421553763561,colour,0.5
025,67,0,1,11,41,541,1106.1523340884596,1106.8793582989601,"[36, 0, 218]",218,a,0.20370341197121888,colour,0.5
025,67,0,1,11,42,542,1107.386758663808,1108.4713189584436,"[2, 0, 252]",252,a,0.5610858962172642,colour,0.5
025,67,0,1,11,43,543,1108.9805093531031,1110.2874011840904,"[27, 0, 227]",227,a,0.7835615802323446,colour,0.5
025,67,0,1,11,44,544,1110.8086562607205,1111.871353380615,"[94, 0, 160]",160,l,0.5393341798335314,colour,0.5
025,67,0,1,11,45,545,1112.3866850147024,1113.96763413609,"[25, 0, 229]",229,a,1.0575727906543761,colour,0.5
025,67,0,1,11,46,546,1114.480464848457,1116.0553270811215,"[47, 0, 207]",207,a,1.0514524249592796,colour,0.5
025,67,0,1,11,47,547,1116.5741923007881,1117.4553248756565,"[49, 0, 205]",205,a,0.35775112407281995,colour,0.5
025,67,0,1,11,48,548,1117.9666290412424,1118.9353336505592,"[91, 0, 163]",163,l,0.4453912938479334,colour,0.5
025,67,0,1,11,49,549,1119.456656862516,1120.623471877887,"[76, 0, 178]",178,l,0.6435355705907568,colour,0.5
025,67,0,1,11,50,550,1121.1441562718246,1122.1273469278822,"[3, 0, 251]",251,a,0.4598930944921449,colour,0.5
025,67,0,1,12,1,551,1126.9402019799454,1127.5033134256955,"[47, 0, 207]",207,a,0.03894151537679136,colour,0.5
025,67,0,1,12,2,552,1128.0190712010954,1130.6713013141416,"[39, 0, 215]",215,a,2.12884551146999,colour,0.5
025,67,0,1,12,3,553,1131.1909581641667,1133.1433740938082,"[20, 0, 234]",234,a,1.4294495924841613,colour,0.5
025,67,0,1,12,4,554,1133.6608655788004,1134.7913597293664,"[97, 0, 157]",157,l,0.6071745335357264,colour,0.5
025,67,0,1,12,5,555,1135.3014634526335,1136.6473515437683,"[64, 0, 190]",190,l,0.8232128060190007,colour,0.5
025,67,0,1,12,6,556,1137.1608970864909,1138.1913327116054,"[43, 0, 211]",211,a,0.5071853250265121,colour,0.5
025,67,0,1,12,7,557,1138.70773442497,1140.1913307423238,"[69, 0, 185]",185,l,0.9602526756934822,colour,0.5
025,67,0,1,12,8,558,1140.7077560864855,1141.5593147710897,"[45, 0, 209]",209,a,0.3282111044973135,colour,0.5
025,67,0,1,12,9,559,1142.0670739295892,1143.0953548236284,"[74, 0, 180]",180,l,0.5050238985568285,colour,0.5
025,67,0,1,12,10,560,1143.6151546397014,1144.5753435124643,"[5, 0, 249]",249,a,0.4369543264620006,colour,0.5
025,67,0,1,12,11,561,1145.0839577104198,1146.0793438054388,"[23, 0, 231]",231,a,0.4720294565195218,colour,0.5
025,67,0,1,12,12,562,1146.5939968429739,1147.2713192736264,"[17, 0, 237]",237,a,0.15406582900322974,colour,0.5
025,67,0,1,12,13,563,1147.7814324491192,1149.1834034116473,"[10, 0, 244]",244,a,0.8880233030067757,colour,0.5
025,67,0,1,12,14,564,1149.6938580516726,1150.3033247685526,"[32, 0, 222]",222,a,0.08597341389395297,colour,0.5
025,67,0,1,12,15,565,1150.8187568332069,1151.975325946929,"[68, 0, 186]",186,l,0.6331742721376941,colour,0.5
025,67,0,1,12,16,566,1152.4907595870318,1153.103277428192,"[14, 0, 240]",240,a,0.08933331340085715,colour,0.5
025,67,0,1,12,17,567,1153.6156284363242,1154.559350217227,"[25, 0, 229]",229,a,0.4210279850522056,colour,0.5
025,67,0,1,12,18,568,1155.0690652146004,1156.0874326130142,"[94, 0, 160]",160,l,0.49134484212845564,colour,0.5
025,67,0,1,12,19,569,1156.6040844185045,1157.8233612858457,"[56, 0, 198]",198,a,0.6961455086711794,colour,0.5
025,67,0,1,12,20,570,1158.3351030143676,1159.743355031591,"[33, 0, 221]",221,l,0.8848071572137997,colour,0.5
025,67,0,1,12,21,571,1160.2568564636167,1161.4393166142981,"[6, 0, 248]",248,a,0.6595989703200758,colour,0.5
025,67,0,1,12,22,572,1161.9601140420418,1162.9592877533287,"[53, 0, 201]",201,a,0.47585606353823096,colour,0.5
025,67,0,1,12,23,573,1163.4756122728577,1164.6713087973185,"[36, 0, 218]",218,a,0.6723331905668601,colour,0.5
025,67,0,1,12,24,574,1165.1786902574822,1166.2954801454907,"[77, 0, 177]",177,l,0.5933781110215932,colour,0.5
025,67,0,1,12,25,575,1166.8037611497566,1167.8233226890443,"[85, 0, 169]",169,l,0.49615330691449344,colour,0.5
025,67,0,1,12,26,576,1168.334995494457,1171.055313296616,"[96, 0, 158]",158,l,2.196902086841874,colour,0.5
025,67,0,1,12,27,577,1171.569414162077,1172.2392787263962,"[90, 0, 164]",164,l,0.14659732882864773,colour,0.5
025,67,0,1,12,28,578,1172.7568804882467,1173.4793605045415,"[57, 0, 197]",197,a,0.19781659706495702,colour,0.5
025,67,0,1,12,29,579,1173.99250983831,1175.2152919343207,"[55, 0, 199]",199,a,0.6994002513820305,colour,0.5
025,67,0,1,12,30,580,1175.7268249244662,1176.7352760701906,"[51, 0, 203]",203,a,0.4849826549179852,colour,0.5
025,67,0,1,12,31,581,1177.24255001056,1178.8633035637904,"[61, 0, 193]",193,a,1.0975386992795393,colour,0.5
025,67,0,1,12,32,582,1179.3830872321269,1180.3913359411526,"[13, 0, 241]",241,a,0.4848952213069424,colour,0.5
025,67,0,1,12,33,583,1180.8986693521729,1183.343335575657,"[72, 0, 182]",182,l,1.9215069017373025,colour,0.5
025,67,0,1,12,34,584,1183.8530478160828,1184.8313067335403,"[2, 0, 252]",252,a,0.45523035258520395,colour,0.5
025,67,0,1,12,35,585,1185.3375472221524,1186.3192964021582,"[18, 0, 236]",236,a,0.45853275060653687,colour,0.5
025,67,0,1,12,36,586,1186.8375476159854,1187.847262613359,"[99, 0, 155]",155,l,0.48643122031353414,colour,0.5
025,67,0,1,12,37,587,1188.3688209513202,1189.4633148278808,"[24, 0, 230]",230,a,0.5713550348300487,colour,0.5
025,67,0,1,12,38,588,1189.9779658961343,1190.9832993575837,"[9, 0, 245]",245,a,0.4819216845789924,colour,0.5
025,67,0,1,12,39,589,1191.4936130007263,1193.1752984564519,"[58, 0, 196]",196,a,1.1550492622191086,colour,0.5
025,67,0,1,12,40,590,1193.6843624265166,1194.4632892278023,"[49, 0, 205]",205,a,0.2555236889747903,colour,0.5
025,67,0,1,12,41,591,1194.9812391495798,1196.063272134983,"[0, 0, 254]",254,a,0.5587318792240694,colour,0.5
025,67,0,1,12,42,592,1196.5750272541773,1197.5912942722207,"[70, 0, 184]",184,l,0.4930049026152119,colour,0.5
025,67,0,1,12,43,593,1198.1062832602765,1199.0872900407994,"[42, 0, 212]",212,a,0.45765565580222756,colour,0.5
025,67,0,1,12,44,594,1199.6062816849444,1200.5592690849444,"[30, 0, 224]",224,a,0.42977884761057794,colour,0.5
025,67,0,1,12,45,595,1201.075046946411,1202.0792717316654,"[79, 0, 175]",175,l,0.48084609129000455,colour,0.5
025,67,0,1,12,46,596,1202.5906747526024,1203.127312269411,"[91, 0, 163]",163,l,0.011544017819687724,colour,0.5
025,67,0,1,12,47,597,1203.6393702561036,1204.4632904094178,"[59, 0, 195]",195,a,0.3006607947172597,colour,0.5
025,67,0,1,12,48,598,1204.9838412895333,1206.231260417262,"[27, 0, 227]",227,a,0.7249005932826549,colour,0.5
025,67,0,1,12,49,599,1206.7488066469086,1207.7672669928288,"[92, 0, 162]",162,l,0.49538924579974264,colour,0.5
025,67,0,1,12,50,600,1208.2800291761523,1209.1672632119153,"[62, 0, 192]",192,a,0.36429605551529676,colour,0.5
025,67,0,1,13,1,601,1214.6386058011558,1216.0872778315097,"[13, 0, 241]",241,a,0.9247195029165596,colour,0.5
025,67,0,1,13,2,602,1216.608092982322,1217.7752278004773,"[87, 0, 167]",167,l,0.6438742780592293,colour,0.5
025,67,0,1,13,3,603,1218.2967845631065,1219.1832671409938,"[52, 0, 202]",202,a,0.36328859766945243,colour,0.5
025,67,0,1,13,4,604,1219.7029673139332,1221.4072339255363,"[5, 0, 249]",249,a,1.1808276593219489,colour,0.5
025,67,0,1,13,5,605,1221.9216994923772,1222.9432881566463,"[28, 0, 226]",226,a,0.4982962226495147,colour,0.5
025,67,0,1,13,6,606,1223.4529602247057,1224.2792261242867,"[61, 0, 193]",193,a,0.30289862724021077,colour,0.5
025,67,0,1,13,7,607,1224.7966904339846,1225.7192973473575,"[31, 0, 223]",223,a,0.3995322685223073,colour,0.5
025,67,0,1,13,8,608,1226.2341985078529,1227.4392776235472,"[44, 0, 210]",210,a,0.6821238062111661,colour,0.5
025,67,0,1,13,9,609,1227.9529866124503,1228.959285784047,"[10, 0, 244]",244,a,0.48905305261723697,colour,0.5
025,67,0,1,13,10,610,1229.4782155944267,1230.551262197434,"[96, 0, 158]",158,l,0.549754161387682,colour,0.5
025,67,0,1,13,11,611,1231.0718926344998,1231.6952412384562,"[33, 0, 221]",221,a,0.0998549071373418,colour,0.5
025,67,0,1,13,12,612,1232.2125397390919,1233.5512511697598,"[24, 0, 230]",230,a,0.8153736967360601,colour,0.5
025,67,0,1,13,13,613,1234.063506079372,1234.9432385320542,"[37, 0, 217]",217,a,0.35635494033340365,colour,0.5
025,67,0,1,13,14,614,1235.4541433379054,1236.5032921580132,"[29, 0, 225]",225,a,0.5257925754413009,colour,0.5
025,67,0,1,13,15,615,1237.0166017871816,1238.2873165071942,"[39, 0, 215]",215,a,0.7473249984905124,colour,0.5
025,67,0,1,13,16,616,1238.7979440455092,1241.2393425293267,"[70, 0, 184]",184,a,1.9185262757819146,colour,0.5
025,67,0,1,13,17,617,1241.7510196671356,1242.4712334938813,"[20, 0, 234]",234,a,0.1969150835648179,colour,0.5
025,67,0,1,13,18,618,1242.9853268763982,1243.6232686532894,"[15, 0, 239]",239,a,0.11455402453429997,colour,0.5
025,67,0,1,13,19,619,1244.1416750424542,1245.3912323596887,"[34, 0, 220]",220,a,0.7263566417386755,colour,0.5
025,67,0,1,13,20,620,1245.90730166703,1247.0312103200704,"[65, 0, 189]",189,l,0.6006233006482944,colour,0.5
025,67,0,1,13,21,621,1247.5479345932836,1249.9512773210881,"[64, 0, 190]",190,a,1.8784646625863388,colour,0.5
025,67,0,1,13,22,622,1250.4715753521305,1251.023269204772,"[88, 0, 166]",166,l,0.02852744166739285,colour,0.5
025,67,0,1,13,23,623,1251.5339920538245,1252.8312291458715,"[43, 0, 211]",211,a,0.7739588288823143,colour,0.5
025,67,0,1,13,24,624,1253.3465792906936,1254.3672837706981,"[16, 0, 238]",238,a,0.4974537860834971,colour,0.5
025,67,0,1,13,25,625,1254.877732502995,1255.9992670527427,"[77, 0, 177]",177,l,0.5982531358022243,colour,0.5
025,67,0,1,13,26,626,1256.5184359275736,1257.5512677112129,"[93, 0, 161]",161,l,0.5102888308465481,colour,0.5
025,67,0,1,13,27,627,1258.065318164532,1259.1272090817802,"[55, 0, 199]",199,a,0.5387780694290996,colour,0.5
025,67,0,1,13,28,628,1259.6433358907234,1261.0392550168326,"[18, 0, 236]",236,a,0.872558155329898,colour,0.5
025,67,0,1,13,29,629,1261.5496104076738,1262.5032043304527,"[42, 0, 212]",212,a,0.4304294810863212,colour,0.5
025,67,0,1,13,30,630,1263.0183729121927,1263.9592928732745,"[81, 0, 173]",173,l,0.4175294517772272,colour,0.5
025,67,0,1,13,31,631,1264.4715402999427,1265.7512512485264,"[11, 0, 243]",243,a,0.7588615332497284,colour,0.5
025,67,0,1,13,32,632,1266.2662268457934,1268.047280415194,"[66, 0, 188]",188,l,1.257768217008561,colour,0.5
025,67,0,1,13,33,633,1268.5664937945548,1269.5353078929475,"[67, 0, 187]",187,l,0.4457130659138784,colour,0.5
025,67,0,1,13,34,634,1270.050794308423,1271.2232558927499,"[51, 0, 203]",203,a,0.6494987916667014,colour,0.5
025,67,0,1,13,35,635,1271.738256302313,1273.7192811997375,"[63, 0, 191]",191,a,1.457967975642532,colour,0.5
025,67,0,1,13,36,636,1274.2381869854871,1275.1112429619534,"[26, 0, 228]",228,a,0.34987932560034096,colour,0.5
025,67,0,1,13,37,637,1275.6289345207624,1276.687310756999,"[78, 0, 176]",176,l,0.5351078192470595,colour,0.5
025,67,0,1,13,38,638,1277.2070282592904,1278.2392058648402,"[90, 0, 164]",164,l,0.5094180374871939,colour,0.5
025,67,0,1,13,39,639,1278.7551345692482,1279.9351910783444,"[71, 0, 183]",183,l,0.6566659997915849,colour,0.5
025,67,0,1,13,40,640,1280.442669818527,1281.383225472062,"[98, 0, 156]",156,l,0.4172844795975834,colour,0.5
025,67,0,1,13,41,641,1281.8957497723168,1283.4631852525054,"[12, 0, 242]",242,a,1.0440347308758646,colour,0.5
025,67,0,1,13,42,642,1283.9738478431245,1285.0951968914596,"[58, 0, 196]",196,a,0.5979140345007181,colour,0.5
025,67,0,1,13,43,643,1285.614461077028,1286.6632207774092,"[89, 0, 165]",165,l,0.525440871133469,colour,0.5
025,67,0,1,13,44,644,1287.1769687569467,1288.3591933877906,"[83, 0, 171]",171,l,0.6588309707585722,colour,0.5
025,67,0,1,13,45,645,1288.880084550823,1290.991231414373,"[17, 0, 237]",237,a,1.5877768342616037,colour,0.5
025,67,0,1,13,46,646,1291.5050888831029,1292.5832393354503,"[56, 0, 198]",198,a,0.5547457645880058,colour,0.5
025,67,0,1,13,47,647,1293.098938427749,1294.047260329011,"[2, 0, 252]",252,a,0.4253441425971687,colour,0.5
025,67,0,1,13,48,648,1294.5676501261769,1295.415225059376,"[21, 0, 233]",233,a,0.3243884361581877,colour,0.5
025,67,0,1,13,49,649,1295.9269368554233,1296.4792167507112,"[1, 0, 253]",253,a,0.02889844437595457,colour,0.5
025,67,0,1,13,50,650,1296.9894496555207,1298.91926237382,"[99, 0, 155]",155,l,1.4064919197699055,colour,0.5
025,67,0,1,14,1,651,1307.3033168915426,1308.4792770091444,"[6, 0, 248]",248,a,0.6521025070687756,colour,0.5
025,67,0,1,14,2,652,1308.9916276234435,1309.9112334309611,"[72, 0, 182]",182,l,0.3962460182374343,colour,0.5
025,67,0,1,14,3,653,1310.4291191557422,1311.5831814401317,"[54, 0, 200]",200,a,0.630681227426976,colour,0.5
025,67,0,1,14,4,654,1312.1010352633893,1313.5592328511411,"[60, 0, 194]",194,a,0.9348736384417862,colour,0.5
025,67,0,1,14,5,655,1314.0709513426991,1314.9671630962985,"[7, 0, 247]",247,a,0.37286417349241674,colour,0.5
025,67,0,1,14,6,656,1315.477217982756,1316.815228761523,"[9, 0, 245]",245,a,0.8147120357025415,colour,0.5
025,67,0,1,14,7,657,1317.336522828904,1318.2232117819367,"[41, 0, 213]",213,a,0.36333940376061946,colour,0.5
025,67,0,1,14,8,658,1318.7427481150953,1319.6632262913045,"[12, 0, 242]",242,a,0.39711484231520444,colour,0.5
025,67,0,1,14,9,659,1320.1802313766675,1321.0072956018848,"[88, 0, 166]",166,l,0.3038135312963277,colour,0.5
025,67,0,1,14,10,660,1321.5240060904762,1322.6632420450915,"[92, 0, 162]",162,l,0.6159395745489746,colour,0.5
025,67,0,1,14,11,661,1323.1816448896425,1324.6232249364257,"[26, 0, 228]",228,a,0.9183687374461442,colour,0.5
025,67,0,1,14,12,662,1325.134788252646,1325.7992374355672,"[89, 0, 165]",165,l,0.14122999657411128,colour,0.5
025,67,0,1,14,13,663,1326.316544600646,1327.3111993238563,"[13, 0, 241]",241,a,0.4719321766169742,colour,0.5
025,67,0,1,14,14,664,1327.8321472007083,1328.8952224126551,"[42, 0, 212]",212,a,0.5399347948841751,colour,0.5
025,67,0,1,14,15,665,1329.410244877683,1330.3592115046922,"[16, 0, 238]",238,a,0.425635194638744,colour,0.5
025,67,0,1,14,16,666,1330.8789719361812,1332.2632005336927,"[59, 0, 195]",195,a,0.8609633313026279,colour,0.5
025,67,0,1,14,17,667,1332.7696044684853,1333.759189606877,"[29, 0, 225]",225,a,0.4650292390724644,colour,0.5
025,67,0,1,14,18,668,1334.2708301169332,1335.2951749148779,"[50, 0, 204]",204,a,0.50135640532244,colour,0.5
025,67,0,1,14,19,669,1335.8020006584702,1336.599259412149,"[31, 0, 223]",223,a,0.27394858899060637,colour,0.5
025,67,0,1,14,20,670,1337.114526061574,1338.5031803058228,"[63, 0, 191]",191,a,0.8736597422976047,colour,0.5
025,67,0,1,14,21,671,1339.0215882703196,1340.039188850671,"[58, 0, 196]",196,a,0.49434555403422564,colour,0.5
025,67,0,1,14,22,672,1340.5527694458142,1341.4471990466118,"[17, 0, 237]",237,a,0.3710958054289222,colour,0.5
025,67,0,1,14,23,673,1341.9591014641337,1342.9592160733882,"[40, 0, 214]",214,a,0.476746155298315,colour,0.5
025,67,0,1,14,24,674,1343.4622514438815,1344.143214980024,"[95, 0, 159]",159,l,0.15766085451468825,colour,0.5
025,67,0,1,14,25,675,1344.6497504592407,1345.7192036120687,"[61, 0, 193]",193,a,0.5513098527444527,colour,0.5
025,67,0,1,14,26,676,1346.238548142137,1347.279207613552,"[97, 0, 157]",157,l,0.5173126789741218,colour,0.5
025,67,0,1,14,27,677,1347.7854914251948,1348.7912112495396,"[91, 0, 163]",163,l,0.48052589455619454,colour,0.5
025,67,0,1,14,28,678,1349.3032499378314,1351.0792567655444,"[23, 0, 231]",231,a,1.2526115922955796,colour,0.5
025,67,0,1,14,29,679,1351.600189676159,1352.7191630458692,"[34, 0, 220]",220,a,0.5956230326555669,colour,0.5
025,67,0,1,14,30,680,1353.2407729778206,1354.5592289126944,"[4, 0, 250]",250,a,0.7950756656937301,colour,0.5
025,67,0,1,14,31,681,1355.068905706983,1356.0714030839736,"[87, 0, 167]",167,l,0.4791753969620913,colour,0.5
025,67,0,1,14,32,682,1356.5845382392872,1357.535170834628,"[19, 0, 235]",235,a,0.4273547260090709,colour,0.5
025,67,0,1,14,33,683,1358.0532708115643,1358.9992796558654,"[94, 0, 160]",160,l,0.4226573257474229,colour,0.5
025,67,0,1,14,34,684,1359.5063464331906,1360.5671629387653,"[2, 0, 252]",252,a,0.5375063408864662,colour,0.5
025,67,0,1,14,35,685,1361.084493340808,1363.8952007511398,"[39, 0, 215]",215,a,2.2871136765461415,colour,0.5
025,67,0,1,14,36,686,1364.413782795542,1365.3591520340415,"[90, 0, 164]",164,l,0.42206379992421716,colour,0.5
025,67,0,1,14,37,687,1365.8668958324706,1366.9511406566016,"[45, 0, 209]",209,a,0.5609023640863597,colour,0.5
025,67,0,1,14,38,688,1367.460683149402,1368.2632836352568,"[35, 0, 219]",219,a,0.27927496121264994,colour,0.5
025,67,0,1,14,39,689,1368.7730655863415,1371.1111728574615,"[22, 0, 232]",232,a,1.8146856479579583,colour,0.5
025,67,0,1,14,40,690,1371.6324980386999,1372.6631735159317,"[82, 0, 172]",172,l,0.507542543229647,colour,0.5
025,67,0,1,14,41,691,1373.1812254437245,1373.863151145517,"[80, 0, 174]",174,l,0.15860805404372513,colour,0.5
025,67,0,1,14,42,692,1374.3759023010498,1375.1751578534022,"[43, 0, 211]",211,a,0.2766952703241259,colour,0.5
025,67,0,1,14,43,693,1375.6876833352726,1377.1511643660488,"[0, 0, 254]",254,a,0.9402267922414467,colour,0.5
025,67,0,1,14,44,694,1377.671915319981,1378.679157358827,"[53, 0, 201]",201,a,0.48384247114881873,colour,0.5
025,67,0,1,14,45,695,1379.1876790029928,1380.1991497654235,"[27, 0, 227]",227,a,0.4880542593309656,colour,0.5
025,67,0,1,14,46,696,1380.7096780545544,1381.6071666566422,"[75, 0, 179]",179,l,0.37417764961719513,colour,0.5
025,67,0,1,14,47,697,1382.1158950700192,1383.247180063161,"[68, 0, 186]",186,l,0.6081772652687505,colour,0.5
025,67,0,1,14,48,698,1383.7566244883928,1385.8392265811563,"[73, 0, 181]",181,l,1.559379361802712,colour,0.5
025,67,0,1,14,49,699,1386.3505004206672,1389.4711752047297,"[57, 0, 197]",197,a,2.5975028593093157,colour,0.5
025,67,0,1,14,50,700,1389.9910297653405,1390.967195785488,"[69, 0, 185]",185,l,0.45279323402792215,colour,0.5
025,67,0,1,15,1,701,1396.899189622607,1397.6231678287731,"[91, 0, 163]",163,l,0.19983072497416288,colour,0.5
025,67,0,1,15,2,702,1398.1343881052453,1398.871170242317,"[88, 0, 166]",166,l,0.21339241554960608,colour,0.5
025,67,0,1,15,3,703,1399.3843562037218,1400.3191770667909,"[14, 0, 240]",240,a,0.4115173937752843,colour,0.5
025,67,0,1,15,4,704,1400.8375428898726,1401.8711477930192,"[36, 0, 218]",218,a,0.5102683508303016,colour,0.5
025,67,0,1,15,5,705,1402.3842959452886,1403.4311864529736,"[13, 0, 241]",241,a,0.5235208722297102,colour,0.5
025,67,0,1,15,6,706,1403.9482065044576,1404.7991803279147,"[84, 0, 170]",170,l,0.327709344914183,colour,0.5
025,67,0,1,15,7,707,1405.307620839798,1406.815169684589,"[37, 0, 217]",217,a,0.9842627047328278,colour,0.5
025,67,0,1,15,8,708,1407.323228953639,1408.335149882012,"[97, 0, 157]",157,l,0.48869150201790035,colour,0.5
025,67,0,1,15,9,709,1408.854512135149,1409.9353604320204,"[61, 0, 193]",193,a,0.5575668829260394,colour,0.5
025,67,0,1,15,10,710,1410.4482340737013,1411.5511523144087,"[56, 0, 198]",198,a,0.5775766187580302,colour,0.5
025,67,0,1,15,11,711,1412.0595739217242,1412.98314772686,"[60, 0, 194]",194,a,0.40013564052060246,colour,0.5
025,67,0,1,15,12,712,1413.4971308325185,1414.4311773944646,"[46, 0, 208]",208,a,0.4107387603726238,colour,0.5
025,67,0,1,15,13,713,1414.950303340098,1415.9271325969603,"[2, 0, 252]",252,a,0.45354154135566205,colour,0.5
025,67,0,1,15,14,714,1416.4345904632937,1417.4711921401322,"[64, 0, 190]",190,a,0.5133064782712609,colour,0.5
025,67,0,1,15,15,715,1417.9814856970916,1418.903140291106,"[59, 0, 195]",195,a,0.3983885400230065,colour,0.5
025,67,0,1,15,16,716,1419.4189882570645,1420.4472151942318,"[38, 0, 216]",216,a,0.5049986924277619,colour,0.5
025,67,0,1,15,17,717,1420.9658590725157,1422.2553570922464,"[53, 0, 201]",201,a,0.766434796503745,colour,0.5
025,67,0,1,15,18,718,1422.7626641156385,1423.7431124225259,"[21, 0, 233]",233,a,0.45581127528566867,colour,0.5
025,67,0,1,15,19,719,1424.2639248163905,1425.0311563631985,"[42, 0, 212]",212,a,0.24379850213881582,colour,0.5
025,67,0,1,15,20,720,1425.5452150871279,1426.399154570303,"[18, 0, 236]",236,a,0.3309483337216079,colour,0.5
025,67,0,1,15,21,721,1426.9202135117957,1429.1831781318178,"[11, 0, 243]",243,a,1.7395414216443896,colour,0.5
025,67,0,1,15,22,722,1429.7015124470927,1430.6311475409893,"[77, 0, 177]",177,l,0.3990198749816045,colour,0.5
025,67,0,1,15,23,723,1431.1462672859197,1432.2471162602305,"[68, 0, 186]",186,l,0.577510452712886,colour,0.5
025,67,0,1,15,24,724,1432.755562286009,1433.6151203750633,"[72, 0, 182]",182,l,0.33689068094827235,colour,0.5
025,67,0,1,15,25,725,1434.130576464464,1435.2711073844694,"[74, 0, 180]",180,l,0.6171289893100038,colour,0.5
025,67,0,1,15,26,726,1435.7868545259116,1436.983230828424,"[71, 0, 183]",183,l,0.6732898423215374,colour,0.5
025,67,0,1,15,27,727,1437.48997189512,1438.439153168234,"[99, 0, 155]",155,l,0.42587504687253386,colour,0.5
025,67,0,1,15,28,728,1438.9586749289883,1439.6711670127697,"[1, 0, 253]",253,a,0.18917522369883955,colour,0.5
025,67,0,1,15,29,729,1440.1774902089965,1441.343167797313,"[83, 0, 171]",171,l,0.642462340532802,colour,0.5
025,67,0,1,15,30,730,1441.8492968274513,1442.7111947552767,"[20, 0, 234]",234,a,0.3388291905866936,colour,0.5
025,67,0,1,15,31,731,1443.2260900079273,1444.151184058399,"[52, 0, 202]",202,a,0.40212416858412325,colour,0.5
025,67,0,1,15,32,732,1444.6635397926439,1445.7351496457122,"[81, 0, 173]",173,l,0.5483359221834689,colour,0.5
025,67,0,1,15,33,733,1446.2418414817657,1447.5111434764694,"[32, 0, 222]",222,a,0.7464506605174392,colour,0.5
025,67,0,1,15,34,734,1448.0195308192633,1450.7831370142521,"[12, 0, 242]",242,a,2.240204658010043,colour,0.5
025,67,0,1,15,35,735,1451.3007474407787,1452.1991127439542,"[27, 0, 227]",227,a,0.3749688862590119,colour,0.5
025,67,0,1,15,36,736,1452.7070633114781,1454.0950944914948,"[26, 0, 228]",228,a,0.8647485844558105,colour,0.5
025,67,0,1,15,37,737,1454.6132791454438,1456.6071071859915,"[39, 0, 215]",215,a,1.470482429722324,colour,0.5
025,67,0,1,15,38,738,1457.1132539393147,1457.9271475630812,"[62, 0, 192]",192,a,0.2906228437786922,colour,0.5
025,67,0,1,15,39,739,1458.4413732776884,1459.3831045613624,"[30, 0, 224]",224,a,0.41839748818892986,colour,0.5
025,67,0,1,15,40,740,1459.8944717423292,1461.2310910634696,"[15, 0, 239]",239,a,0.8131705226842314,colour,0.5
025,67,0,1,15,41,741,1461.7383134099655,1462.4151750408346,"[33, 0, 221]",221,a,0.15360936149954796,colour,0.5
025,67,0,1,15,42,742,1462.9257415331667,1463.8631491762353,"[47, 0, 207]",207,a,0.41425974294543266,colour,0.5
025,67,0,1,15,43,743,1464.3788403916406,1465.1111212635878,"[79, 0, 175]",175,l,0.20970444229897112,colour,0.5
025,67,0,1,15,44,744,1465.6288262131857,1466.5751241402468,"[93, 0, 161]",161,l,0.4229704332537949,colour,0.5
025,67,0,1,15,45,745,1467.0820109300548,1469.263077259995,"[87, 0, 167]",167,l,1.6578424175968394,colour,0.5
025,67,0,1,15,46,746,1469.7694296007976,1470.9111873509828,"[4, 0, 250]",250,a,0.6183207670692354,colour,0.5
025,67,0,1,15,47,747,1471.4257305053761,1472.5671007111669,"[28, 0, 226]",226,a,0.6179974195547402,colour,0.5
025,67,0,1,15,48,748,1473.0818778100656,1474.0871494377498,"[66, 0, 188]",188,l,0.48232734587509185,colour,0.5
025,67,0,1,15,49,749,1474.5976257392904,1478.063084664289,"[63, 0, 191]",191,a,2.942194840288721,colour,0.5
025,67,0,1,15,50,750,1478.5831582031678,1479.5750977526186,"[34, 0, 220]",220,a,0.469084276817739,colour,0.5
025,67,0,1,16,1,751,1484.894411483896,1485.887115094345,"[45, 0, 209]",209,a,0.46859512000810355,colour,0.5
025,67,0,1,16,2,752,1486.395162548055,1487.3030931871617,"[74, 0, 180]",180,l,0.38455352059099823,colour,0.5
025,67,0,1,16,3,753,1487.8170802311506,1488.8151133646024,"[96, 0, 158]",158,l,0.4734862925251946,colour,0.5
025,67,0,1,16,4,754,1489.3339360489044,1490.319107749965,"[83, 0, 171]",171,l,0.4619095856323838,colour,0.5
025,67,0,1,16,5,755,1490.8339029658819,1491.743082884117,"[87, 0, 167]",167,l,0.38585006131324917,colour,0.5
025,67,0,1,16,6,756,1492.255707221222,1493.295102053322,"[35, 0, 219]",219,a,0.5158172460505739,colour,0.5
025,67,0,1,16,7,757,1493.8025634643855,1495.327101640636,"[70, 0, 184]",184,a,1.001080319401808,colour,0.5
025,67,0,1,16,8,758,1495.833874608972,1496.5590674359119,"[50, 0, 204]",204,a,0.20184957922901958,colour,0.5
025,67,0,1,16,9,759,1497.0682231719838,1498.1033857358852,"[18, 0, 236]",236,a,0.5118011991726235,colour,0.5
025,67,0,1,16,10,760,1498.6163519312395,1499.6791183680762,"[59, 0, 195]",195,a,0.5394688751548529,colour,0.5
025,67,0,1,16,11,761,1500.1944566974416,1501.1590826383326,"[7, 0, 247]",247,a,0.44132916699163616,colour,0.5
025,67,0,1,16,12,762,1501.6788233774714,1502.4870983953588,"[44, 0, 210]",210,a,0.2849238932831213,colour,0.5
025,67,0,1,16,13,763,1503.007030543522,1503.8951093788492,"[54, 0, 200]",200,a,0.3649029720108956,colour,0.5
025,67,0,1,16,14,764,1504.413161306642,1505.3751047630794,"[37, 0, 217]",217,a,0.43843046110123396,colour,0.5
025,67,0,1,16,15,765,1505.8819631958613,1506.7670925190905,"[93, 0, 161]",161,l,0.3619345553452149,colour,0.5
025,67,0,1,16,16,766,1507.2881522482494,1507.839102125843,"[94, 0, 160]",160,l,0.027597571373917162,colour,0.5
025,67,0,1,16,17,767,1508.3521423642524,1509.2791020628065,"[33, 0, 221]",221,a,0.40364756458438933,colour,0.5
025,67,0,1,16,18,768,1509.7896673735231,1511.727104555117,"[92, 0, 162]",162,l,1.4144515459192917,colour,0.5
025,67,0,1,16,19,769,1512.2427406320348,1512.9910852975445,"[13, 0, 241]",241,a,0.22502623009495437,colour,0.5
025,67,0,1,16,20,770,1513.5084428749979,1514.7351004149532,"[55, 0, 199]",199,a,0.7034084213664755,colour,0.5
025,67,0,1,16,21,771,1515.2427863180637,1516.0230777956313,"[21, 0, 233]",233,a,0.2569887959398329,colour,0.5
025,67,0,1,16,22,772,1516.5397012442118,1517.247080420144,"[41, 0, 213]",213,a,0.18413754040375352,colour,0.5
025,67,0,1,16,23,773,1517.7583503212081,1518.73506418115,"[23, 0, 231]",231,a,0.45326387987006456,colour,0.5
025,67,0,1,16,24,774,1519.2427855303977,1520.8311192628462,"[68, 0, 186]",186,l,1.0650834323605523,colour,0.5
025,67,0,1,16,25,775,1521.3431622834178,1522.007159331115,"[43, 0, 211]",211,a,0.14073847676627338,colour,0.5
025,67,0,1,16,26,776,1522.515024434193,1523.695099847857,"[48, 0, 206]",206,a,0.6568522888701409,colour,0.5
025,67,0,1,16,27,777,1524.2024750065757,1525.1911613886477,"[73, 0, 181]",181,l,0.4653187158983201,colour,0.5
025,67,0,1,16,28,778,1525.7024891850306,1526.599072729121,"[47, 0, 207]",207,a,0.3656607315642759,colour,0.5
025,67,0,1,16,29,779,1527.1162361406023,1528.4711952909129,"[22, 0, 232]",232,a,0.8321991884149611,colour,0.5
025,67,0,1,16,30,780,1528.9862811650382,1529.9831788407173,"[15, 0, 239]",239,a,0.4738722615875304,colour,0.5
025,67,0,1,16,31,781,1530.4921778261196,1531.4311147730332,"[30, 0, 224]",224,a,0.42739292909391224,colour,0.5
025,67,0,1,16,32,782,1531.9380322827492,1532.839118273463,"[76, 0, 178]",178,l,0.37850089638959616,colour,0.5
025,67,0,1,16,33,783,1533.346044447855,1534.3110929854447,"[53, 0, 201]",201,a,0.4436595533043146,colour,0.5
025,67,0,1,16,34,784,1534.829775854363,1535.7191224797862,"[80, 0, 174]",174,l,0.3674306751927361,colour,0.5
025,67,0,1,16,35,785,1536.2235508833546,1537.0471134245163,"[0, 0, 254]",254,a,0.2982209192123264,colour,0.5
025,67,0,1,16,36,786,1537.5572978861164,1538.6551485114032,"[8, 0, 246]",246,a,0.5785060951020569,colour,0.5
025,67,0,1,16,37,787,1539.1632956081303,1541.9751077562105,"[40, 0, 214]",214,a,2.2886284078704193,colour,0.5
025,67,0,1,16,38,788,1542.4915386142675,1543.119116729591,"[58, 0, 196]",196,a,0.10478507040534168,colour,0.5
025,67,0,1,16,39,789,1543.6277384107234,1544.5911052261945,"[16, 0, 238]",238,a,0.44030359224416316,colour,0.5
025,67,0,1,16,40,790,1545.1120227768552,1546.1031305236975,"[72, 0, 182]",182,l,0.46804570499807596,colour,0.5
025,67,0,1,16,41,791,1546.613320499193,1547.5111627749866,"[52, 0, 202]",202,a,0.38721119286492467,colour,0.5
025,67,0,1,16,42,792,1548.0102092740126,1550.543050903827,"[69, 0, 185]",185,l,2.008073841454461,colour,0.5
025,67,0,1,16,43,793,1551.0474032950588,1551.9430636643665,"[78, 0, 176]",176,l,0.37267630896531045,colour,0.5
025,67,0,1,16,44,794,1552.4537581565091,1553.231081611244,"[90, 0, 164]",164,l,0.25464895728509873,colour,0.5
025,67,0,1,16,45,795,1553.7516596667701,1554.4310931115178,"[42, 0, 212]",212,a,0.15756002999842167,colour,0.5
025,67,0,1,16,46,796,1554.9380011688918,1556.9670740871225,"[3, 0, 251]",251,a,1.505820255028084,colour,0.5
025,67,0,1,16,47,797,1557.4878171641612,1558.383081324515,"[29, 0, 225]",225,a,0.37227616168092936,colour,0.5
025,67,0,1,16,48,798,1558.8939778595231,1559.4790292801335,"[27, 0, 227]",227,a,0.06196653575170785,colour,0.5
025,67,0,1,16,49,799,1559.9879396501929,1560.9112751785433,"[81, 0, 173]",173,l,0.40059959096834064,colour,0.5
025,67,0,1,16,50,800,1561.425254345755,1562.4312215052778,"[77, 0, 177]",177,l,0.4829929454717785,colour,0.5
