id,age,condition,counterbalance,block,trialinblock,trial,tstart,tend,trialstim,trialintensity,response,RT,trialtype,colourfreq
065,70,0,1,Practice,1,NA,4.491303116083145e-06,3.3957700952887535,"[31, 0, 223]",223,a,2.865702592069283,colour,0.5
065,70,0,1,Practice,2,NA,3.89766796072945,6.787776539567858,"[29, 0, 225]",225,a,2.357713976642117,colour,0.5
065,70,0,1,Practice,3,NA,7.297312704613432,10.187961514107883,"[13, 0, 241]",241,a,2.3579208941664547,colour,0.5
065,70,0,1,Practice,4,NA,10.698278511408716,41.95587173826061,"[93, 0, 161]",161,l,30.725829642498866,colour,0.5
065,70,0,1,Practice,5,NA,42.463913606712595,44.219789900351316,"[91, 0, 163]",163,l,1.223229220137,colour,0.5
065,70,0,1,Practice,6,NA,44.73539050924592,46.29995258548297,"[1, 0, 253]",253,a,1.0367331304587424,colour,0.5
065,70,0,1,Practice,7,NA,46.81390010099858,48.99590046936646,"[53, 0, 201]",201,a,1.649342708522454,colour,0.5
065,70,0,1,Practice,8,NA,49.51394238276407,50.88389624492265,"[75, 0, 179]",179,l,0.8373869895003736,colour,0.5
065,70,0,1,Practice,9,NA,51.39665069710463,52.70791572914459,"[97, 0, 157]",157,l,0.7780706700868905,colour,0.5
065,70,0,1,Practice,10,NA,53.213925315998495,54.49993712292053,"[12, 0, 242]",242,a,0.7534308186732233,colour,0.5
065,70,0,1,1,1,1,5.15240219864063,6.368114703334868,"[10, 0, 244]",244,a,0.6821630150079727,colour,0.5
065,70,0,1,1,2,2,6.869525591377169,8.263989700935781,"[19, 0, 235]",235,a,0.8613781789317727,colour,0.5
065,70,0,1,1,3,3,8.76962844049558,10.127996532712132,"[72, 0, 182]",182,l,0.8253989336080849,colour,0.5
065,70,0,1,1,4,4,10.636731013190001,12.199960798025131,"[55, 0, 199]",199,a,1.030702370684594,colour,0.5
065,70,0,1,1,5,5,12.70335392234847,14.023960071615875,"[84, 0, 170]",170,l,0.7880367101170123,colour,0.5
065,70,0,1,1,6,6,14.536616037599742,15.783959314459935,"[28, 0, 226]",226,a,0.7146859378553927,colour,0.5
065,70,0,1,1,7,7,16.286277430830523,17.41594694694504,"[23, 0, 231]",231,a,0.5961675050202757,colour,0.5
065,70,0,1,1,8,8,17.91982961539179,19.06408696807921,"[50, 0, 204]",204,a,0.6115249458234757,colour,0.5
065,70,0,1,1,9,9,19.56960027408786,20.663938885787502,"[45, 0, 209]",209,a,0.5613870972301811,colour,0.5
065,70,0,1,1,10,10,21.169232121435925,22.43197229807265,"[83, 0, 171]",171,l,0.7294223059434444,colour,0.5
065,70,0,1,1,11,11,22.93670605472289,24.143961573019624,"[27, 0, 227]",227,a,0.6747560140211135,colour,0.5
065,70,0,1,1,12,12,24.653199712745845,25.87993947090581,"[85, 0, 169]",169,l,0.6940593214239925,colour,0.5
065,70,0,1,1,13,13,26.38593462179415,27.72806884162128,"[99, 0, 155]",155,l,0.8088551661930978,colour,0.5
065,70,0,1,1,14,14,28.235668323934078,29.4719776106067,"[33, 0, 221]",221,a,0.7027995763346553,colour,0.5
065,70,0,1,1,15,15,29.986543311737478,31.10405538836494,"[4, 0, 250]",250,a,0.5848486423492432,colour,0.5
065,70,0,1,1,16,16,31.619414754211903,32.82412374485284,"[98, 0, 156]",156,l,0.6711123429704458,colour,0.5
065,70,0,1,1,17,17,33.33592509385198,34.48000440141186,"[22, 0, 232]",232,a,0.6108352213632315,colour,0.5
065,70,0,1,1,18,18,34.98576408321969,36.18398035923019,"[70, 0, 184]",184,l,0.6648207711987197,colour,0.5
065,70,0,1,1,19,19,36.687207949580625,37.751973735168576,"[44, 0, 210]",210,a,0.5328090784605592,colour,0.5
065,70,0,1,1,20,20,38.2701122101862,39.38398639019579,"[93, 0, 161]",161,l,0.5815062045585364,colour,0.5
065,70,0,1,1,21,21,39.88609823095612,41.02396360039711,"[57, 0, 197]",197,a,0.60482306801714,colour,0.5
065,70,0,1,1,22,22,41.53600138076581,42.68815592001192,"[53, 0, 201]",201,a,0.6190211300272495,colour,0.5
065,70,0,1,1,23,23,43.203943877480924,44.30411595571786,"[14, 0, 240]",240,a,0.5683170654810965,colour,0.5
065,70,0,1,1,24,24,44.81967101083137,45.864010360557586,"[90, 0, 164]",164,l,0.5115552938077599,colour,0.5
065,70,0,1,1,25,25,46.36946913017891,47.352002094034106,"[97, 0, 157]",157,l,0.44896935881115496,colour,0.5
065,70,0,1,1,26,26,47.8694662428461,48.936089793685824,"[24, 0, 230]",230,a,0.5336053094360977,colour,0.5
065,70,0,1,1,27,27,49.45315293991007,50.759991543600336,"[65, 0, 189]",189,a,0.7742377258837223,colour,0.5
065,70,0,1,1,28,28,51.26897624973208,52.43199058366008,"[49, 0, 205]",205,a,0.6295418366789818,colour,0.5
065,70,0,1,1,29,29,52.936348360264674,54.208006516098976,"[1, 0, 253]",253,a,0.7389100298751146,colour,0.5
065,70,0,1,1,30,30,54.719979173503816,55.712061455473304,"[34, 0, 220]",220,a,0.45962287788279355,colour,0.5
065,70,0,1,1,31,31,56.21979054179974,57.22399272932671,"[39, 0, 215]",215,a,0.47159232711419463,colour,0.5
065,70,0,1,1,32,32,57.7362797728274,58.824084606952965,"[36, 0, 218]",218,a,0.5550089085008949,colour,0.5
065,70,0,1,1,33,33,59.33581473794766,60.303987314226106,"[42, 0, 212]",212,a,0.43489929707720876,colour,0.5
065,70,0,1,1,34,34,60.81899091042578,61.776022990001366,"[35, 0, 219]",219,a,0.4230831910390407,colour,0.5
065,70,0,1,1,35,35,62.286524769384414,63.296109054703265,"[6, 0, 248]",248,a,0.47698469064198434,colour,0.5
065,70,0,1,1,36,36,63.802668175660074,64.74411344062537,"[81, 0, 173]",173,l,0.4084032841492444,colour,0.5
065,70,0,1,1,37,37,65.2533060265705,66.29599484917708,"[0, 0, 254]",254,a,0.5102364760823548,colour,0.5
065,70,0,1,1,38,38,66.80312724364921,67.86401164368726,"[79, 0, 175]",175,l,0.52829924155958,colour,0.5
065,70,0,1,1,39,39,68.36971326055937,69.43997021671385,"[7, 0, 247]",247,a,0.5375928801950067,colour,0.5
065,70,0,1,1,40,40,69.95225854334421,70.97609157743864,"[80, 0, 174]",174,l,0.4904080154374242,colour,0.5
065,70,0,1,1,41,41,71.48665174283087,76.63202612870373,"[86, 0, 168]",168,l,4.612977538257837,colour,0.5
065,70,0,1,1,42,42,77.13555206521414,78.39215176762082,"[52, 0, 202]",202,a,0.7231150146108121,colour,0.5
065,70,0,1,1,43,43,78.90292398328893,80.07206531777047,"[20, 0, 234]",234,a,0.6358183310367167,colour,0.5
065,70,0,1,1,44,44,80.58566476288252,81.712036753539,"[94, 0, 160]",160,l,0.5930268517695367,colour,0.5
065,70,0,1,1,45,45,82.21952170948498,83.32000945718028,"[12, 0, 242]",242,a,0.5676841228269041,colour,0.5
065,70,0,1,1,46,46,83.83577977051027,86.44803293724544,"[63, 0, 191]",191,l,2.079054634552449,colour,0.5
065,70,0,1,1,47,47,86.95276861870661,87.87211157754064,"[92, 0, 162]",162,l,0.3864273738581687,colour,0.5
065,70,0,1,1,48,48,88.38646234129556,89.6640543746762,"[62, 0, 192]",192,a,0.7450614112894982,colour,0.5
065,70,0,1,1,49,49,90.16972519434057,91.17601163359359,"[48, 0, 206]",206,a,0.4737125087995082,colour,0.5
065,70,0,1,1,50,50,91.68638284644112,92.73599361721426,"[82, 0, 172]",172,l,0.5170464643742889,colour,0.5
065,70,0,1,2,1,51,98.26864999393001,99.46407625335269,"[13, 0, 241]",241,a,0.6617834162898362,colour,0.5
065,70,0,1,2,2,52,99.96934510790743,100.93599130748771,"[1, 0, 253]",253,a,0.4337161786388606,colour,0.5
065,70,0,1,2,3,53,101.45247797202319,102.31219728291035,"[19, 0, 235]",235,a,0.326614131918177,colour,0.5
065,70,0,1,2,4,54,102.81994112627581,103.60800510458648,"[10, 0, 244]",244,a,0.2557479727547616,colour,0.5
065,70,0,1,2,5,55,104.11911223782226,104.96805195440538,"[39, 0, 215]",215,a,0.3158165728673339,colour,0.5
065,70,0,1,2,6,56,105.46972622093745,106.30401233676821,"[79, 0, 175]",175,l,0.30176287214271724,colour,0.5
065,70,0,1,2,7,57,106.81935951206833,107.71215192158706,"[94, 0, 160]",160,l,0.35988997761160135,colour,0.5
065,70,0,1,2,8,58,108.21964970976114,109.07201398955658,"[12, 0, 242]",242,a,0.31977591337636113,colour,0.5
065,70,0,1,2,9,59,109.58591081830673,110.42401865008287,"[86, 0, 168]",168,l,0.30513321957550943,colour,0.5
065,70,0,1,2,10,60,110.93574364832602,111.80003503151238,"[52, 0, 202]",202,a,0.3311076080426574,colour,0.5
065,70,0,1,2,11,61,112.30294149904512,113.24802562315017,"[31, 0, 223]",223,a,0.41241074493154883,colour,0.5
065,70,0,1,2,12,62,113.75221626157872,114.76808377797715,"[51, 0, 203]",203,a,0.4825316807255149,colour,0.5
065,70,0,1,2,13,63,115.27021390432492,116.07210990926251,"[7, 0, 247]",247,a,0.2699065760243684,colour,0.5
065,70,0,1,2,14,64,116.58548286813311,117.4240099885501,"[89, 0, 165]",165,l,0.3051515053957701,colour,0.5
065,70,0,1,2,15,65,117.93617544788867,118.71202584635466,"[9, 0, 245]",245,a,0.24315327988006175,colour,0.5
065,70,0,1,2,16,66,119.2189548520837,119.99216280318797,"[47, 0, 207]",207,a,0.23997028078883886,colour,0.5
065,70,0,1,2,17,67,120.50269730458967,121.24812410934828,"[63, 0, 191]",191,l,0.21259077894501388,colour,0.5
065,70,0,1,2,18,68,121.75228587561287,122.79212629585527,"[68, 0, 186]",186,l,0.5066040332894772,colour,0.5
065,70,0,1,2,19,69,123.30225209519267,124.18409424391575,"[5, 0, 249]",249,a,0.3485512253828347,colour,0.5
065,70,0,1,2,20,70,124.68623912706971,125.45601641992107,"[82, 0, 172]",172,l,0.23713086103089154,colour,0.5
065,70,0,1,2,21,71,125.9695468924474,126.87206762749702,"[99, 0, 155]",155,l,0.36988777690567076,colour,0.5
065,70,0,1,2,22,72,127.38568856660277,128.18401243933477,"[53, 0, 201]",201,a,0.26516961120069027,colour,0.5
065,70,0,1,2,23,73,128.68625420494936,129.40814568009228,"[93, 0, 161]",161,l,0.18929797573946416,colour,0.5
065,70,0,1,2,24,74,129.9190016251523,130.68022248265333,"[46, 0, 208]",208,a,0.22805344313383102,colour,0.5
065,70,0,1,2,25,75,131.18599178874865,132.16803392535076,"[18, 0, 236]",236,a,0.4492199053056538,colour,0.5
065,70,0,1,2,26,76,132.66965910908766,133.49601916596293,"[92, 0, 162]",162,l,0.2938647228293121,colour,0.5
065,70,0,1,2,27,77,134.0029074298218,134.8240233338438,"[37, 0, 217]",217,a,0.28854582319036126,colour,0.5
065,70,0,1,2,28,78,135.33555520907976,136.25602161698043,"[64, 0, 190]",190,l,0.38718542945571244,colour,0.5
065,70,0,1,2,29,79,136.76961817475967,137.54403298348188,"[32, 0, 222]",222,a,0.241847294382751,colour,0.5
065,70,0,1,2,30,80,138.05277035105973,138.80801947647706,"[20, 0, 234]",234,a,0.22252922994084656,colour,0.5
065,70,0,1,2,31,81,139.3190515418537,140.12012950144708,"[91, 0, 163]",163,l,0.268005502410233,colour,0.5
065,70,0,1,2,32,82,140.6360820303671,141.47213672846556,"[81, 0, 173]",173,l,0.30334891797974706,colour,0.5
065,70,0,1,2,33,83,141.9859132564161,142.80002219951712,"[8, 0, 246]",246,a,0.2812398746609688,colour,0.5
065,70,0,1,2,34,84,143.30259695765562,144.07208937802352,"[4, 0, 250]",250,a,0.23663746728561819,colour,0.5
065,70,0,1,2,35,85,144.58554510376416,145.35216634487733,"[29, 0, 225]",225,a,0.23337683407589793,colour,0.5
065,70,0,1,2,36,86,145.86924873897806,146.600014885189,"[23, 0, 231]",231,a,0.19788135844282806,colour,0.5
065,70,0,1,2,37,87,147.10221622954123,147.9440232310444,"[69, 0, 185]",185,l,0.30857286020182073,colour,0.5
065,70,0,1,2,38,88,148.45286710513756,149.2320637907833,"[11, 0, 243]",243,a,0.24663173779845238,colour,0.5
065,70,0,1,2,39,89,149.73577900067903,150.60019485512748,"[54, 0, 200]",200,a,0.331419748486951,colour,0.5
065,70,0,1,2,40,90,151.10296241543256,151.97614996344782,"[72, 0, 182]",182,l,0.3407117831520736,colour,0.5
065,70,0,1,2,41,91,152.48561940155923,153.68006047746167,"[77, 0, 177]",177,l,0.6612845687195659,colour,0.5
065,70,0,1,2,42,92,154.18634338793345,154.93603333248757,"[71, 0, 183]",183,l,0.21724818460643291,colour,0.5
065,70,0,1,2,43,93,155.45363606791943,156.20816723792814,"[96, 0, 158]",158,l,0.22275122487917542,colour,0.5
065,70,0,1,2,44,94,156.7194719852414,157.47203375096433,"[85, 0, 169]",169,l,0.21993746934458613,colour,0.5
065,70,0,1,2,45,95,157.9867576076649,158.88817702885717,"[44, 0, 210]",210,a,0.3694197265431285,colour,0.5
065,70,0,1,2,46,96,159.4034998230636,160.16019255830906,"[40, 0, 214]",214,a,0.2247790154069662,colour,0.5
065,70,0,1,2,47,97,160.66918688826263,161.3521644200664,"[42, 0, 212]",212,a,0.15010333037935197,colour,0.5
065,70,0,1,2,48,98,161.86921377154067,162.5840453535784,"[25, 0, 229]",229,a,0.18195321038365364,colour,0.5
065,70,0,1,2,49,99,163.086114206817,163.87216258514673,"[95, 0, 159]",159,l,0.25339007703587413,colour,0.5
065,70,0,1,2,50,100,164.38566803513095,165.1040448017884,"[78, 0, 176]",176,l,0.18529821443371475,colour,0.5
065,70,0,1,3,1,101,182.48550872481428,183.32003961270675,"[27, 0, 227]",227,a,0.3013721350580454,colour,0.5
065,70,0,1,3,2,102,183.83533193077892,184.84015647438355,"[70, 0, 184]",184,l,0.4714835751801729,colour,0.5
065,70,0,1,3,3,103,185.3524707860779,186.3680752448272,"[74, 0, 180]",180,l,0.4827568840701133,colour,0.5
065,70,0,1,3,4,104,186.88607352902181,187.78406325448304,"[77, 0, 177]",177,l,0.36539013078436255,colour,0.5
065,70,0,1,3,5,105,188.28571506473236,191.72016973001882,"[0, 0, 254]",254,a,2.9014916017185897,colour,0.5
065,70,0,1,3,6,106,192.2351540781092,192.90413212426938,"[58, 0, 196]",196,a,0.13546352391131222,colour,0.5
065,70,0,1,3,7,107,193.41915079811588,194.31221781438217,"[62, 0, 192]",192,l,0.3602409353479743,colour,0.5
065,70,0,1,3,8,108,194.81913591292687,195.76807126682252,"[75, 0, 179]",179,l,0.4161108769476414,colour,0.5
065,70,0,1,3,9,109,196.28585557616316,198.97611242951825,"[59, 0, 195]",195,a,2.157481780042872,colour,0.5
065,70,0,1,3,10,110,199.48572654952295,200.16815230133943,"[49, 0, 205]",205,a,0.14951177104376256,colour,0.5
065,70,0,1,3,11,111,200.6856055429671,201.24815041502006,"[38, 0, 216]",216,a,0.02952855546027422,colour,0.5
065,70,0,1,3,12,112,201.75212739943527,202.32011596346274,"[80, 0, 174]",174,l,0.03482435760088265,colour,0.5
065,70,0,1,3,13,113,202.8367181168869,203.82416673237458,"[66, 0, 188]",188,l,0.4555419534444809,colour,0.5
065,70,0,1,3,14,114,204.33611532952636,206.59209460066631,"[86, 0, 168]",168,l,1.723462764173746,colour,0.5
065,70,0,1,3,15,115,207.10364027041942,209.06418866245076,"[60, 0, 194]",194,l,1.4289195446763188,colour,0.5
065,70,0,1,3,16,116,209.56934876507148,210.16807210096158,"[4, 0, 250]",250,a,0.06611507944762707,colour,0.5
065,70,0,1,3,17,117,210.6854384050239,211.3281748346053,"[98, 0, 156]",156,l,0.10956676956266165,colour,0.5
065,70,0,1,3,18,118,211.83611244242638,212.40018818248063,"[31, 0, 223]",223,a,0.031600616639479995,colour,0.5
065,70,0,1,3,19,119,212.90202541649342,213.59207503171638,"[93, 0, 161]",161,l,0.1568209275137633,colour,0.5
065,70,0,1,3,20,120,214.1017995076254,214.7042220130097,"[67, 0, 187]",187,l,0.06898465473204851,colour,0.5
065,70,0,1,3,21,121,215.21925287740305,216.76013558381237,"[76, 0, 178]",178,l,1.0082064401358366,colour,0.5
065,70,0,1,3,22,122,217.26960598421283,219.72004237142392,"[33, 0, 221]",221,a,1.9181377049535513,colour,0.5
065,70,0,1,3,23,123,220.2351630604826,220.81606230745092,"[11, 0, 243]",243,a,0.047497646883130074,colour,0.5
065,70,0,1,3,24,124,221.3189793615602,222.02421382605098,"[14, 0, 240]",240,a,0.17232048395089805,colour,0.5
065,70,0,1,3,25,125,222.53605238813907,223.37605808558874,"[42, 0, 212]",212,a,0.3074798872694373,colour,0.5
065,70,0,1,3,26,126,223.88561734836549,224.44005362526514,"[90, 0, 164]",164,l,0.021504331147298217,colour,0.5
065,70,0,1,3,27,127,224.9524311348796,226.84015326644294,"[43, 0, 211]",211,a,1.35490503301844,colour,0.5
065,70,0,1,3,28,128,227.35242459061556,227.97618557233363,"[7, 0, 247]",247,a,0.09097564266994596,colour,0.5
065,70,0,1,3,29,129,228.48515552165918,229.09622300369665,"[21, 0, 233]",233,a,0.07765304995700717,colour,0.5
065,70,0,1,3,30,130,229.6018142644316,230.1762153429445,"[6, 0, 248]",248,a,0.04101423523388803,colour,0.5
065,70,0,1,3,31,131,230.68661606963724,232.10406693723053,"[10, 0, 244]",244,a,0.8855034636799246,colour,0.5
065,70,0,1,3,32,132,232.61928803729825,233.17607451067306,"[16, 0, 238]",238,a,0.02422922453843057,colour,0.5
065,70,0,1,3,33,133,233.685730334837,236.21621391852386,"[95, 0, 159]",159,l,1.9977036982309073,colour,0.5
065,70,0,1,3,34,134,236.71881177439354,237.3761190380901,"[56, 0, 198]",198,l,0.12428549351170659,colour,0.5
065,70,0,1,3,35,135,237.88584960927255,238.4640987094026,"[94, 0, 160]",160,l,0.045602026861160994,colour,0.5
065,70,0,1,3,36,136,238.96929795015603,239.53605912509374,"[28, 0, 226]",226,a,0.034215475199744105,colour,0.5
065,70,0,1,3,37,137,240.05203026067466,240.67211613291875,"[72, 0, 182]",182,l,0.08687547035515308,colour,0.5
065,70,0,1,3,38,138,241.1857114075683,243.1120221891906,"[18, 0, 236]",236,a,1.3935337832663208,colour,0.5
065,70,0,1,3,39,139,243.61931177671067,244.29607825772837,"[37, 0, 217]",217,a,0.14426922239363194,colour,0.5
065,70,0,1,3,40,140,244.8031567572616,245.42407671525143,"[64, 0, 190]",190,l,0.08893694495782256,colour,0.5
065,70,0,1,3,41,141,245.93590084137395,246.4962225544732,"[29, 0, 225]",225,a,0.027736233780160546,colour,0.5
065,70,0,1,3,42,142,247.00213173031807,247.6080994203221,"[89, 0, 165]",165,l,0.0729459198191762,colour,0.5
065,70,0,1,3,43,143,248.11898455838673,249.09614119911566,"[52, 0, 202]",202,a,0.4443048955872655,colour,0.5
065,70,0,1,3,44,144,249.60237053548917,250.22409474430606,"[24, 0, 230]",230,a,0.088946569012478,colour,0.5
065,70,0,1,3,45,145,250.7358152512461,251.3440638447646,"[47, 0, 207]",207,a,0.075599595438689,colour,0.5
065,70,0,1,3,46,146,251.8528191773221,253.4401453747414,"[19, 0, 235]",235,a,1.0550101918634027,colour,0.5
065,70,0,1,3,47,147,253.95285298977979,255.12027931585908,"[3, 0, 251]",251,a,0.635151383234188,colour,0.5
065,70,0,1,3,48,148,255.63563386979513,256.2401377395727,"[61, 0, 193]",193,l,0.07167907198891044,colour,0.5
065,70,0,1,3,49,149,256.75262817158364,257.3521701944992,"[85, 0, 169]",169,l,0.06700113508850336,colour,0.5
065,70,0,1,3,50,150,257.8686892599799,258.4082294094842,"[40, 0, 214]",214,a,0.006457105977460742,colour,0.5
065,70,0,1,4,1,151,326.0849872287363,327.28819775255397,"[83, 0, 171]",171,l,0.6699311493430287,colour,0.5
065,70,0,1,4,2,152,327.8022857795004,328.6401305536274,"[94, 0, 160]",160,l,0.3052224025595933,colour,0.5
065,70,0,1,4,3,153,329.15137691493146,330.04826885531656,"[22, 0, 232]",232,a,0.36336939805187285,colour,0.5
065,70,0,1,4,4,154,330.55233502271585,332.1200820226222,"[39, 0, 215]",215,a,1.0352122073527426,colour,0.5
065,70,0,1,4,5,155,332.6356258497108,333.2001324270386,"[18, 0, 236]",236,a,0.03191949403844774,colour,0.5
065,70,0,1,4,6,156,333.70243771141395,334.68814308801666,"[50, 0, 204]",204,a,0.4527490499895066,colour,0.5
065,70,0,1,4,7,157,335.20234564109705,336.16820940421894,"[47, 0, 207]",207,a,0.4333424442447722,colour,0.5
065,70,0,1,4,8,158,336.6852895526681,337.80827291007154,"[78, 0, 176]",176,l,0.5900857374072075,colour,0.5
065,70,0,1,4,9,159,338.31895369733684,338.92023799661547,"[89, 0, 165]",165,l,0.06872705067507923,colour,0.5
065,70,0,1,4,10,160,339.43563329218887,340.57613308914006,"[8, 0, 246]",246,a,0.6079306784085929,colour,0.5
065,70,0,1,4,11,161,341.0856339659076,341.98413537070155,"[19, 0, 235]",235,a,0.3659233038779348,colour,0.5
065,70,0,1,4,12,162,342.5017669782974,343.11223969305865,"[7, 0, 247]",247,a,0.07741341064684093,colour,0.5
065,70,0,1,4,13,163,343.6189431750681,344.40021930029616,"[15, 0, 239]",239,a,0.24869321240112185,colour,0.5
065,70,0,1,4,14,164,344.9022432412021,345.5121555146761,"[74, 0, 180]",180,l,0.07731267903000116,colour,0.5
065,70,0,1,4,15,165,346.0188702244777,346.60821715486236,"[14, 0, 240]",240,a,0.056182082276791334,colour,0.5
065,70,0,1,4,16,166,347.11890724510886,347.7681148957927,"[6, 0, 248]",248,a,0.1166019607335329,colour,0.5
065,70,0,1,4,17,167,348.2851013701875,348.92013918957673,"[85, 0, 169]",169,l,0.10200000903569162,colour,0.5
065,70,0,1,4,18,168,349.4355402595829,350.1201984738,"[98, 0, 156]",156,l,0.15201595285907388,colour,0.5
065,70,0,1,4,19,169,350.63636978995055,351.5282787103206,"[13, 0, 241]",241,a,0.3601142184343189,colour,0.5
065,70,0,1,4,20,170,352.03538511972874,352.8962384662591,"[3, 0, 251]",251,a,0.3281058620195836,colour,0.5
065,70,0,1,4,21,171,353.4019266094547,354.2242731102742,"[1, 0, 253]",253,a,0.28946780832484365,colour,0.5
065,70,0,1,4,22,172,354.7352673211135,355.56835010810755,"[26, 0, 228]",228,a,0.30021532252430916,colour,0.5
065,70,0,1,4,23,173,356.0854735649191,357.3281498120632,"[55, 0, 199]",199,a,0.7099935647565871,colour,0.5
065,70,0,1,4,24,174,357.8356543369591,358.44017553003505,"[99, 0, 155]",155,l,0.07154658087529242,colour,0.5
065,70,0,1,4,25,175,358.9518469541799,359.5122697202023,"[12, 0, 242]",242,a,0.027477346593514085,colour,0.5
065,70,0,1,4,26,176,360.01860652514733,360.60823447816074,"[86, 0, 168]",168,l,0.05680187209509313,colour,0.5
065,70,0,1,4,27,177,361.1182913049124,361.9362739340868,"[45, 0, 209]",209,a,0.2848286882508546,colour,0.5
065,70,0,1,4,28,178,362.4520022224169,363.032249920303,"[91, 0, 163]",163,l,0.047475190833210945,colour,0.5
065,70,0,1,4,29,179,363.5353636259679,364.0961171388626,"[90, 0, 164]",164,l,0.028005386935546994,colour,0.5
065,70,0,1,4,30,180,364.6017260439694,365.4401575650554,"[29, 0, 225]",225,a,0.30539499409496784,colour,0.5
065,70,0,1,4,31,181,365.95203205710277,366.6881203111261,"[87, 0, 167]",167,l,0.20337894512340426,colour,0.5
065,70,0,1,4,32,182,367.202162463218,367.96017241175286,"[53, 0, 201]",201,a,0.22538982261903584,colour,0.5
065,70,0,1,4,33,183,368.4688241253607,369.48016833118163,"[79, 0, 175]",175,l,0.4782024556770921,colour,0.5
065,70,0,1,4,34,184,369.9846091954969,370.5603104850743,"[88, 0, 166]",166,l,0.04222815064713359,colour,0.5
065,70,0,1,4,35,185,371.0684912609868,372.02420003153384,"[9, 0, 245]",245,a,0.42278259922750294,colour,0.5
065,70,0,1,4,36,186,372.5348727987148,373.28814289555885,"[66, 0, 188]",188,l,0.22008215100504458,colour,0.5
065,70,0,1,4,37,187,373.80279104295187,374.7601532279514,"[41, 0, 213]",213,a,0.42543402942828834,colour,0.5
065,70,0,1,4,38,188,375.26859513670206,376.1282294350676,"[34, 0, 220]",220,a,0.32683644792996347,colour,0.5
065,70,0,1,4,39,189,376.63485303730704,377.5201354683377,"[31, 0, 223]",223,a,0.35204668575897813,colour,0.5
065,70,0,1,4,40,190,378.03502614214085,378.5841640504077,"[80, 0, 174]",174,l,0.01606384734623134,colour,0.5
065,70,0,1,4,41,191,379.10230316687375,379.8001556531526,"[69, 0, 185]",185,l,0.16543767368420959,colour,0.5
065,70,0,1,4,42,192,380.30219114292413,381.2481302046217,"[35, 0, 219]",219,a,0.41292146197520196,colour,0.5
065,70,0,1,4,43,193,381.7515457852278,382.8003006556537,"[58, 0, 196]",196,a,0.515570132760331,colour,0.5
065,70,0,1,4,44,194,383.3024314236827,384.33618109393865,"[84, 0, 170]",170,l,0.5014795395545661,colour,0.5
065,70,0,1,4,45,195,384.8524354977999,385.4482873333618,"[28, 0, 226]",226,a,0.0635922912042588,colour,0.5
065,70,0,1,4,46,196,385.9516105230432,386.6083143579308,"[64, 0, 190]",190,l,0.12363651068881154,colour,0.5
065,70,0,1,4,47,197,387.11861274880357,387.8402786999941,"[72, 0, 182]",182,l,0.18892359966412187,colour,0.5
065,70,0,1,4,48,198,388.3524002095219,389.2162668509409,"[32, 0, 222]",222,a,0.3315538438037038,colour,0.5
065,70,0,1,4,49,199,389.7188281354029,390.4561575728003,"[67, 0, 187]",187,l,0.20478245429694653,colour,0.5
065,70,0,1,4,50,200,390.96947727841325,391.808159025386,"[25, 0, 229]",229,a,0.30681454367004335,colour,0.5
065,70,0,1,5,1,201,398.9343763894867,400.2481449614279,"[74, 0, 180]",180,a,0.7801732074003667,colour,0.5
065,70,0,1,5,2,202,400.75130903325044,401.3443336393684,"[60, 0, 194]",194,l,0.05968941212631762,colour,0.5
065,70,0,1,5,3,203,401.8517451316584,403.03222136874683,"[71, 0, 183]",183,l,0.6475972237531096,colour,0.5
065,70,0,1,5,4,204,403.53528984147124,404.4002728741616,"[39, 0, 215]",215,a,0.33228687662631273,colour,0.5
065,70,0,1,5,5,205,404.90222078491934,405.76821979810484,"[6, 0, 248]",248,a,0.3335909373126924,colour,0.5
065,70,0,1,5,6,206,406.28494578110985,407.15224885521457,"[36, 0, 218]",218,a,0.33426911337301135,colour,0.5
065,70,0,1,5,7,207,407.66861393582076,408.32823450374417,"[49, 0, 205]",205,a,0.12694654730148613,colour,0.5
065,70,0,1,5,8,208,408.8348773540929,409.4401819461491,"[83, 0, 171]",171,l,0.07222764380276203,colour,0.5
065,70,0,1,5,9,209,409.9519579517655,410.8002948812209,"[81, 0, 173]",173,l,0.3156815152615309,colour,0.5
065,70,0,1,5,10,210,411.30205833073705,412.096195735503,"[77, 0, 177]",177,l,0.26155481254681945,colour,0.5
065,70,0,1,5,11,211,412.60173310153186,413.4481567670591,"[69, 0, 185]",185,l,0.31357063725590706,colour,0.5
065,70,0,1,5,12,212,413.9519768790342,414.640142102493,"[65, 0, 189]",189,l,0.15553836058825254,colour,0.5
065,70,0,1,5,13,213,415.1516733360477,415.84018887532875,"[93, 0, 161]",161,l,0.15559289674274623,colour,0.5
065,70,0,1,5,14,214,416.3518176327925,417.19215985178016,"[8, 0, 246]",246,a,0.3075661831535399,colour,0.5
065,70,0,1,5,15,215,417.70184230268933,418.5281924144365,"[41, 0, 213]",213,a,0.29361962992697954,colour,0.5
065,70,0,1,5,16,216,419.0354338816833,419.7921442608349,"[55, 0, 199]",199,a,0.2241951555479318,colour,0.5
065,70,0,1,5,17,217,420.30200411519036,421.22414831840433,"[35, 0, 219]",219,a,0.3895721975713968,colour,0.5
065,70,0,1,5,18,218,421.73527245409787,422.44016205635853,"[72, 0, 182]",182,l,0.17222135607153177,colour,0.5
065,70,0,1,5,19,219,422.95157427247614,424.00814709160477,"[56, 0, 198]",198,a,0.5235516906250268,colour,0.5
065,70,0,1,5,20,220,424.51828572293743,425.45618163305335,"[47, 0, 207]",207,a,0.4049687762744725,colour,0.5
065,70,0,1,5,21,221,425.9685508017428,426.8161899866536,"[27, 0, 227]",227,a,0.31492602615617216,colour,0.5
065,70,0,1,5,22,222,427.3181667695753,427.9362989568617,"[0, 0, 254]",254,a,0.08507544966414571,colour,0.5
065,70,0,1,5,23,223,428.45142638264224,429.32835287973285,"[25, 0, 229]",229,a,0.3437978997826576,colour,0.5
065,70,0,1,5,24,224,429.8360101066064,430.63215701584704,"[33, 0, 221]",221,a,0.2642521171364933,colour,0.5
065,70,0,1,5,25,225,431.13469359860756,432.0883020774927,"[53, 0, 201]",201,a,0.4204420268069953,colour,0.5
065,70,0,1,5,26,226,432.602238685824,433.47218484873883,"[94, 0, 160]",160,l,0.33764780149795115,colour,0.5
065,70,0,1,5,27,227,433.98454695986584,434.7922963211313,"[45, 0, 209]",209,a,0.2744253952987492,colour,0.5
065,70,0,1,5,28,228,435.3016576487571,436.19219193211757,"[32, 0, 222]",222,a,0.3576655355282128,colour,0.5
065,70,0,1,5,29,229,436.7019038966391,437.5361483080778,"[42, 0, 212]",212,a,0.301588355563581,colour,0.5
065,70,0,1,5,30,230,438.0521162354853,438.88820622186176,"[88, 0, 166]",166,l,0.30368030653335154,colour,0.5
065,70,0,1,5,31,231,439.4018919628579,440.2243196265772,"[22, 0, 232]",232,a,0.28979438496753573,colour,0.5
065,70,0,1,5,32,232,440.7352823987603,441.5921645355411,"[16, 0, 238]",238,a,0.3243313040584326,colour,0.5
065,70,0,1,5,33,233,442.10153933707625,443.0242346783634,"[63, 0, 191]",191,l,0.38972393702715635,colour,0.5
065,70,0,1,5,34,234,443.53444741503336,444.4161824157927,"[86, 0, 168]",168,l,0.348330513574183,colour,0.5
065,70,0,1,5,35,235,444.91851721378043,445.77619590237737,"[50, 0, 204]",204,a,0.3250405977014452,colour,0.5
065,70,0,1,5,36,236,446.2855909143109,447.14429039508104,"[91, 0, 163]",163,l,0.3264466733671725,colour,0.5
065,70,0,1,5,37,237,447.65182539634407,448.5043009945657,"[28, 0, 226]",226,a,0.3197986902669072,colour,0.5
065,70,0,1,5,38,238,449.01866394886747,449.9041927559301,"[12, 0, 242]",242,a,0.3530337940901518,colour,0.5
065,70,0,1,5,39,239,450.4186134545598,451.24018425587565,"[17, 0, 237]",237,a,0.28903119661845267,colour,0.5
065,70,0,1,5,40,240,451.7521232289728,452.59217319707386,"[34, 0, 220]",220,a,0.3076896918937564,colour,0.5
065,70,0,1,5,41,241,453.10199198895134,453.9681985611096,"[73, 0, 181]",181,l,0.3337022557388991,colour,0.5
065,70,0,1,5,42,242,454.4851872809231,455.2881554067135,"[29, 0, 225]",225,a,0.27034447086043656,colour,0.5
065,70,0,1,5,43,243,455.80187964392826,456.8802875413094,"[59, 0, 195]",195,a,0.545812473166734,colour,0.5
065,70,0,1,5,44,244,457.38522532815114,458.67218510527164,"[18, 0, 236]",236,a,0.7543534457217902,colour,0.5
065,70,0,1,5,45,245,459.18519587861374,460.3441562356893,"[90, 0, 164]",164,l,0.6263617249205709,colour,0.5
065,70,0,1,5,46,246,460.8515096628107,461.74420519010164,"[78, 0, 176]",176,l,0.3597331054043025,colour,0.5
065,70,0,1,5,47,247,462.2518418855034,463.2161629109178,"[85, 0, 169]",169,l,0.43171020271256566,colour,0.5
065,70,0,1,5,48,248,463.7183748418465,464.5761731895618,"[61, 0, 193]",193,a,0.3250399560201913,colour,0.5
065,70,0,1,5,49,249,465.08518163487315,465.9362684804946,"[2, 0, 252]",252,a,0.31847281474620104,colour,0.5
065,70,0,1,5,50,250,466.4519329292234,467.2801661498379,"[23, 0, 231]",231,a,0.2956900871358812,colour,0.5
065,70,0,1,6,1,251,476.2512939553708,477.39224768732674,"[16, 0, 238]",238,a,0.6078257760964334,colour,0.5
065,70,0,1,6,2,252,477.901583350962,478.7601715135388,"[21, 0, 233]",233,a,0.32578229205682874,colour,0.5
065,70,0,1,6,3,253,479.2700316887349,480.1123166854959,"[32, 0, 222]",222,a,0.3112480293493718,colour,0.5
065,70,0,1,6,4,254,480.6186737010721,481.488197688479,"[49, 0, 205]",205,a,0.3371034003794193,colour,0.5
065,70,0,1,6,5,255,482.0025510187261,482.9203275004402,"[94, 0, 160]",160,l,0.3859362257644534,colour,0.5
065,70,0,1,6,6,256,483.435133803403,484.3202311315108,"[99, 0, 155]",155,l,0.352507357718423,colour,0.5
065,70,0,1,6,7,257,484.8356613945216,485.68024782603607,"[7, 0, 247]",247,a,0.31254374934360385,colour,0.5
065,70,0,1,6,8,258,486.18510380829684,487.0242083724588,"[35, 0, 219]",219,a,0.30649277893826365,colour,0.5
065,70,0,1,6,9,259,487.535121741239,488.3763124817051,"[33, 0, 221]",221,a,0.3086174516938627,colour,0.5
065,70,0,1,6,10,260,488.8851233131718,489.68818992516026,"[59, 0, 195]",195,a,0.27048466145060956,colour,0.5
065,70,0,1,6,11,261,490.20173290907405,491.08019636943936,"[31, 0, 223]",223,a,0.34583274787291884,colour,0.5
065,70,0,1,6,12,262,491.5853904772084,492.5043042025063,"[89, 0, 165]",165,l,0.38656981009989977,colour,0.5
065,70,0,1,6,13,263,493.01811120659113,493.9362325507682,"[77, 0, 177]",177,l,0.38519356888718903,colour,0.5
065,70,0,1,6,14,264,494.45170034770854,494.99233250762336,"[11, 0, 243]",243,a,0.00799054023809731,colour,0.5
065,70,0,1,6,15,265,495.50071570952423,496.3842112724669,"[38, 0, 216]",216,a,0.34985336125828326,colour,0.5
065,70,0,1,6,16,266,496.9014438020531,497.7442366287578,"[37, 0, 217]",217,a,0.30985638964921236,colour,0.5
065,70,0,1,6,17,267,498.25116884266026,499.0883194007911,"[6, 0, 248]",248,a,0.30395812122151256,colour,0.5
065,70,0,1,6,18,268,499.60192333720624,500.544218728086,"[30, 0, 224]",224,a,0.40984304435551167,colour,0.5
065,70,0,1,6,19,269,501.0511076336261,501.8801916213706,"[41, 0, 213]",213,a,0.2958350896369666,colour,0.5
065,70,0,1,6,20,270,502.3846889468841,503.3281892705709,"[72, 0, 182]",182,l,0.4105337313376367,colour,0.5
065,70,0,1,6,21,271,503.835256542312,504.7923620855436,"[63, 0, 191]",191,l,0.4246762946713716,colour,0.5
065,70,0,1,6,22,272,505.3012239243835,505.9443090658169,"[78, 0, 176]",176,l,0.10992093500681221,colour,0.5
065,70,0,1,6,23,273,506.451470332453,507.37630157452077,"[54, 0, 200]",200,a,0.39198944182135165,colour,0.5
065,70,0,1,6,24,274,507.8845622302033,508.9202235606499,"[80, 0, 174]",174,l,0.5025709085166454,colour,0.5
065,70,0,1,6,25,275,509.43448097095825,510.3362353097182,"[1, 0, 253]",253,a,0.3685968692880124,colour,0.5
065,70,0,1,6,26,276,510.851791968802,511.7123023776803,"[26, 0, 228]",228,a,0.3280051301699132,colour,0.5
065,70,0,1,6,27,277,512.2187309323344,513.1922458268236,"[88, 0, 166]",166,l,0.4412893552798778,colour,0.5
065,70,0,1,6,28,278,513.7015532597434,514.6722203935497,"[83, 0, 171]",171,l,0.43791708280332386,colour,0.5
065,70,0,1,6,29,279,515.1850409309845,516.4242428909056,"[53, 0, 201]",201,a,0.7066100644879043,colour,0.5
065,70,0,1,6,30,280,516.935948319966,517.8964014337398,"[43, 0, 211]",211,a,0.4287883366923779,colour,0.5
065,70,0,1,6,31,281,518.4016677220352,519.3282970602158,"[79, 0, 175]",175,l,0.39398386888206005,colour,0.5
065,70,0,1,6,32,282,519.8351696047466,521.2083083908074,"[61, 0, 193]",193,a,0.8406861186958849,colour,0.5
065,70,0,1,6,33,283,521.718390240334,522.776237285696,"[66, 0, 188]",188,a,0.5252862677443773,colour,0.5
065,70,0,1,6,34,284,523.2840183421504,524.216201727977,"[23, 0, 231]",231,a,0.39860085351392627,colour,0.5
065,70,0,1,6,35,285,524.7187922054436,525.6243278391194,"[85, 0, 169]",169,l,0.3733806707896292,colour,0.5
065,70,0,1,6,36,286,526.135514210444,527.0642422363162,"[42, 0, 212]",212,a,0.3966429978609085,colour,0.5
065,70,0,1,6,37,287,527.5677973658312,528.4323505237699,"[28, 0, 226]",226,a,0.3314184651244432,colour,0.5
065,70,0,1,6,38,288,528.9349778934848,530.0242272997275,"[62, 0, 192]",192,a,0.5566174106206745,colour,0.5
065,70,0,1,6,39,289,530.5350194051862,531.5363699824084,"[39, 0, 215]",215,a,0.4687843460123986,colour,0.5
065,70,0,1,6,40,290,532.0512385207694,533.0003201605286,"[36, 0, 218]",218,a,0.41607045591808856,colour,0.5
065,70,0,1,6,41,291,533.517693842994,534.4243092967663,"[81, 0, 173]",173,l,0.37331715202890337,colour,0.5
065,70,0,1,6,42,292,534.9351668460295,535.8163577662781,"[18, 0, 236]",236,a,0.34876552131026983,colour,0.5
065,70,0,1,6,43,293,536.3177869399078,537.2482335029636,"[91, 0, 163]",163,l,0.39733753469772637,colour,0.5
065,70,0,1,6,44,294,537.7513497751206,538.6082351196092,"[75, 0, 179]",179,l,0.3239989527501166,colour,0.5
065,70,0,1,6,45,295,539.1177677558735,540.0323221005965,"[22, 0, 232]",232,a,0.3814228600822389,colour,0.5
065,70,0,1,6,46,296,540.5341814700514,541.4483338496648,"[69, 0, 185]",185,l,0.3807398723438382,colour,0.5
065,70,0,1,6,47,297,541.9519403076265,542.824254632229,"[19, 0, 235]",235,a,0.33999286545440555,colour,0.5
065,70,0,1,6,48,298,543.335952041205,544.3202144496609,"[52, 0, 202]",202,a,0.452660508453846,colour,0.5
065,70,0,1,6,49,299,544.8349466472864,545.7283456937876,"[76, 0, 178]",178,l,0.36079752701334655,colour,0.5
065,70,0,1,6,50,300,546.2350738774985,547.1523540783674,"[86, 0, 168]",168,l,0.38477588444948196,colour,0.5
065,70,0,1,7,1,301,553.0011199202854,553.5923467511311,"[26, 0, 228]",228,a,0.05815212824381888,colour,0.5
065,70,0,1,7,2,302,554.1016124798916,554.9762221439742,"[0, 0, 254]",254,a,0.34202097658999264,colour,0.5
065,70,0,1,7,3,303,555.4851709201466,556.296236733906,"[34, 0, 220]",220,a,0.2787154824472964,colour,0.5
065,70,0,1,7,4,304,556.8016942203976,557.6002432962414,"[15, 0, 239]",239,a,0.26603866438381374,colour,0.5
065,70,0,1,7,5,305,558.1182848890312,559.0883277417161,"[57, 0, 197]",197,a,0.43692740821279585,colour,0.5
065,70,0,1,7,6,306,559.6017975828145,560.3922701436095,"[39, 0, 215]",215,a,0.25809528212994337,colour,0.5
065,70,0,1,7,7,307,560.9007014660165,561.7682092117611,"[73, 0, 181]",181,l,0.3340407020878047,colour,0.5
065,70,0,1,7,8,308,562.284575575497,563.1202404987998,"[83, 0, 171]",171,l,0.3027522258926183,colour,0.5
065,70,0,1,7,9,309,563.6343949318398,564.5042570445221,"[65, 0, 189]",189,l,0.3367601418867707,colour,0.5
065,70,0,1,7,10,310,565.0182870062999,565.9123167498037,"[95, 0, 159]",159,l,0.3614923844579607,colour,0.5
065,70,0,1,7,11,311,566.419044612674,567.3042352942284,"[52, 0, 202]",202,a,0.3534264557529241,colour,0.5
065,70,0,1,7,12,312,567.8189716623165,568.6802863222547,"[58, 0, 196]",196,a,0.32947344169951975,colour,0.5
065,70,0,1,7,13,313,569.184962334577,570.0002309775446,"[19, 0, 235]",235,a,0.28273288789205253,colour,0.5
065,70,0,1,7,14,314,570.5178199182265,571.3522346757818,"[24, 0, 230]",230,a,0.3008992727845907,colour,0.5
065,70,0,1,7,15,315,571.8674862519838,572.7523211638909,"[75, 0, 179]",179,l,0.3515135124325752,colour,0.5
065,70,0,1,7,16,316,573.2681598081253,574.0722093579825,"[13, 0, 241]",241,a,0.27140408055856824,colour,0.5
065,70,0,1,7,17,317,574.5849227476865,575.5044091048185,"[45, 0, 209]",209,a,0.38695220625959337,colour,0.5
065,70,0,1,7,18,318,576.0173967801966,576.9762304846663,"[59, 0, 195]",195,l,0.4254433324094862,colour,0.5
065,70,0,1,7,19,319,577.4843211153056,578.3682433450595,"[55, 0, 199]",199,l,0.3507907453458756,colour,0.5
065,70,0,1,7,20,320,578.8844820295926,579.8082299227826,"[32, 0, 222]",222,a,0.39078482962213457,colour,0.5
065,70,0,1,7,21,321,580.3175623782445,581.1763009971473,"[31, 0, 223]",223,a,0.3255269336514175,colour,0.5
065,70,0,1,7,22,322,581.6838472262025,582.4963855219539,"[21, 0, 233]",233,a,0.27894164784811437,colour,0.5
065,70,0,1,7,23,323,583.001237333985,583.896224671742,"[99, 0, 155]",155,l,0.36167171271517873,colour,0.5
065,70,0,1,7,24,324,584.4018675817642,585.2164063998498,"[68, 0, 186]",186,l,0.2823039754293859,colour,0.5
065,70,0,1,7,25,325,585.7177861698437,586.5524280553218,"[87, 0, 167]",167,l,0.3016688770148903,colour,0.5
065,70,0,1,7,26,326,587.0681781580206,588.4002372652758,"[54, 0, 200]",200,a,0.7994255076628178,colour,0.5
065,70,0,1,7,27,327,588.9174620956182,589.7442712753545,"[38, 0, 216]",216,a,0.29351312364451587,colour,0.5
065,70,0,1,7,28,328,590.252354527358,591.1204182233196,"[36, 0, 218]",218,a,0.33632417186163366,colour,0.5
065,70,0,1,7,29,329,591.6346024908125,592.9762413920835,"[61, 0, 193]",193,l,0.8088208404369652,colour,0.5
065,70,0,1,7,30,330,593.4850631305017,594.4082342213951,"[89, 0, 165]",165,l,0.3908172305673361,colour,0.5
065,70,0,1,7,31,331,594.9173081105109,595.7523551690392,"[11, 0, 243]",243,a,0.3016079245135188,colour,0.5
065,70,0,1,7,32,332,596.2676044995897,597.1043466767296,"[22, 0, 232]",232,a,0.30305377999320626,colour,0.5
065,70,0,1,7,33,333,597.6177902119234,598.4082467327826,"[71, 0, 183]",183,l,0.2575104597490281,colour,0.5
065,70,0,1,7,34,334,598.9179394491948,599.7362595621962,"[78, 0, 176]",176,l,0.2855229042470455,colour,0.5
065,70,0,1,7,35,335,600.2522730436176,601.112274660496,"[29, 0, 225]",225,a,0.3281889499630779,colour,0.5
065,70,0,1,7,36,336,601.6180237559602,602.4962488603778,"[62, 0, 192]",192,l,0.3454975096974522,colour,0.5
065,70,0,1,7,37,337,603.0018218352925,603.8242456496228,"[7, 0, 247]",247,a,0.29018544289283454,colour,0.5
065,70,0,1,7,38,338,604.3342652635183,605.0882494659163,"[25, 0, 229]",229,a,0.2208819107618183,colour,0.5
065,70,0,1,7,39,339,605.6010578130372,606.44826102769,"[27, 0, 227]",227,a,0.3142112789209932,colour,0.5
065,70,0,1,7,40,340,606.9509451794438,607.7523779459298,"[50, 0, 204]",204,a,0.2683307956904173,colour,0.5
065,70,0,1,7,41,341,608.2675913467538,609.104235679144,"[74, 0, 180]",180,l,0.3030274740885943,colour,0.5
065,70,0,1,7,42,342,609.6181164677255,610.4322343934327,"[23, 0, 231]",231,a,0.2815115940757096,colour,0.5
065,70,0,1,7,43,343,610.9348017731681,611.736361898249,"[69, 0, 185]",185,l,0.268982024397701,colour,0.5
065,70,0,1,7,44,344,612.2508544565644,613.1282801218331,"[20, 0, 234]",234,a,0.34421141375787556,colour,0.5
065,70,0,1,7,45,345,613.6347256787121,614.456246114336,"[3, 0, 251]",251,l,0.28888170304708183,colour,0.5
065,70,0,1,7,46,346,614.9680330271367,616.9122634965461,"[48, 0, 206]",206,a,1.411531426012516,colour,0.5
065,70,0,1,7,47,347,617.4181871083565,618.2723680909257,"[49, 0, 205]",205,a,0.3216554932296276,colour,0.5
065,70,0,1,7,48,348,618.7850375305861,619.6003857324831,"[77, 0, 177]",177,l,0.28304149955511093,colour,0.5
065,70,0,1,7,49,349,620.1179535002448,620.9202723223716,"[76, 0, 178]",178,l,0.2695652423426509,colour,0.5
065,70,0,1,7,50,350,621.4348229460884,622.3683690994512,"[63, 0, 191]",191,l,0.40052085439674556,colour,0.5
065,70,0,1,8,1,351,632.4000672399998,633.0404252423905,"[33, 0, 221]",221,a,0.10644825175404549,colour,0.5
065,70,0,1,8,2,352,633.5511753228493,634.1763548918534,"[70, 0, 184]",184,l,0.09238749300129712,colour,0.5
065,70,0,1,8,3,353,634.6847149960231,635.6083480420057,"[7, 0, 247]",247,a,0.39103698008693755,colour,0.5
065,70,0,1,8,4,354,636.1177042371128,637.0802663043141,"[92, 0, 162]",162,l,0.4296368584036827,colour,0.5
065,70,0,1,8,5,355,637.5849702262785,638.5843411332462,"[43, 0, 211]",211,a,0.46704784384928644,colour,0.5
065,70,0,1,8,6,356,639.10134813888,640.040437753778,"[24, 0, 230]",230,a,0.40648584975861013,colour,0.5
065,70,0,1,8,7,357,640.5514723856468,641.4084116250742,"[68, 0, 186]",186,l,0.3243752538692206,colour,0.5
065,70,0,1,8,8,358,641.9179910982493,642.8724484196864,"[1, 0, 253]",253,a,0.42183110024780035,colour,0.5
065,70,0,1,8,9,359,643.3845660798252,644.2243892408442,"[95, 0, 159]",159,l,0.3070676566567272,colour,0.5
065,70,0,1,8,10,360,644.7346744788811,645.6404118970968,"[80, 0, 174]",174,l,0.37311761314049363,colour,0.5
065,70,0,1,8,11,361,646.1510766439606,647.0483538678382,"[58, 0, 196]",196,l,0.36442066659219563,colour,0.5
065,70,0,1,8,12,362,647.5510165258311,648.5682881933171,"[48, 0, 206]",206,a,0.48436314053833485,colour,0.5
065,70,0,1,8,13,363,649.0847203214653,649.9362662348431,"[89, 0, 165]",165,l,0.3189742285758257,colour,0.5
065,70,0,1,8,14,364,650.4515749139246,651.3203844749369,"[28, 0, 226]",226,a,0.3364633999299258,colour,0.5
065,70,0,1,8,15,365,651.8340137547348,652.7443161876872,"[40, 0, 214]",214,a,0.37704551476053894,colour,0.5
065,70,0,1,8,16,366,653.250960000325,654.1682738855015,"[20, 0, 234]",234,a,0.3843428015243262,colour,0.5
065,70,0,1,8,17,367,654.684308860451,655.8724567606114,"[52, 0, 202]",202,a,0.6552162752486765,colour,0.5
065,70,0,1,8,18,368,656.384828495793,657.2402724765707,"[8, 0, 246]",246,a,0.3230294887907803,colour,0.5
065,70,0,1,8,19,369,657.7513449629769,658.8882928383537,"[54, 0, 200]",200,l,0.6043912682216614,colour,0.5
065,70,0,1,8,20,370,659.4009212155361,660.27229911834,"[47, 0, 207]",207,a,0.3384154811501503,colour,0.5
065,70,0,1,8,21,371,660.7840128885582,661.552340476308,"[41, 0, 213]",213,a,0.23512007319368422,colour,0.5
065,70,0,1,8,22,372,662.0677514912095,662.9283026421908,"[17, 0, 237]",237,a,0.32770550111308694,colour,0.5
065,70,0,1,8,23,373,663.4344331712928,664.3282790952362,"[10, 0, 244]",244,a,0.3610663590952754,colour,0.5
065,70,0,1,8,24,374,664.8350098454393,665.7843689788133,"[99, 0, 155]",155,l,0.417160862358287,colour,0.5
065,70,0,1,8,25,375,666.3006468012463,667.2322934851982,"[34, 0, 220]",220,a,0.39841318433173,colour,0.5
065,70,0,1,8,26,376,667.734514719341,668.5842638199683,"[45, 0, 209]",209,a,0.3170506989117712,colour,0.5
065,70,0,1,8,27,377,669.1009403993376,670.0084768761881,"[84, 0, 170]",170,l,0.3745997191872448,colour,0.5
065,70,0,1,8,28,378,670.5178420536686,671.5362994058523,"[77, 0, 177]",177,l,0.48577146185562015,colour,0.5
065,70,0,1,8,29,379,672.0508529166691,672.9683217490092,"[0, 0, 254]",254,a,0.3844387212302536,colour,0.5
065,70,0,1,8,30,380,673.4840846839361,674.2804080345668,"[71, 0, 183]",183,l,0.2632162468507886,colour,0.5
065,70,0,1,8,31,381,674.784637811128,675.6564494385384,"[16, 0, 238]",238,a,0.3392470001708716,colour,0.5
065,70,0,1,8,32,382,676.167269453872,677.1683855245356,"[56, 0, 198]",198,l,0.4678681348450482,colour,0.5
065,70,0,1,8,33,383,677.6846149058547,678.3842696584761,"[39, 0, 215]",215,a,0.16708820057101548,colour,0.5
065,70,0,1,8,34,384,678.9012471504975,679.5603942144662,"[82, 0, 172]",172,l,0.12653271248564124,colour,0.5
065,70,0,1,8,35,385,680.0674236314371,681.0082997933496,"[42, 0, 212]",212,a,0.4077924769371748,colour,0.5
065,70,0,1,8,36,386,681.5172456824221,682.4002860272303,"[55, 0, 199]",199,a,0.34978470974601805,colour,0.5
065,70,0,1,8,37,387,682.9179112184793,683.7764243134297,"[23, 0, 231]",231,a,0.325909971492365,colour,0.5
065,70,0,1,8,38,388,684.2842769087292,685.0162701229565,"[69, 0, 185]",185,l,0.19910842645913363,colour,0.5
065,70,0,1,8,39,389,685.5177644195501,686.3842953226995,"[50, 0, 204]",204,a,0.33380427095107734,colour,0.5
065,70,0,1,8,40,390,686.9020283035934,688.0323182509746,"[2, 0, 252]",252,a,0.5985045486595482,colour,0.5
065,70,0,1,8,41,391,688.5341782621108,689.9203027987387,"[51, 0, 203]",203,a,0.8531547363381833,colour,0.5
065,70,0,1,8,42,392,690.434224650031,691.2802899794187,"[63, 0, 191]",191,l,0.31314461189322174,colour,0.5
065,70,0,1,8,43,393,691.7845082071144,692.8562864069827,"[74, 0, 180]",180,l,0.5391221442259848,colour,0.5
065,70,0,1,8,44,394,693.3676062319428,694.23230022192,"[78, 0, 176]",176,l,0.33183326246216893,colour,0.5
065,70,0,1,8,45,395,694.7338185785338,695.5603393572383,"[90, 0, 164]",164,l,0.2932067576330155,colour,0.5
065,70,0,1,8,46,396,696.067928574048,696.9203380870167,"[66, 0, 188]",188,l,0.31988081568852067,colour,0.5
065,70,0,1,8,47,397,697.4346692818217,698.1603917763568,"[86, 0, 168]",168,l,0.19322844385169446,colour,0.5
065,70,0,1,8,48,398,698.6674481406808,699.5282722942065,"[13, 0, 241]",241,a,0.32781425304710865,colour,0.5
065,70,0,1,8,49,399,700.0345231243409,700.8162868688814,"[4, 0, 250]",250,a,0.24916928284801543,colour,0.5
065,70,0,1,8,50,400,701.3346062761266,702.2323691945057,"[31, 0, 223]",223,a,0.3652108022943139,colour,0.5
065,70,0,1,9,1,401,710.2164108911529,710.8322948967107,"[53, 0, 201]",201,a,0.08185074618086219,colour,0.5
065,70,0,1,9,2,402,711.3353312890977,711.8882950840052,"[22, 0, 232]",232,a,0.021197323454543948,colour,0.5
065,70,0,1,9,3,403,712.401316443691,713.3122829371132,"[39, 0, 215]",215,a,0.3785420567728579,colour,0.5
065,70,0,1,9,4,404,713.8173718217295,714.720303504495,"[12, 0, 242]",242,a,0.36988136102445424,colour,0.5
065,70,0,1,9,5,405,715.2346016566735,715.848456267966,"[93, 0, 161]",161,l,0.0813766005448997,colour,0.5
065,70,0,1,9,6,406,716.3512004094664,717.2722811535932,"[1, 0, 253]",253,a,0.38854787638410926,colour,0.5
065,70,0,1,9,7,407,717.7843391443603,718.7122930744663,"[48, 0, 206]",206,a,0.39519072650000453,colour,0.5
065,70,0,1,9,8,408,719.2178336486686,719.8962843411136,"[14, 0, 240]",240,a,0.1458684210665524,colour,0.5
065,70,0,1,9,9,409,720.4009061376564,720.9843002629932,"[92, 0, 162]",162,l,0.050515753449872136,colour,0.5
065,70,0,1,9,10,410,721.5011141458526,722.3764289328828,"[31, 0, 223]",223,a,0.34269658592529595,colour,0.5
065,70,0,1,9,11,411,722.8843274030369,723.7523112189956,"[87, 0, 167]",167,l,0.33524306840263307,colour,0.5
065,70,0,1,9,12,412,724.2675688907038,725.7204562062398,"[33, 0, 221]",221,a,0.9200609137769789,colour,0.5
065,70,0,1,9,13,413,726.2345265890472,727.0883117015474,"[0, 0, 254]",254,a,0.3212564152199775,colour,0.5
065,70,0,1,9,14,414,727.6010921387933,728.4963130208198,"[46, 0, 208]",208,a,0.36259851045906544,colour,0.5
065,70,0,1,9,15,415,729.0010041107889,729.7682916577905,"[67, 0, 187]",187,l,0.23458337085321546,colour,0.5
065,70,0,1,9,16,416,730.2851616810076,731.1843419030774,"[38, 0, 216]",216,a,0.36728799622505903,colour,0.5
065,70,0,1,9,17,417,731.7018833651673,732.7364578179549,"[66, 0, 188]",188,l,0.5027447831816971,colour,0.5
065,70,0,1,9,18,418,733.2516795597039,734.1523049955722,"[13, 0, 241]",241,a,0.36859943554736674,colour,0.5
065,70,0,1,9,19,419,734.6677391082048,735.408327254001,"[69, 0, 185]",185,l,0.20795967895537615,colour,0.5
065,70,0,1,9,20,420,735.9178053538781,736.7363272514194,"[64, 0, 190]",190,l,0.2859717065002769,colour,0.5
065,70,0,1,9,21,421,737.250939469086,738.1044910377823,"[44, 0, 210]",210,a,0.3207979891449213,colour,0.5
065,70,0,1,9,22,422,738.6171120363288,739.4644012260251,"[96, 0, 158]",158,l,0.3140399707481265,colour,0.5
065,70,0,1,9,23,423,739.9677208866924,740.5363067842554,"[9, 0, 245]",245,a,0.03593689948320389,colour,0.5
065,70,0,1,9,24,424,741.0506360544823,741.9603446826804,"[26, 0, 228]",228,a,0.3766621563117951,colour,0.5
065,70,0,1,9,25,425,742.4669628310949,744.5364886792377,"[55, 0, 199]",199,l,1.5361595363356173,colour,0.5
065,70,0,1,9,26,426,745.051384806633,746.1124302495737,"[80, 0, 174]",174,l,0.5287557432893664,colour,0.5
065,70,0,1,9,27,427,746.6172207882628,747.4804397299886,"[91, 0, 163]",163,l,0.3301256326958537,colour,0.5
065,70,0,1,9,28,428,747.985387140885,748.944348845398,"[61, 0, 193]",193,l,0.4273527469485998,colour,0.5
065,70,0,1,9,29,429,749.4511578711681,750.2563485142309,"[18, 0, 236]",236,a,0.2726879306137562,colour,0.5
065,70,0,1,9,30,430,750.7675621537492,752.2244742533658,"[58, 0, 196]",196,l,0.9241517831105739,colour,0.5
065,70,0,1,9,31,431,752.7346443233546,753.5683035918046,"[27, 0, 227]",227,a,0.30131663638167083,colour,0.5
065,70,0,1,9,32,432,754.0845743564423,754.8643083858769,"[19, 0, 235]",235,a,0.24733044486492872,colour,0.5
065,70,0,1,9,33,433,755.367682262091,756.0003208022099,"[2, 0, 252]",252,a,0.10002130130305886,colour,0.5
065,70,0,1,9,34,434,756.5175122690853,757.3124186364003,"[76, 0, 178]",178,l,0.26211910345591605,colour,0.5
065,70,0,1,9,35,435,757.8171976262238,758.5363542630803,"[28, 0, 226]",226,a,0.18604472116567194,colour,0.5
065,70,0,1,9,36,436,759.0511461298447,760.0163904237561,"[54, 0, 200]",200,l,0.43277013301849365,colour,0.5
065,70,0,1,9,37,437,760.5337454997934,761.168278055964,"[60, 0, 194]",194,l,0.10130996373482049,colour,0.5
065,70,0,1,9,38,438,761.6850800688844,762.5923361647874,"[41, 0, 213]",213,a,0.3753741355612874,colour,0.5
065,70,0,1,9,39,439,763.1019252620172,763.8163237611298,"[79, 0, 175]",175,l,0.18268880969844759,colour,0.5
065,70,0,1,9,40,440,764.3338956993539,765.328367636539,"[68, 0, 186]",186,l,0.4614113497082144,colour,0.5
065,70,0,1,9,41,441,765.8343303864822,766.6563977894839,"[57, 0, 197]",197,l,0.2894328411202878,colour,0.5
065,70,0,1,9,42,442,767.1667314686347,767.9203541269526,"[51, 0, 203]",203,a,0.2200783013831824,colour,0.5
065,70,0,1,9,43,443,768.4337514669169,769.0803208407015,"[88, 0, 166]",166,l,0.1133782200049609,colour,0.5
065,70,0,1,9,44,444,769.5846346672624,770.1763998041861,"[11, 0, 243]",243,a,0.05946581321768463,colour,0.5
065,70,0,1,9,45,445,770.6845103243832,771.3524271571077,"[84, 0, 170]",170,l,0.13548918813467026,colour,0.5
065,70,0,1,9,46,446,771.8675369387493,772.4722923175432,"[70, 0, 184]",184,l,0.07203195453621447,colour,0.5
065,70,0,1,9,47,447,772.9845479223877,773.6883301155176,"[30, 0, 224]",224,a,0.17139946087263525,colour,0.5
065,70,0,1,9,48,448,774.2001773393713,775.2083237892948,"[29, 0, 225]",225,a,0.474732659291476,colour,0.5
065,70,0,1,9,49,449,775.7180360748898,776.720368627226,"[81, 0, 173]",173,l,0.4701102210674435,colour,0.5
065,70,0,1,9,50,450,777.2343001025729,778.1124546304345,"[36, 0, 218]",218,a,0.3455469131004065,colour,0.5
065,70,0,1,10,1,451,792.7670633064117,794.3044345122762,"[84, 0, 170]",170,l,1.004241646034643,colour,0.5
065,70,0,1,10,2,452,794.8174308494199,795.888446823461,"[17, 0, 237]",237,a,0.5382437878288329,colour,0.5
065,70,0,1,10,3,453,796.400796744274,797.384488124866,"[43, 0, 211]",211,a,0.4509673148859292,colour,0.5
065,70,0,1,10,4,454,797.9006928042509,798.8003705905285,"[94, 0, 160]",160,l,0.3668619708623737,colour,0.5
065,70,0,1,10,5,455,799.3178793308325,800.2724948078394,"[96, 0, 158]",158,l,0.4223010754212737,colour,0.5
065,70,0,1,10,6,456,800.7842425827403,801.7683734623715,"[91, 0, 163]",163,l,0.45146937016397715,colour,0.5
065,70,0,1,10,7,457,802.2844851091504,803.2323874800932,"[40, 0, 214]",214,a,0.4154975030105561,colour,0.5
065,70,0,1,10,8,458,803.73356546578,804.7204315045383,"[47, 0, 207]",207,a,0.4535840980242938,colour,0.5
065,70,0,1,10,9,459,805.2348826793022,806.2403359953314,"[56, 0, 198]",198,a,0.4734924384392798,colour,0.5
065,70,0,1,10,10,460,806.7507466669194,807.6244773329236,"[4, 0, 250]",250,a,0.3409915224183351,colour,0.5
065,70,0,1,10,11,461,808.1339332973585,808.7524366527796,"[75, 0, 179]",179,l,0.08561920910142362,colour,0.5
065,70,0,1,10,12,462,809.2680747956038,810.2323460967746,"[66, 0, 188]",188,l,0.432133661583066,colour,0.5
065,70,0,1,10,13,463,810.7338894759305,811.3363466279116,"[86, 0, 168]",168,l,0.06953162234276533,colour,0.5
065,70,0,1,10,14,464,811.8518253320362,812.4644884841982,"[25, 0, 229]",229,a,0.08100382843986154,colour,0.5
065,70,0,1,10,15,465,812.9669843248557,813.9203576559667,"[87, 0, 167]",167,l,0.42020335025154054,colour,0.5
065,70,0,1,10,16,466,814.4342329909559,815.2884434871376,"[37, 0, 217]",217,a,0.3216073727235198,colour,0.5
065,70,0,1,10,17,467,815.8007067912258,817.0483535469975,"[53, 0, 201]",201,a,0.7148764943704009,colour,0.5
065,70,0,1,10,18,468,817.5508878841065,818.4083477854729,"[16, 0, 238]",238,a,0.3248721763957292,colour,0.5
065,70,0,1,10,19,469,818.9175865668803,819.5683545991778,"[69, 0, 185]",185,l,0.11819346039555967,colour,0.5
065,70,0,1,10,20,470,820.083834586665,820.8003734778613,"[31, 0, 223]",223,a,0.18358320626430213,colour,0.5
065,70,0,1,10,21,471,821.3172916213516,822.2485209414735,"[39, 0, 215]",215,a,0.39838431193493307,colour,0.5
065,70,0,1,10,22,472,822.7504281103611,823.4564610517118,"[14, 0, 240]",240,a,0.1729983389377594,colour,0.5
065,70,0,1,10,23,473,823.9674321648199,824.9604592090473,"[80, 0, 174]",174,l,0.4603357003070414,colour,0.5
065,70,0,1,10,24,474,825.4675980194006,827.2323663071729,"[54, 0, 200]",200,a,1.232246968895197,colour,0.5
065,70,0,1,10,25,475,827.734130719211,828.8244022012223,"[81, 0, 173]",173,l,0.5575897621456534,colour,0.5
065,70,0,1,10,26,476,829.334146566689,830.6963585105259,"[79, 0, 175]",175,l,0.8295764192007482,colour,0.5
065,70,0,1,10,27,477,831.2003011689521,832.2403767372016,"[65, 0, 189]",189,l,0.5069383091758937,colour,0.5
065,70,0,1,10,28,478,832.7500514886342,833.800542861456,"[32, 0, 222]",222,a,0.517094905488193,colour,0.5
065,70,0,1,10,29,479,834.3167116108816,835.5205242803786,"[12, 0, 242]",242,a,0.6704335254617035,colour,0.5
065,70,0,1,10,30,480,836.0349000669084,837.0484760934487,"[97, 0, 157]",157,l,0.4817184472922236,colour,0.5
065,70,0,1,10,31,481,837.5515856288839,838.4884601046797,"[9, 0, 245]",245,a,0.4044834026135504,colour,0.5
065,70,0,1,10,32,482,839.0011183163151,839.8483840874396,"[29, 0, 225]",225,a,0.3149494449608028,colour,0.5
065,70,0,1,10,33,483,840.3504176521674,841.2963817366399,"[30, 0, 224]",224,a,0.4129833767656237,colour,0.5
065,70,0,1,10,34,484,841.8004244854674,842.7605019398034,"[82, 0, 172]",172,l,0.4270874436479062,colour,0.5
065,70,0,1,10,35,485,843.2672002888285,844.6244808619376,"[60, 0, 194]",194,l,0.8243598553817719,colour,0.5
065,70,0,1,10,36,486,845.1341588213108,846.2003261914942,"[26, 0, 228]",228,a,0.5335655298549682,colour,0.5
065,70,0,1,10,37,487,846.717449327698,847.6723644337617,"[19, 0, 235]",235,a,0.4222840729635209,colour,0.5
065,70,0,1,10,38,488,848.1835546547081,849.1123619186692,"[13, 0, 241]",241,a,0.39563567913137376,colour,0.5
065,70,0,1,10,39,489,849.6175464023836,850.5925703502726,"[72, 0, 182]",182,l,0.4424949297681451,colour,0.5
065,70,0,1,10,40,490,851.1015377331059,851.9604386775754,"[70, 0, 184]",184,l,0.3264636758249253,colour,0.5
065,70,0,1,10,41,491,852.4669111820403,853.5603829864413,"[50, 0, 204]",204,l,0.5603332621976733,colour,0.5
065,70,0,1,10,42,492,854.0670656161383,854.9844908195082,"[68, 0, 186]",186,l,0.38446117751300335,colour,0.5
065,70,0,1,10,43,493,855.500374696916,856.4725428638048,"[45, 0, 209]",209,a,0.43915345426648855,colour,0.5
065,70,0,1,10,44,494,856.9843628194649,857.8485092001501,"[10, 0, 244]",244,a,0.3317915580701083,colour,0.5
065,70,0,1,10,45,495,858.3506367602386,859.1604687687941,"[27, 0, 227]",227,a,0.27710377238690853,colour,0.5
065,70,0,1,10,46,496,859.666941273259,860.6163828528952,"[11, 0, 243]",243,a,0.41635051602497697,colour,0.5
065,70,0,1,10,47,497,861.1343256384134,862.4645378876012,"[49, 0, 205]",205,l,0.7978070606477559,colour,0.5
065,70,0,1,10,48,498,862.9674735481385,864.600387657294,"[48, 0, 206]",206,l,1.100349802756682,colour,0.5
065,70,0,1,10,49,499,865.1177263723221,866.1524297876749,"[52, 0, 202]",202,l,0.5018763719126582,colour,0.5
065,70,0,1,10,50,500,866.6668459950015,867.656376295723,"[77, 0, 177]",177,l,0.45637411437928677,colour,0.5
065,70,0,1,11,1,501,873.9335188851692,875.5443762417417,"[57, 0, 197]",197,a,1.0776979620568454,colour,0.5
065,70,0,1,11,2,502,876.0506386207417,876.8244827224407,"[88, 0, 166]",166,l,0.24113735905848444,colour,0.5
065,70,0,1,11,3,503,877.3334276492242,878.032461970346,"[53, 0, 201]",201,a,0.1658158991485834,colour,0.5
065,70,0,1,11,4,504,878.5332418405451,879.4805218551774,"[29, 0, 225]",225,a,0.4138489009346813,colour,0.5
065,70,0,1,11,5,505,879.983810398262,880.8403819983359,"[38, 0, 216]",216,a,0.32374551915563643,colour,0.5
065,70,0,1,11,6,506,881.3507641186006,882.0005229073577,"[86, 0, 168]",168,l,0.11722271284088492,colour,0.5
065,70,0,1,11,7,507,882.5163907445967,883.4883962650783,"[10, 0, 244]",244,a,0.437949483981356,colour,0.5
065,70,0,1,11,8,508,884.0008982459549,884.8563836100511,"[32, 0, 222]",222,a,0.3231003861874342,colour,0.5
065,70,0,1,11,9,509,885.3674012394622,886.2563674414996,"[76, 0, 178]",178,l,0.35637398599646986,colour,0.5
065,70,0,1,11,10,510,886.7667960783001,887.5925170970149,"[20, 0, 234]",234,a,0.2925635492429137,colour,0.5
065,70,0,1,11,11,511,888.1006831161212,889.008394109318,"[11, 0, 243]",243,a,0.3750998496543616,colour,0.5
065,70,0,1,11,12,512,889.5175677677616,890.3204973973334,"[65, 0, 189]",189,l,0.2705452931113541,colour,0.5
065,70,0,1,11,13,513,890.8335242106114,891.7524064972531,"[61, 0, 193]",193,l,0.38579828082583845,colour,0.5
065,70,0,1,11,14,514,892.2668926396873,893.1124042645097,"[96, 0, 158]",158,l,0.3124452631454915,colour,0.5
065,70,0,1,11,15,515,893.6173324272968,894.3284709348809,"[12, 0, 242]",242,a,0.17853538412600756,colour,0.5
065,70,0,1,11,16,516,894.8342325417325,895.7604842956644,"[0, 0, 254]",254,a,0.3933833271730691,colour,0.5
065,70,0,1,11,17,517,896.2671204092912,897.1684230584651,"[5, 0, 249]",249,a,0.36849966598674655,colour,0.5
065,70,0,1,11,18,518,897.6839992864989,898.6483883219771,"[64, 0, 190]",190,l,0.43179842340759933,colour,0.5
065,70,0,1,11,19,519,899.1503949395847,900.0405141045339,"[22, 0, 232]",232,a,0.3572318109218031,colour,0.5
065,70,0,1,11,20,520,900.5499091167003,901.4884094179142,"[90, 0, 164]",164,l,0.405141367809847,colour,0.5
065,70,0,1,11,21,521,902.0002293735743,902.9523849394172,"[37, 0, 217]",217,a,0.4191373244393617,colour,0.5
065,70,0,1,11,22,522,903.4672153024003,904.2884986649733,"[55, 0, 199]",199,l,0.28855737182311714,colour,0.5
065,70,0,1,11,23,523,904.7998948409222,905.7284271775279,"[72, 0, 182]",182,l,0.39515447593294084,colour,0.5
065,70,0,1,11,24,524,906.2337441525888,907.1684461561963,"[2, 0, 252]",252,a,0.4018807348329574,colour,0.5
065,70,0,1,11,25,525,907.6839213315398,908.7443838769104,"[91, 0, 163]",163,l,0.5272633715067059,colour,0.5
065,70,0,1,11,26,526,909.250875308644,910.1443827862386,"[39, 0, 215]",215,a,0.361154900630936,colour,0.5
065,70,0,1,11,27,527,910.650679170154,912.0725612780079,"[49, 0, 205]",205,a,0.8893386535346508,colour,0.5
065,70,0,1,11,28,528,912.5838483811822,913.6404779823497,"[80, 0, 174]",174,l,0.5239257458597422,colour,0.5
065,70,0,1,11,29,529,914.1508190399036,915.0404454530217,"[17, 0, 237]",237,a,0.3572199414484203,colour,0.5
065,70,0,1,11,30,530,915.5501125052106,916.4325115664396,"[14, 0, 240]",240,a,0.34931537602096796,colour,0.5
065,70,0,1,11,31,531,916.9508659411222,917.8885446682107,"[6, 0, 248]",248,a,0.40533673646859825,colour,0.5
065,70,0,1,11,32,532,918.4007620974444,919.6644191266969,"[54, 0, 200]",200,a,0.7311950586736202,colour,0.5
065,70,0,1,11,33,533,920.1671180352569,921.1764386212453,"[9, 0, 245]",245,a,0.47657598881050944,colour,0.5
065,70,0,1,11,34,534,921.6829749650788,922.5523885965813,"[8, 0, 246]",246,a,0.3353765222709626,colour,0.5
065,70,0,1,11,35,535,923.0673604332842,923.9444094770588,"[83, 0, 171]",171,l,0.34456493775360286,colour,0.5
065,70,0,1,11,36,536,924.4503346928395,925.6646061544307,"[50, 0, 204]",204,l,0.681433510966599,colour,0.5
065,70,0,1,11,37,537,926.1669184963685,927.0804344045464,"[24, 0, 230]",230,a,0.3805881328880787,colour,0.5
065,70,0,1,11,38,538,927.5832491226029,929.4164939145558,"[43, 0, 211]",211,l,1.2999814576469362,colour,0.5
065,70,0,1,11,39,539,929.9331018424127,931.8965015241411,"[46, 0, 208]",208,l,1.429995194543153,colour,0.5
065,70,0,1,11,40,540,932.4003909295425,933.3283897719812,"[92, 0, 162]",162,l,0.3952449420467019,colour,0.5
065,70,0,1,11,41,541,933.8342161807232,934.7685383546632,"[89, 0, 165]",165,l,0.4020446646027267,colour,0.5
065,70,0,1,11,42,542,935.2836359459907,936.2005834749434,"[75, 0, 179]",179,l,0.3840829518157989,colour,0.5
065,70,0,1,11,43,543,936.7163120838813,937.6084028992336,"[18, 0, 236]",236,a,0.35806461330503225,colour,0.5
065,70,0,1,11,44,544,938.1180221519899,938.9204599917866,"[31, 0, 223]",223,a,0.2706335138063878,colour,0.5
065,70,0,1,11,45,545,939.4341890409123,940.1205000279006,"[94, 0, 160]",160,l,0.1540398937650025,colour,0.5
065,70,0,1,11,46,546,940.6338428312447,941.5364184235223,"[23, 0, 231]",231,a,0.36991376196965575,colour,0.5
065,70,0,1,11,47,547,942.0504868812859,942.9684067617636,"[71, 0, 183]",183,l,0.3852702407166362,colour,0.5
065,70,0,1,11,48,548,943.4838976564351,944.3685346334241,"[62, 0, 192]",192,l,0.35204026964493096,colour,0.5
065,70,0,1,11,49,549,944.8834541793913,945.8325310070068,"[95, 0, 159]",159,l,0.41608874150551856,colour,0.5
065,70,0,1,11,50,550,946.3505745246075,947.2484186056536,"[79, 0, 175]",175,l,0.3652881155721843,colour,0.5
065,70,0,1,12,1,551,956.3832594526466,957.1044066667091,"[67, 0, 187]",187,l,0.187361293239519,colour,0.5
065,70,0,1,12,2,552,957.6168675851077,958.2004172992893,"[28, 0, 226]",226,a,0.05063380883075297,colour,0.5
065,70,0,1,12,3,553,958.7164333472028,959.6644598685671,"[27, 0, 227]",227,a,0.4147009514272213,colour,0.5
065,70,0,1,12,4,554,960.1672364112455,961.1124215878081,"[34, 0, 220]",220,a,0.4126750857103616,colour,0.5
065,70,0,1,12,5,555,961.6164046674967,962.472571415361,"[25, 0, 229]",229,a,0.32282032584771514,colour,0.5
065,70,0,1,12,6,556,962.9840285435785,963.9125271958765,"[46, 0, 208]",208,a,0.39610918308608234,colour,0.5
065,70,0,1,12,7,557,964.4161516188178,965.3604228300974,"[22, 0, 232]",232,a,0.4106838668230921,colour,0.5
065,70,0,1,12,8,558,965.8670919861179,966.6965525958221,"[59, 0, 195]",195,l,0.29681225307285786,colour,0.5
065,70,0,1,12,9,559,967.2006755450275,968.2565182186663,"[85, 0, 169]",169,l,0.5234506379347295,colour,0.5
065,70,0,1,12,10,560,968.7667909453157,969.7604201352224,"[11, 0, 243]",243,a,0.4607075098901987,colour,0.5
065,70,0,1,12,11,561,970.2672092714347,971.5524594937451,"[30, 0, 224]",224,a,0.7527327530551702,colour,0.5
065,70,0,1,12,12,562,972.0674839422572,972.9525065233465,"[61, 0, 193]",193,l,0.35278453049249947,colour,0.5
065,70,0,1,12,13,563,973.4671376682818,974.3685224428773,"[80, 0, 174]",174,l,0.3687778015155345,colour,0.5
065,70,0,1,12,14,564,974.8833852070384,975.7766020377167,"[70, 0, 184]",184,l,0.36023997282609344,colour,0.5
065,70,0,1,12,15,565,976.2845505529549,977.1284337860998,"[90, 0, 164]",164,l,0.31205260124988854,colour,0.5
065,70,0,1,12,16,566,977.6340593728237,978.5684469903354,"[54, 0, 200]",200,l,0.40207289531826973,colour,0.5
065,70,0,1,12,17,567,979.0833960501477,979.9365924906451,"[29, 0, 225]",225,a,0.3202369059436023,colour,0.5
065,70,0,1,12,18,568,980.4500087578781,981.528522840701,"[82, 0, 172]",172,l,0.5454929540865123,colour,0.5
065,70,0,1,12,19,569,982.033035564702,982.8964524413459,"[71, 0, 183]",183,l,0.33007847471162677,colour,0.5
065,70,0,1,12,20,570,983.400380342966,984.4325940127019,"[62, 0, 192]",192,l,0.49957205005921423,colour,0.5
065,70,0,1,12,21,571,984.9505598959513,986.4245110813063,"[92, 0, 162]",162,l,0.9414824780542403,colour,0.5
065,70,0,1,12,22,572,986.9335965192877,987.848430282902,"[38, 0, 216]",216,a,0.3820827503222972,colour,0.5
065,70,0,1,12,23,573,988.3499342033174,989.3364643624518,"[32, 0, 222]",222,a,0.4534419826231897,colour,0.5
065,70,0,1,12,24,574,989.8503955169581,990.7525967329275,"[24, 0, 230]",230,a,0.36958397715352476,colour,0.5
065,70,0,1,12,25,575,991.2663742233999,992.184440710349,"[26, 0, 228]",228,a,0.38477171398699284,colour,0.5
065,70,0,1,12,26,576,992.7000182215124,993.7364424194675,"[99, 0, 155]",155,l,0.5034255255013704,colour,0.5
065,70,0,1,12,27,577,994.2503873684909,996.1604373303708,"[51, 0, 203]",203,l,1.3774458758998662,colour,0.5
065,70,0,1,12,28,578,996.6667083709035,997.5446078609675,"[16, 0, 238]",238,a,0.34495214582420886,colour,0.5
065,70,0,1,12,29,579,998.0496149410028,998.8724760087207,"[23, 0, 231]",231,a,0.28946973313577473,colour,0.5
065,70,0,1,12,30,580,999.3832799838856,1000.3284667644184,"[96, 0, 158]",158,l,0.41215346148237586,colour,0.5
065,70,0,1,12,31,581,1000.8332858546637,1001.6724632408004,"[37, 0, 217]",217,a,0.3061690896283835,colour,0.5
065,70,0,1,12,32,582,1002.183247967856,1003.1285521620885,"[47, 0, 207]",207,a,0.4122448901180178,colour,0.5
065,70,0,1,12,33,583,1003.6333584201057,1004.5765966484323,"[97, 0, 157]",157,l,0.41027548583224416,colour,0.5
065,70,0,1,12,34,584,1005.0832356489263,1006.2246086695231,"[43, 0, 211]",211,a,0.6082396111451089,colour,0.5
065,70,0,1,12,35,585,1006.7334676210303,1007.5844482812099,"[63, 0, 191]",191,l,0.31813116068951786,colour,0.5
065,70,0,1,12,36,586,1008.1004980131984,1008.9044628713746,"[68, 0, 186]",186,l,0.27147497795522213,colour,0.5
065,70,0,1,12,37,587,1009.4170219548978,1010.3044858407229,"[93, 0, 161]",161,l,0.3548636494670063,colour,0.5
065,70,0,1,12,38,588,1010.8162438813597,1011.824436847819,"[1, 0, 253]",253,a,0.47483531618490815,colour,0.5
065,70,0,1,12,39,589,1012.3335800301284,1013.2164493873715,"[36, 0, 218]",218,a,0.3501699932385236,colour,0.5
065,70,0,1,12,40,590,1013.7330794504378,1014.7765885640401,"[79, 0, 175]",175,l,0.5102797842118889,colour,0.5
065,70,0,1,12,41,591,1015.2831223416142,1016.112578780856,"[14, 0, 240]",240,a,0.29630570649169385,colour,0.5
065,70,0,1,12,42,592,1016.6166112641804,1017.3845724957064,"[3, 0, 251]",251,a,0.23496961686760187,colour,0.5
065,70,0,1,12,43,593,1017.9002799319569,1018.8405359834433,"[64, 0, 190]",190,l,0.407595825381577,colour,0.5
065,70,0,1,12,44,594,1019.3502396070398,1019.9925641266163,"[69, 0, 185]",185,l,0.10963157145306468,colour,0.5
065,70,0,1,12,45,595,1020.5002476591617,1021.2404290279374,"[31, 0, 223]",223,a,0.20748200453817844,colour,0.5
065,70,0,1,12,46,596,1021.7502381955273,1022.8646096189041,"[74, 0, 180]",180,l,0.5816890618298203,colour,0.5
065,70,0,1,12,47,597,1023.3664208680857,1024.3764610132203,"[57, 0, 197]",197,l,0.4768515578471124,colour,0.5
065,70,0,1,12,48,598,1024.8830307205208,1025.8645810675807,"[0, 0, 254]",254,a,0.44834956899285316,colour,0.5
065,70,0,1,12,49,599,1026.3666630736552,1027.2805171073414,"[78, 0, 176]",176,l,0.38095192261971533,colour,0.5
065,70,0,1,12,50,600,1027.7827967274934,1028.7604615187738,"[45, 0, 209]",209,a,0.4442237326875329,colour,0.5
065,70,0,1,13,1,601,1077.1827937120106,1077.8484970098361,"[18, 0, 236]",236,a,0.13239858020097017,colour,0.5
065,70,0,1,13,2,602,1078.3500695819966,1079.0806435674895,"[9, 0, 245]",245,a,0.19788552867248654,colour,0.5
065,70,0,1,13,3,603,1079.5824955585413,1080.384468555916,"[2, 0, 252]",252,a,0.26836127205751836,colour,0.5
065,70,0,1,13,4,604,1080.9000560119748,1081.60847507976,"[15, 0, 239]",239,a,0.1757280444726348,colour,0.5
065,70,0,1,13,5,605,1082.1167655698955,1083.1126301093027,"[43, 0, 211]",211,a,0.4632190701086074,colour,0.5
065,70,0,1,13,6,606,1083.6175464023836,1084.2566128552426,"[79, 0, 175]",175,l,0.10720277833752334,colour,0.5
065,70,0,1,13,7,607,1084.766725501744,1085.4885293978732,"[53, 0, 201]",201,a,0.18912185542285442,colour,0.5
065,70,0,1,13,8,608,1085.999641022412,1086.7525569535792,"[58, 0, 196]",196,a,0.21982230129651725,colour,0.5
065,70,0,1,13,9,609,1087.2666090505663,1088.1284992296714,"[66, 0, 188]",188,l,0.32910516089759767,colour,0.5
065,70,0,1,13,10,610,1088.6329019186087,1089.32059075078,"[1, 0, 253]",253,a,0.15454868599772453,colour,0.5
065,70,0,1,13,11,611,1089.8333759999368,1090.400467601139,"[19, 0, 235]",235,a,0.03443137486465275,colour,0.5
065,70,0,1,13,12,612,1090.9169533033855,1091.488471011864,"[30, 0, 224]",224,a,0.03904964285902679,colour,0.5
065,70,0,1,13,13,613,1092.0005658948794,1092.6006388454698,"[75, 0, 179]",179,l,0.06794429337605834,colour,0.5
065,70,0,1,13,14,614,1093.1159741510637,1093.7366599233355,"[60, 0, 194]",194,l,0.08729925006628036,colour,0.5
065,70,0,1,13,15,615,1094.2499924611766,1094.888682933757,"[95, 0, 159]",159,l,0.10597699321806431,colour,0.5
065,70,0,1,13,16,616,1095.3994522623252,1096.0406206110492,"[14, 0, 240]",240,a,0.10791624244302511,colour,0.5
065,70,0,1,13,17,617,1096.5494927153923,1097.120484629413,"[22, 0, 232]",232,a,0.03778792801313102,colour,0.5
065,70,0,1,13,18,618,1097.633371252101,1098.448491684394,"[26, 0, 228]",228,a,0.2824428826570511,colour,0.5
065,70,0,1,13,19,619,1098.9499632038642,1099.4964852915145,"[13, 0, 241]",241,a,0.013793851248919964,colour,0.5
065,70,0,1,13,20,620,1100.0000795589294,1100.6244705962017,"[64, 0, 190]",190,l,0.09177315700799227,colour,0.5
065,70,0,1,13,21,621,1101.133305166848,1101.7446283281315,"[81, 0, 173]",173,l,0.0785987745039165,colour,0.5
065,70,0,1,13,22,622,1102.2496078193653,1102.8885950341355,"[98, 0, 156]",156,l,0.10591315384954214,colour,0.5
065,70,0,1,13,23,623,1103.3997454755008,1104.6004306448158,"[92, 0, 162]",162,l,0.667756431736052,colour,0.5
065,70,0,1,13,24,624,1105.1164178203326,1105.7366098782513,"[72, 0, 182]",182,l,0.08721263357438147,colour,0.5
065,70,0,1,13,25,625,1106.2497492930852,1106.8165941974148,"[96, 0, 158]",158,l,0.03394439723342657,colour,0.5
065,70,0,1,13,26,626,1107.332862716401,1107.9126789353322,"[8, 0, 246]",246,a,0.04668441344983876,colour,0.5
065,70,0,1,13,27,627,1108.4160643606447,1108.9685164759867,"[31, 0, 223]",223,a,0.01919166836887598,colour,0.5
065,70,0,1,13,28,628,1109.4831636610907,1110.0485052864533,"[11, 0, 243]",243,a,0.03251137398183346,colour,0.5
065,70,0,1,13,29,629,1110.5495366654359,1111.16049571638,"[90, 0, 164]",164,l,0.0778237166814506,colour,0.5
065,70,0,1,13,30,630,1111.6668091027532,1112.2245095416438,"[12, 0, 242]",242,a,0.025163079844787717,colour,0.5
065,70,0,1,13,31,631,1112.7332170745358,1113.696483944077,"[57, 0, 197]",197,l,0.4305001369211823,colour,0.5
065,70,0,1,13,32,632,1114.2000891186763,1114.86458074674,"[24, 0, 230]",230,a,0.13192058471031487,colour,0.5
065,70,0,1,13,33,633,1115.36647091317,1116.8086309253704,"[27, 0, 227]",227,a,0.9093304025009274,colour,0.5
065,70,0,1,13,34,634,1117.3166846635286,1118.016517782351,"[23, 0, 231]",231,a,0.1672210127580911,colour,0.5
065,70,0,1,13,35,635,1118.5333011888433,1119.280684886966,"[3, 0, 251]",251,a,0.214696524431929,colour,0.5
065,70,0,1,13,36,636,1119.7831425522454,1120.6644829662982,"[45, 0, 209]",209,a,0.34849829296581447,colour,0.5
065,70,0,1,13,37,637,1121.16646263632,1121.7685037080664,"[87, 0, 167]",167,l,0.06923552206717432,colour,0.5
065,70,0,1,13,38,638,1122.2833327879198,1123.0644854044076,"[50, 0, 204]",204,a,0.24855013471096754,colour,0.5
065,70,0,1,13,39,639,1123.5666052650195,1124.168676171219,"[39, 0, 215]",215,a,0.06939816870726645,colour,0.5
065,70,0,1,13,40,640,1124.684066975722,1125.496660449542,"[46, 0, 208]",208,a,0.28070092713460326,colour,0.5
065,70,0,1,13,41,641,1126.0008129125927,1126.6804919564165,"[62, 0, 192]",192,l,0.14789621136151254,colour,0.5
065,70,0,1,13,42,642,1127.182857551612,1128.104583428707,"[47, 0, 207]",207,a,0.38865277846343815,colour,0.5
065,70,0,1,13,43,643,1128.6163629631046,1129.2725050733425,"[71, 0, 183]",183,l,0.12324769841507077,colour,0.5
065,70,0,1,13,44,644,1129.784026041394,1130.3686504429206,"[65, 0, 189]",189,l,0.05272896774113178,colour,0.5
065,70,0,1,13,45,645,1130.8832353923935,1131.472482232377,"[74, 0, 180]",180,l,0.056560307973995805,colour,0.5
065,70,0,1,13,46,646,1131.9835896862205,1133.7844738811255,"[68, 0, 186]",186,l,1.2685441290959716,colour,0.5
065,70,0,1,13,47,647,1134.3000956631731,1134.9445063592866,"[84, 0, 170]",170,l,0.11193332704715431,colour,0.5
065,70,0,1,13,48,648,1135.4500401965342,1136.400496473303,"[67, 0, 187]",187,l,0.41793688270263374,colour,0.5
065,70,0,1,13,49,649,1136.9166475788224,1137.7365242240485,"[83, 0, 171]",171,l,0.2872924490366131,colour,0.5
065,70,0,1,13,50,650,1138.2501823760103,1139.0324882762507,"[40, 0, 214]",214,a,0.24992733844555914,colour,0.5
065,70,0,1,14,1,651,1149.6997003066353,1150.2406798952725,"[43, 0, 211]",211,a,0.008155753370374441,colour,0.5
065,70,0,1,14,2,652,1150.7499116188847,1151.3686716158409,"[66, 0, 188]",188,l,0.08616264793090522,colour,0.5
065,70,0,1,14,3,653,1151.8832386003342,1153.3684913250618,"[10, 0, 244]",244,a,0.9525937815196812,colour,0.5
065,70,0,1,14,4,654,1153.8829251767602,1154.8485714357812,"[61, 0, 193]",193,l,0.4327303534373641,colour,0.5
065,70,0,1,14,5,655,1155.3659945218824,1156.6726833111607,"[46, 0, 208]",208,a,0.7735136754345149,colour,0.5
065,70,0,1,14,6,656,1157.1833060330246,1157.8325618039817,"[4, 0, 250]",250,a,0.11671680794097483,colour,0.5
065,70,0,1,14,7,657,1158.3491854511667,1158.9926250791177,"[67, 0, 187]",187,l,0.11014068452641368,colour,0.5
065,70,0,1,14,8,658,1159.4991338341497,1160.0565134708304,"[20, 0, 234]",234,a,0.024020382668823004,colour,0.5
065,70,0,1,14,9,659,1160.5672459069174,1161.1605489694048,"[76, 0, 178]",178,l,0.061388380359858274,colour,0.5
065,70,0,1,14,10,660,1161.666147287935,1162.3286387145054,"[54, 0, 200]",200,l,0.1294847340323031,colour,0.5
065,70,0,1,14,11,661,1162.8333849823102,1163.4645317923278,"[77, 0, 177]",177,l,0.09872461878694594,colour,0.5
065,70,0,1,14,12,662,1163.9660219184589,1164.5767034755554,"[94, 0, 160]",160,l,0.07753659877926111,colour,0.5
065,70,0,1,14,13,663,1165.083067548694,1165.6725309300236,"[89, 0, 165]",165,l,0.05671461368910968,colour,0.5
065,70,0,1,14,14,664,1166.1826779022813,1167.5766309741884,"[3, 0, 251]",251,a,0.8607984895352274,colour,0.5
065,70,0,1,14,15,665,1168.0824435884133,1168.9765342844184,"[35, 0, 219]",219,a,0.3607279129792005,colour,0.5
065,70,0,1,14,16,666,1169.4828014753293,1171.2085284611676,"[82, 0, 172]",172,l,1.192731200484559,colour,0.5
065,70,0,1,14,17,667,1171.716384906089,1172.2966691753827,"[31, 0, 223]",223,a,0.04754159692674875,colour,0.5
065,70,0,1,14,18,668,1172.7992375174072,1173.6165143817198,"[14, 0, 240]",240,a,0.28407480334863067,colour,0.5
065,70,0,1,14,19,669,1174.1329773070756,1174.7846358863171,"[86, 0, 168]",168,l,0.1188523881137371,colour,0.5
065,70,0,1,14,20,670,1175.3001380090136,1175.9206842323765,"[6, 0, 248]",248,a,0.08821481931954622,colour,0.5
065,70,0,1,14,21,671,1176.4325965789612,1177.0486499681138,"[92, 0, 162]",162,l,0.08286768896505237,colour,0.5
065,70,0,1,14,22,672,1177.5664576960262,1178.2086914286483,"[44, 0, 210]",210,a,0.10953308525495231,colour,0.5
065,70,0,1,14,23,673,1178.716582841007,1179.5446598308627,"[63, 0, 191]",191,l,0.2955553501378745,colour,0.5
065,70,0,1,14,24,674,1180.0497172770556,1180.7605814987328,"[22, 0, 232]",232,a,0.17815362964756787,colour,0.5
065,70,0,1,14,25,675,1181.2662770203315,1182.0245638212655,"[62, 0, 192]",192,l,0.22541035409085453,colour,0.5
065,70,0,1,14,26,676,1182.53315073275,1183.384525337955,"[53, 0, 201]",201,a,0.3187647450249642,colour,0.5
065,70,0,1,14,27,677,1183.8994606032502,1184.5446020865347,"[1, 0, 253]",253,a,0.11217745742760599,colour,0.5
065,70,0,1,14,28,678,1185.049317236757,1185.7126276711933,"[75, 0, 179]",179,l,0.1302267494611442,colour,0.5
065,70,0,1,14,29,679,1186.216255622916,1186.7845640266314,"[40, 0, 214]",214,a,0.03546499949879944,colour,0.5
065,70,0,1,14,30,680,1187.2992323844228,1188.0886042730417,"[15, 0, 239]",239,a,0.25617688498459756,colour,0.5
065,70,0,1,14,31,681,1188.5995888598263,1189.8965451531112,"[59, 0, 195]",195,a,0.764153310097754,colour,0.5
065,70,0,1,14,32,682,1190.3998359416146,1191.3045464723837,"[49, 0, 205]",205,a,0.3721442995592952,colour,0.5
065,70,0,1,14,33,683,1191.816659961827,1192.4245960940607,"[33, 0, 221]",221,a,0.0755447382107377,colour,0.5
065,70,0,1,14,34,684,1192.9334187950008,1194.3125354084186,"[99, 0, 155]",155,l,0.8467454300262034,colour,0.5
065,70,0,1,14,35,685,1194.8172152703628,1195.8964941455051,"[78, 0, 176]",176,l,0.5474402231629938,colour,0.5
065,70,0,1,14,36,686,1196.3998462073505,1197.3845474731643,"[88, 0, 166]",166,l,0.45217577647417784,colour,0.5
065,70,0,1,14,37,687,1197.8997836508788,1198.8325236286037,"[32, 0, 222]",222,a,0.4001435909885913,colour,0.5
065,70,0,1,14,38,688,1199.3494347145315,1200.256554790074,"[17, 0, 237]",237,a,0.3741778642870486,colour,0.5
065,70,0,1,14,39,689,1200.7667752259877,1201.712545224931,"[81, 0, 173]",173,l,0.4135210409294814,colour,0.5
065,70,0,1,14,40,690,1202.2163486555219,1203.0805223044008,"[38, 0, 216]",216,a,0.33146305684931576,colour,0.5
065,70,0,1,14,41,691,1203.583162506111,1204.5126723267604,"[48, 0, 206]",206,a,0.39697342412546277,colour,0.5
065,70,0,1,14,42,692,1205.015924619045,1205.8165768741164,"[93, 0, 161]",161,l,0.26755092572420835,colour,0.5
065,70,0,1,14,43,693,1206.3331206415314,1207.3286630953662,"[9, 0, 245]",245,a,0.4629685233812779,colour,0.5
065,70,0,1,14,44,694,1207.8327664758544,1208.8326862752438,"[56, 0, 198]",198,a,0.4670128761790693,colour,0.5
065,70,0,1,14,45,695,1209.349763536593,1209.9607062267605,"[2, 0, 252]",252,a,0.07835817313753068,colour,0.5
065,70,0,1,14,46,696,1210.4668640240561,1211.2966768746264,"[18, 0, 236]",236,a,0.2976716822013259,colour,0.5
065,70,0,1,14,47,697,1211.80057462072,1212.720620457083,"[12, 0, 242]",242,a,0.38828289369121194,colour,0.5
065,70,0,1,14,48,698,1213.2327089239843,1214.2647506436333,"[51, 0, 203]",203,a,0.49906582408584654,colour,0.5
065,70,0,1,14,49,699,1214.7659068147186,1215.66458626464,"[72, 0, 182]",182,l,0.3655858200509101,colour,0.5
065,70,0,1,14,50,700,1216.1829172207508,1216.9845649248455,"[95, 0, 159]",159,l,0.26890118210576475,colour,0.5
065,70,0,1,15,1,701,1232.9322135413531,1233.5047007140238,"[77, 0, 177]",177,l,0.03909102641046047,colour,0.5
065,70,0,1,15,2,702,1234.0160683384165,1235.0406251021195,"[72, 0, 182]",182,l,0.49168384564109147,colour,0.5
065,70,0,1,15,3,703,1235.5495863896795,1236.512572236592,"[35, 0, 219]",219,a,0.4303002771921456,colour,0.5
065,70,0,1,15,4,704,1237.0157231553458,1237.9606879409403,"[28, 0, 226]",226,a,0.4117688196711242,colour,0.5
065,70,0,1,15,5,705,1238.4671084752772,1239.3765370433684,"[27, 0, 227]",227,a,0.37761365552432835,colour,0.5
065,70,0,1,15,6,706,1239.883223843528,1240.824667504523,"[99, 0, 155]",155,l,0.40907664806582034,colour,0.5
065,70,0,1,15,7,707,1241.3329387465492,1242.5367286391556,"[67, 0, 187]",187,l,0.6711505183484405,colour,0.5
065,70,0,1,15,8,708,1243.0491969359573,1244.016691657016,"[22, 0, 232]",232,a,0.4344594771973789,colour,0.5
065,70,0,1,15,9,709,1244.5329377199523,1245.4405765328556,"[86, 0, 168]",168,l,0.374997834675014,colour,0.5
065,70,0,1,15,10,710,1245.9494996448047,1246.896550927544,"[50, 0, 204]",204,a,0.41431021434254944,colour,0.5
065,70,0,1,15,11,711,1247.4005083430093,1248.3606756220106,"[66, 0, 188]",188,a,0.42843866208568215,colour,0.5
065,70,0,1,15,12,712,1248.867139144102,1249.7845823122188,"[0, 0, 254]",254,a,0.38567220559343696,colour,0.5
065,70,0,1,15,13,713,1250.2996301793028,1251.2005539610982,"[96, 0, 158]",158,l,0.3682985231280327,colour,0.5
065,70,0,1,15,14,714,1251.715928404592,1252.6405581829604,"[51, 0, 203]",203,a,0.3916683190036565,colour,0.5
065,70,0,1,15,15,715,1253.1496712097432,1254.1605768792797,"[17, 0, 237]",237,a,0.4783554782625288,colour,0.5
065,70,0,1,15,16,716,1254.6659285009373,1255.61663500336,"[5, 0, 249]",249,a,0.4177652536891401,colour,0.5
065,70,0,1,15,17,717,1256.1329378483351,1256.9846829799935,"[65, 0, 189]",189,l,0.3191298176534474,colour,0.5
065,70,0,1,15,18,718,1257.499541573692,1258.392567206407,"[29, 0, 225]",225,a,0.3603095868602395,colour,0.5
065,70,0,1,15,19,719,1258.8989915903658,1259.8405751211103,"[32, 0, 222]",222,a,0.40833559492602944,colour,0.5
065,70,0,1,15,20,720,1260.3489461326972,1261.232565204613,"[39, 0, 215]",215,a,0.3503727400675416,colour,0.5
065,70,0,1,15,21,721,1261.749443568522,1262.6726566844154,"[53, 0, 201]",201,a,0.3904604986310005,colour,0.5
065,70,0,1,15,22,722,1263.1826862432063,1264.0886899272446,"[46, 0, 208]",208,a,0.373164450051263,colour,0.5
065,70,0,1,15,23,723,1264.5991005990654,1265.4967214018106,"[74, 0, 180]",180,l,0.36454481701366603,colour,0.5
065,70,0,1,15,24,724,1265.9993359395303,1266.8725786653813,"[44, 0, 210]",210,a,0.34039707598276436,colour,0.5
065,70,0,1,15,25,725,1267.3833114225417,1268.2565833413973,"[98, 0, 156]",156,l,0.34107043966650963,colour,0.5
065,70,0,1,15,26,726,1268.765872167889,1269.6646295730025,"[1, 0, 253]",253,a,0.3657699606847018,colour,0.5
065,70,0,1,15,27,727,1270.1661646112334,1271.1046597796958,"[60, 0, 194]",194,l,0.4058336589951068,colour,0.5
065,70,0,1,15,28,728,1271.6163334494922,1272.5205772127956,"[43, 0, 211]",211,a,0.3717221235856414,colour,0.5
065,70,0,1,15,29,729,1273.0327846973669,1273.9605891339015,"[6, 0, 248]",248,a,0.3950729921925813,colour,0.5
065,70,0,1,15,30,730,1274.467100134585,1275.3446608574595,"[15, 0, 239]",239,a,0.34583563497290015,colour,0.5
065,70,0,1,15,31,731,1275.849042052636,1276.712725515943,"[12, 0, 242]",242,a,0.33056801883503795,colour,0.5
065,70,0,1,15,32,732,1277.2156040736008,1278.0326175594237,"[85, 0, 169]",169,l,0.28379955515265465,colour,0.5
065,70,0,1,15,33,733,1278.5492832316086,1279.4566641193815,"[87, 0, 167]",167,l,0.3745134233031422,colour,0.5
065,70,0,1,15,34,734,1279.9657040035818,1280.8645554033574,"[36, 0, 218]",218,a,0.36575199547223747,colour,0.5
065,70,0,1,15,35,735,1281.3657535994425,1282.2085765814409,"[84, 0, 170]",170,l,0.30976656498387456,colour,0.5
065,70,0,1,15,36,736,1282.7156547603663,1283.6726791406982,"[33, 0, 221]",221,a,0.4238736475817859,colour,0.5
065,70,0,1,15,37,737,1284.1828992557712,1285.0887534462381,"[13, 0, 241]",241,a,0.3732561997603625,colour,0.5
065,70,0,1,15,38,738,1285.5990630651359,1286.9366980346385,"[2, 0, 252]",252,a,0.8045830437913537,colour,0.5
065,70,0,1,15,39,739,1287.4494078953285,1288.9445884844754,"[21, 0, 233]",233,a,0.9624587688595057,colour,0.5
065,70,0,1,15,40,740,1289.4504322167486,1290.4965635673143,"[34, 0, 220]",220,a,0.5144178115297109,colour,0.5
065,70,0,1,15,41,741,1290.999553764239,1291.9205735556316,"[80, 0, 174]",174,l,0.3884532395750284,colour,0.5
065,70,0,1,15,42,742,1292.4328304438386,1293.368592377752,"[40, 0, 214]",214,a,0.4031488655600697,colour,0.5
065,70,0,1,15,43,743,1293.882691953564,1295.296672704164,"[58, 0, 196]",196,l,0.8812005443032831,colour,0.5
065,70,0,1,15,44,744,1295.7987287251744,1296.672589957714,"[97, 0, 157]",157,l,0.3404689359012991,colour,0.5
065,70,0,1,15,45,745,1297.182826754637,1298.0165710353758,"[11, 0, 243]",243,a,0.30112190917134285,colour,0.5
065,70,0,1,15,46,746,1298.5328889582306,1299.408577479655,"[73, 0, 181]",181,l,0.34314955840818584,colour,0.5
065,70,0,1,15,47,747,1299.916172791738,1300.7767152809538,"[81, 0, 173]",173,l,0.32792781689204276,colour,0.5
065,70,0,1,15,48,748,1301.2831656499766,1302.152541426709,"[75, 0, 179]",179,l,0.3371216859668493,colour,0.5
065,70,0,1,15,49,749,1302.6655833176337,1303.512619715184,"[89, 0, 165]",165,l,0.31388534395955503,colour,0.5
065,70,0,1,15,50,750,1304.0160513359588,1304.8486038369592,"[55, 0, 199]",199,a,0.29981624451465905,colour,0.5
065,70,0,1,16,1,751,1309.6648217334878,1311.6005788552575,"[82, 0, 172]",172,l,1.4018104788847268,colour,0.5
065,70,0,1,16,2,752,1312.1157059604302,1313.2565794917755,"[86, 0, 168]",168,l,0.6078578564338386,colour,0.5
065,70,0,1,16,3,753,1313.7661743636709,1314.6645885102917,"[17, 0, 237]",237,a,0.36588224139995873,colour,0.5
065,70,0,1,16,4,754,1315.165889683878,1316.1125909714028,"[9, 0, 245]",245,a,0.4138832266908139,colour,0.5
065,70,0,1,16,5,755,1316.616699163802,1317.6486629287247,"[16, 0, 238]",238,a,0.49995252140797675,colour,0.5
065,70,0,1,16,6,756,1318.1655044003855,1319.1367027824745,"[51, 0, 203]",203,a,0.4379956794437021,colour,0.5
065,70,0,1,16,7,757,1319.6486677406356,1320.552649087971,"[30, 0, 224]",224,a,0.3706137523986399,colour,0.5
065,70,0,1,16,8,758,1321.0658587585203,1322.0005925216246,"[28, 0, 226]",226,a,0.4018813765142113,colour,0.5
065,70,0,1,16,9,759,1322.5169450908434,1323.3766111484729,"[46, 0, 208]",208,a,0.32791434321552515,colour,0.5
065,70,0,1,16,10,760,1323.882306349231,1324.8567310387734,"[39, 0, 215]",215,a,0.4413868789561093,colour,0.5
065,70,0,1,16,11,761,1325.366110010771,1326.1685799306724,"[10, 0, 244]",244,a,0.269894064636901,colour,0.5
065,70,0,1,16,12,762,1326.6832197371405,1327.5686898375861,"[45, 0, 209]",209,a,0.3533071174751967,colour,0.5
065,70,0,1,16,13,763,1328.0823868066072,1328.9126051508356,"[8, 0, 246]",246,a,0.2972613761667162,colour,0.5
065,70,0,1,16,14,764,1329.4160162401386,1330.2805783806834,"[64, 0, 190]",190,l,0.3318512274418026,colour,0.5
065,70,0,1,16,15,765,1330.7826340808533,1331.6806250894442,"[74, 0, 180]",180,l,0.3652842661831528,colour,0.5
065,70,0,1,16,16,766,1332.1829791355412,1333.0086122546345,"[75, 0, 179]",179,l,0.2932892036624253,colour,0.5
065,70,0,1,16,17,767,1333.5156015714165,1334.4007450949866,"[87, 0, 167]",167,l,0.35207972838543355,colour,0.5
065,70,0,1,16,18,768,1334.9157608817331,1335.8727393872105,"[40, 0, 214]",214,a,0.42408056487329304,colour,0.5
065,70,0,1,16,19,769,1336.3819319731556,1337.312632611487,"[13, 0, 241]",241,a,0.397325023310259,colour,0.5
065,70,0,1,16,20,770,1337.8158508988563,1338.6726255668327,"[91, 0, 163]",163,l,0.3239704016596079,colour,0.5
065,70,0,1,16,21,771,1339.1822380826343,1340.1287266784348,"[76, 0, 178]",178,l,0.4134081187658012,colour,0.5
065,70,0,1,16,22,772,1340.6328521941323,1341.424738209229,"[95, 0, 159]",159,l,0.2594250070396811,colour,0.5
065,70,0,1,16,23,773,1341.9321060725488,1342.816627560882,"[53, 0, 201]",201,a,0.3512751564849168,colour,0.5
065,70,0,1,16,24,774,1343.3322079593781,1344.1766465010587,"[37, 0, 217]",217,a,0.31134074134752154,colour,0.5
065,70,0,1,16,25,775,1344.6826708447188,1345.5847463062964,"[31, 0, 223]",223,a,0.3694591852836311,colour,0.5
065,70,0,1,16,26,776,1346.099412418669,1346.9606083820108,"[25, 0, 229]",229,a,0.32863197778351605,colour,0.5
065,70,0,1,16,27,777,1347.4664286954794,1348.3685997561552,"[96, 0, 158]",158,l,0.3699625236913562,colour,0.5
065,70,0,1,16,28,778,1348.8826560236048,1349.7366265598685,"[83, 0, 171]",171,l,0.32134591904468834,colour,0.5
065,70,0,1,16,29,779,1350.2493174932897,1351.2246054613497,"[69, 0, 185]",185,l,0.44265853869728744,colour,0.5
065,70,0,1,16,30,780,1351.7319242418744,1352.5688550507184,"[1, 0, 253]",253,a,0.30357829155400395,colour,0.5
065,70,0,1,16,31,781,1353.082606555894,1354.0407813328784,"[29, 0, 225]",225,a,0.4254901697859168,colour,0.5
065,70,0,1,16,32,782,1354.548994509736,1355.6887798802927,"[59, 0, 195]",195,l,0.6068091541528702,colour,0.5
065,70,0,1,16,33,783,1356.1989916546736,1357.5606344952248,"[89, 0, 165]",165,l,0.828713461291045,colour,0.5
065,70,0,1,16,34,784,1358.0669889445417,1358.9447296375874,"[32, 0, 222]",222,a,0.3461323771625757,colour,0.5
065,70,0,1,16,35,785,1359.4492670632899,1360.3367755403742,"[26, 0, 228]",228,a,0.35484728845767677,colour,0.5
065,70,0,1,16,36,786,1360.8490693208296,1361.7048161386047,"[71, 0, 183]",183,l,0.3228947517927736,colour,0.5
065,70,0,1,16,37,787,1362.215608564904,1363.0326881359797,"[33, 0, 221]",221,a,0.28408474824391305,colour,0.5
065,70,0,1,16,38,788,1363.5486698579043,1364.808732619742,"[54, 0, 200]",200,l,0.7268164299894124,colour,0.5
065,70,0,1,16,39,789,1365.3161242222413,1366.1206135917455,"[92, 0, 162]",162,l,0.2720078299753368,colour,0.5
065,70,0,1,16,40,790,1366.6326853770297,1367.4726394254249,"[67, 0, 187]",187,l,0.3073772306088358,colour,0.5
065,70,0,1,16,41,791,1367.9821813649032,1368.7846339615062,"[99, 0, 155]",155,l,0.2693987463135272,colour,0.5
065,70,0,1,16,42,792,1369.299275051104,1370.1047245815862,"[77, 0, 177]",177,l,0.272798286518082,colour,0.5
065,70,0,1,16,43,793,1370.6169195550028,1371.4407353298739,"[0, 0, 254]",254,a,0.2921766620129347,colour,0.5
065,70,0,1,16,44,794,1371.9493661911692,1372.7766969951335,"[41, 0, 213]",213,a,0.2948027483653277,colour,0.5
065,70,0,1,16,45,795,1373.2818359250668,1374.1207691808231,"[61, 0, 193]",193,l,0.30551304924301803,colour,0.5
065,70,0,1,16,46,796,1374.6322513318155,1375.9366653128527,"[52, 0, 202]",202,l,0.7714586169458926,colour,0.5
065,70,0,1,16,47,797,1376.4501495899167,1377.3047222718596,"[44, 0, 210]",210,a,0.32284214021638036,colour,0.5
065,70,0,1,16,48,798,1377.8154200615827,1378.7206198154017,"[97, 0, 157]",157,l,0.3720814222469926,colour,0.5
065,70,0,1,16,49,799,1379.2333678514697,1380.0406353678554,"[42, 0, 212]",212,a,0.27543271402828395,colour,0.5
065,70,0,1,16,50,800,1380.5498327657115,1382.1846094522625,"[22, 0, 232]",232,a,1.1027609517332166,colour,0.5
