id,age,condition,counterbalance,block,trialinblock,trial,tstart,tend,trialstim,trialintensity,response,RT,trialtype,colourfreq
111,20,1,1,Practice,1,NA,5.5138953030109406e-06,1.7111643764656037,"[0, 0, 254]",254,a,1.0772724784910679,colour,0.5
111,20,1,1,Practice,2,NA,2.219428238691762,2.919128561858088,"[1, 0, 253]",253,a,0.1763352444395423,colour,0.5
111,20,1,1,Practice,3,NA,3.4255228396505117,4.3191361236386,"[43, 0, 211]",211,a,0.37001701816916466,colour,0.5
111,20,1,1,Practice,4,NA,4.831787818111479,5.455133322626352,"[84, 0, 170]",170,l,0.09989141672849655,colour,0.5
111,20,1,1,Practice,5,NA,5.970234735868871,9.463169345166534,"[95, 0, 159]",159,l,2.9696707490365952,colour,0.5
111,20,1,1,Practice,6,NA,9.973982569295913,11.143184878630564,"[64, 0, 190]",190,a,0.6554092508740723,colour,0.5
111,20,1,1,Practice,7,NA,11.65954423416406,12.39113264833577,"[10, 0, 244]",244,a,0.22015015757642686,colour,0.5
111,20,1,1,Practice,8,NA,12.897901867050678,13.575130943674594,"[78, 0, 176]",176,l,0.15382618876174092,colour,0.5
111,20,1,1,Practice,9,NA,14.080975413322449,14.911193363601342,"[34, 0, 220]",220,a,0.30685877916403115,colour,0.5
111,20,1,1,Practice,10,NA,15.427158086095005,16.119134312029928,"[91, 0, 163]",163,l,0.16857727663591504,colour,0.5
111,20,1,1,1,1,1,5.657092546345666,6.288016424980015,"[44, 0, 210]",210,a,0.1271797870285809,colour,0.5
111,20,1,1,1,2,2,6.809296091785654,7.439931281842291,"[19, 0, 235]",235,a,0.10718464688397944,colour,0.5
111,20,1,1,1,3,3,7.950013528577983,10.031964497175068,"[52, 0, 202]",202,a,1.5586130653973669,colour,0.5
111,20,1,1,1,4,4,10.539528102381155,11.183983329450712,"[29, 0, 225]",225,a,0.13053613808006048,colour,0.5
111,20,1,1,1,5,5,11.701980688143522,12.359969626646489,"[64, 0, 190]",190,l,0.13472507800906897,colour,0.5
111,20,1,1,1,6,6,12.873836728278548,13.479999149451032,"[10, 0, 244]",244,a,0.08308288059197366,colour,0.5
111,20,1,1,1,7,7,13.998873995849863,14.543963589705527,"[70, 0, 184]",184,l,0.022123480681329966,colour,0.5
111,20,1,1,1,8,8,15.061341429827735,15.671967695234343,"[27, 0, 227]",227,a,0.0873667374253273,colour,0.5
111,20,1,1,1,9,9,16.1742817342747,17.15196881373413,"[31, 0, 223]",223,a,0.4541750964708626,colour,0.5
111,20,1,1,1,10,10,17.672150833299384,18.199985270155594,"[17, 0, 237]",237,a,0.004030220443382859,colour,0.5
111,20,1,1,1,11,11,18.722213710891083,19.327996858628467,"[81, 0, 173]",173,l,0.08269533631391823,colour,0.5
111,20,1,1,1,12,12,19.847380553605035,21.191963426070288,"[53, 0, 201]",201,l,0.8212410307023674,colour,0.5
111,20,1,1,1,13,13,21.704461914487183,22.751938408939168,"[60, 0, 194]",194,l,0.5241303204093128,colour,0.5
111,20,1,1,1,14,14,23.26681336108595,24.127990714740008,"[85, 0, 169]",169,l,0.33618136099539697,colour,0.5
111,20,1,1,1,15,15,24.645306720864028,25.583971198881045,"[43, 0, 211]",211,a,0.41555736819282174,colour,0.5
111,20,1,1,1,16,16,26.0957918795757,26.93590913526714,"[5, 0, 249]",249,a,0.31693964754231274,colour,0.5
111,20,1,1,1,17,17,27.44199857674539,28.287993581965566,"[11, 0, 243]",243,a,0.32345385127700865,colour,0.5
111,20,1,1,1,18,18,28.801282124593854,29.599916819948703,"[0, 0, 254]",254,a,0.27532948134467006,colour,0.5
111,20,1,1,1,19,19,30.11519585736096,30.67998284404166,"[24, 0, 230]",230,a,0.04152076318860054,colour,0.5
111,20,1,1,1,20,20,31.19327453756705,32.03193062660284,"[58, 0, 196]",196,l,0.3153453611303121,colour,0.5
111,20,1,1,1,21,21,32.552615192951635,33.87995984358713,"[32, 0, 222]",222,a,0.8039130121469498,colour,0.5
111,20,1,1,1,22,22,34.39637276227586,35.279918568441644,"[28, 0, 226]",226,a,0.3601905738469213,colour,0.5
111,20,1,1,1,23,23,35.786966630024835,36.67193224909715,"[46, 0, 208]",208,l,0.36163086676970124,colour,0.5
111,20,1,1,1,24,24,37.193282020511106,37.76792183914222,"[94, 0, 160]",160,l,0.05139446910470724,colour,0.5
111,20,1,1,1,25,25,38.28836143366061,40.21591474348679,"[83, 0, 171]",171,l,1.4042894495651126,colour,0.5
111,20,1,1,1,26,26,40.71369640901685,41.951963851228356,"[92, 0, 162]",162,l,0.7249225797131658,colour,0.5
111,20,1,1,1,27,27,42.46215873793699,43.41592758288607,"[90, 0, 164]",164,l,0.4307330211158842,colour,0.5
111,20,1,1,1,28,28,43.93310298630968,45.07194414339028,"[62, 0, 192]",192,l,0.6163945260923356,colour,0.5
111,20,1,1,1,29,29,45.58932828484103,46.551933840382844,"[80, 0, 174]",174,l,0.4394314920064062,colour,0.5
111,20,1,1,1,30,30,47.057985078776255,48.01589678414166,"[84, 0, 170]",170,l,0.4344261100050062,colour,0.5
111,20,1,1,1,31,31,48.516305398894474,49.559874158585444,"[15, 0, 239]",239,a,0.5211855378001928,colour,0.5
111,20,1,1,1,32,32,50.07488301815465,51.08787597971968,"[41, 0, 213]",213,a,0.48954241862520576,colour,0.5
111,20,1,1,1,33,33,51.5954612463247,52.77589720953256,"[77, 0, 177]",177,l,0.6573359426110983,colour,0.5
111,20,1,1,1,34,34,53.296300570247695,54.33589503541589,"[88, 0, 166]",166,l,0.5163325739558786,colour,0.5
111,20,1,1,1,35,35,54.8564181253314,56.33589542936534,"[82, 0, 172]",172,l,0.9560720531735569,colour,0.5
111,20,1,1,1,36,36,56.845100976061076,58.319860799238086,"[96, 0, 158]",158,l,0.9514329475350678,colour,0.5
111,20,1,1,1,37,37,58.82628776645288,59.88788992189802,"[30, 0, 224]",224,a,0.5382481045089662,colour,0.5
111,20,1,1,1,38,38,60.40408740704879,61.431890533072874,"[8, 0, 246]",246,a,0.5054029689636081,colour,0.5
111,20,1,1,1,39,39,61.95099223451689,63.07192996493541,"[13, 0, 241]",241,a,0.5975943133234978,colour,0.5
111,20,1,1,1,40,40,63.591551542514935,64.56811655615456,"[40, 0, 214]",214,a,0.45319008897058666,colour,0.5
111,20,1,1,1,41,41,65.07759779482149,66.2078732070513,"[55, 0, 199]",199,l,0.6070158842485398,colour,0.5
111,20,1,1,1,42,42,66.70573246013373,67.68787747621536,"[9, 0, 245]",245,a,0.45873503922484815,colour,0.5
111,20,1,1,1,43,43,68.2015027566813,70.0479010597337,"[33, 0, 221]",221,a,1.3232183316722512,colour,0.5
111,20,1,1,1,44,44,70.5622041481547,71.75984288728796,"[69, 0, 185]",185,l,0.6745142999570817,colour,0.5
111,20,1,1,1,45,45,72.28096934827045,73.34390112594701,"[57, 0, 197]",197,l,0.5400601874571294,colour,0.5
111,20,1,1,1,46,46,73.85910612042062,75.16788095794618,"[61, 0, 193]",193,l,0.7830084830056876,colour,0.5
111,20,1,1,1,47,47,75.68849423830397,76.84788743266836,"[67, 0, 187]",187,l,0.6361222448758781,colour,0.5
111,20,1,1,1,48,48,77.36039222287945,79.19186338922009,"[56, 0, 198]",198,l,1.308076549321413,colour,0.5
111,20,1,1,1,49,49,79.70622437307611,80.99987948336639,"[1, 0, 253]",253,a,0.7712959130294621,colour,0.5
111,20,1,1,1,50,50,81.52068850491196,82.71182209858671,"[39, 0, 215]",215,a,0.667836650274694,colour,0.5
111,20,1,1,2,1,51,91.45852196891792,92.26384809846058,"[76, 0, 178]",178,l,0.2846722831018269,colour,0.5
111,20,1,1,2,2,52,92.78392417379655,93.64784308569506,"[94, 0, 160]",160,l,0.34102211566641927,colour,0.5
111,20,1,1,2,3,53,94.15882487548515,95.22386884642765,"[1, 0, 253]",253,a,0.553288274910301,colour,0.5
111,20,1,1,2,4,54,95.74129000934772,96.6958000715822,"[71, 0, 183]",183,l,0.4314525770023465,colour,0.5
111,20,1,1,2,5,55,97.2100318740122,98.43181609618478,"[9, 0, 245]",245,a,0.6984309589024633,colour,0.5
111,20,1,1,2,6,56,98.94684189115651,99.97582694748417,"[11, 0, 243]",243,a,0.5054821318481117,colour,0.5
111,20,1,1,2,7,57,100.49376444192603,101.80783256213181,"[91, 0, 163]",163,l,0.7878614466171712,colour,0.5
111,20,1,1,2,8,58,102.32452826178633,103.46383139956743,"[61, 0, 193]",193,l,0.6157915487419814,colour,0.5
111,20,1,1,2,9,59,103.98098120302893,105.09576824866235,"[39, 0, 215]",215,a,0.5881274498533458,colour,0.5
111,20,1,1,2,10,60,105.60650191595778,106.70378528814763,"[86, 0, 168]",168,l,0.5747095292899758,colour,0.5
111,20,1,1,2,11,61,107.21821677032858,108.29578108806163,"[63, 0, 191]",191,l,0.5543209374882281,colour,0.5
111,20,1,1,2,12,62,108.81252680625767,109.8558171170298,"[69, 0, 185]",185,l,0.5322872535325587,colour,0.5
111,20,1,1,2,13,63,110.37391254352406,111.46380461798981,"[12, 0, 242]",242,a,0.5647255468647927,colour,0.5
111,20,1,1,2,14,64,111.96959394938312,113.07178109139204,"[68, 0, 186]",186,l,0.5913053890690207,colour,0.5
111,20,1,1,2,15,65,113.59039324289188,114.69581109913997,"[92, 0, 162]",162,l,0.5942025161348283,colour,0.5
111,20,1,1,2,16,66,115.21562054101378,116.22381882788613,"[65, 0, 189]",189,l,0.48426607088185847,colour,0.5
111,20,1,1,2,17,67,116.73172468482517,117.88781942357309,"[45, 0, 209]",209,a,0.6303409875836223,colour,0.5
111,20,1,1,2,18,68,118.40655366727151,119.40778916049749,"[26, 0, 228]",228,a,0.4778432394377887,colour,0.5
111,20,1,1,2,19,69,119.91055021388456,120.98378026252612,"[33, 0, 221]",221,a,0.5498425208497792,colour,0.5
111,20,1,1,2,20,70,121.50433604163118,122.55980917415582,"[88, 0, 166]",166,l,0.5335499222856015,colour,0.5
111,20,1,1,2,21,71,123.08145393570885,124.43979382980615,"[41, 0, 213]",213,l,0.8350579168181866,colour,0.5
111,20,1,1,2,22,72,124.94801870151423,126.1517781924922,"[8, 0, 246]",246,a,0.6804428554605693,colour,0.5
111,20,1,1,2,23,73,126.6667791751679,127.76776193780825,"[73, 0, 181]",181,l,0.57767518539913,colour,0.5
111,20,1,1,2,24,74,128.27808127948083,130.07975055417046,"[29, 0, 225]",225,a,1.2783156177029014,colour,0.5
111,20,1,1,2,25,75,130.5906827193685,131.59174728370272,"[16, 0, 238]",238,a,0.4772926433943212,colour,0.5
111,20,1,1,2,26,76,132.1081779252272,132.97576905228198,"[84, 0, 170]",170,l,0.3444186388514936,colour,0.5
111,20,1,1,2,27,77,133.48322592512704,134.49577777972445,"[50, 0, 204]",204,l,0.4892167083453387,colour,0.5
111,20,1,1,2,28,78,135.01433991314843,135.91172859957442,"[34, 0, 220]",220,a,0.3739964326377958,colour,0.5
111,20,1,1,2,29,79,136.4206127685029,137.26374963717535,"[67, 0, 187]",187,l,0.31796797807328403,colour,0.5
111,20,1,1,2,30,80,137.78172179008834,138.7837422171142,"[47, 0, 207]",207,l,0.47861990239471197,colour,0.5
111,20,1,1,2,31,81,139.2972981808707,140.3357146542985,"[51, 0, 203]",203,a,0.5149442688561976,colour,0.5
111,20,1,1,2,32,82,140.84421009779908,141.83176773204468,"[95, 0, 159]",159,l,0.46462696720846,colour,0.5
111,20,1,1,2,33,83,142.34412404242903,143.46373923961073,"[27, 0, 227]",227,a,0.5952261204365641,colour,0.5
111,20,1,1,2,34,84,143.97013076068833,145.559753641719,"[43, 0, 211]",211,a,1.06410425552167,colour,0.5
111,20,1,1,2,35,85,146.06436970760114,146.9837609641254,"[37, 0, 217]",217,a,0.39615260250866413,colour,0.5
111,20,1,1,2,36,86,147.50322342826985,148.55969141423702,"[53, 0, 201]",201,l,0.5330997568089515,colour,0.5
111,20,1,1,2,37,87,149.08312580967322,150.12772526289336,"[17, 0, 237]",237,a,0.5214824972208589,colour,0.5
111,20,1,1,2,38,88,150.64559501595795,152.8316944767721,"[20, 0, 234]",234,a,1.6730688870884478,colour,0.5
111,20,1,1,2,39,89,153.3489454984665,154.41569836484268,"[89, 0, 165]",165,l,0.5423696972429752,colour,0.5
111,20,1,1,2,40,90,154.9169033349026,155.9756859508343,"[23, 0, 231]",231,a,0.535351371159777,colour,0.5
111,20,1,1,2,41,91,156.4953796020709,157.5677794246003,"[78, 0, 176]",176,l,0.5497283057775348,colour,0.5
111,20,1,1,2,42,92,158.0640829880722,159.3599841990508,"[22, 0, 232]",232,a,0.7733521801419556,colour,0.5
111,20,1,1,2,43,93,159.87049258640036,161.0637560961768,"[15, 0, 239]",239,a,0.6704754147212952,colour,0.5
111,20,1,1,2,44,94,161.5738316476345,163.2717317030765,"[99, 0, 155]",155,l,1.1750016836449504,colour,0.5
111,20,1,1,2,45,95,163.77921575144865,165.19972848286852,"[3, 0, 251]",251,a,0.8974119231570512,colour,0.5
111,20,1,1,2,46,96,165.7156152240932,166.56776800309308,"[38, 0, 216]",216,l,0.32915515825152397,colour,0.5
111,20,1,1,2,47,97,167.07743395515718,168.5439832820557,"[77, 0, 177]",177,l,0.943788013420999,colour,0.5
111,20,1,1,2,48,98,169.06162578612566,169.99972430826165,"[49, 0, 205]",205,l,0.41539943614043295,colour,0.5
111,20,1,1,2,49,99,170.51259813155048,171.4158310906496,"[82, 0, 172]",172,l,0.3769254609942436,colour,0.5
111,20,1,1,2,50,100,171.9219701567199,172.82368602324277,"[75, 0, 179]",179,l,0.37918574013747275,colour,0.5
111,20,1,1,3,1,101,182.71914841164835,183.51969207590446,"[70, 0, 184]",184,l,0.2764204330742359,colour,0.5
111,20,1,1,3,2,102,184.03245325945318,185.07964618504047,"[33, 0, 221]",221,a,0.5238786530680954,colour,0.5
111,20,1,1,3,3,103,185.59864312363788,186.2156843438279,"[23, 0, 231]",231,a,0.09666385315358639,colour,0.5
111,20,1,1,3,4,104,186.73650281783193,187.46371363964863,"[54, 0, 200]",200,l,0.20373625424690545,colour,0.5
111,20,1,1,3,5,105,187.97049703705125,188.6156537027564,"[19, 0, 235]",235,a,0.12215353129431605,colour,0.5
111,20,1,1,3,6,106,189.1310611339286,190.80759625486098,"[2, 0, 252]",252,a,1.1531259317416698,colour,0.5
111,20,1,1,3,7,107,191.3061246513389,191.99165953486226,"[77, 0, 177]",177,l,0.16216980502940714,colour,0.5
111,20,1,1,3,8,108,192.51046467083506,193.83166296919808,"[66, 0, 188]",188,l,0.7980990656651556,colour,0.5
111,20,1,1,3,9,109,194.33863856294192,196.18365761917084,"[47, 0, 207]",207,l,1.3206492778845131,colour,0.5
111,20,1,1,3,10,110,196.69957862468436,197.56765851401724,"[16, 0, 238]",238,a,0.34355139127001166,colour,0.5
111,20,1,1,3,11,111,198.07570654898882,198.7276223904919,"[97, 0, 157]",157,l,0.14085252583026886,colour,0.5
111,20,1,1,3,12,112,199.23513400787488,199.92765925452113,"[30, 0, 224]",224,a,0.17777120508253574,colour,0.5
111,20,1,1,3,13,113,200.43781239329837,201.15166830969974,"[64, 0, 190]",190,l,0.1908484494779259,colour,0.5
111,20,1,1,3,14,114,201.67217131331563,202.3116353370715,"[7, 0, 247]",247,a,0.11660306737758219,colour,0.5
111,20,1,1,3,15,115,202.8283755411394,203.91160768899135,"[48, 0, 206]",206,a,0.5600049151107669,colour,0.5
111,20,1,1,3,16,116,204.4234965047799,205.22378574497998,"[24, 0, 230]",230,a,0.2853449711110443,colour,0.5
111,20,1,1,3,17,117,205.74338251026347,206.4556882509496,"[52, 0, 202]",202,l,0.1964607471600175,colour,0.5
111,20,1,1,3,18,118,206.97152024740353,207.64763434766792,"[74, 0, 180]",180,l,0.15344455279409885,colour,0.5
111,20,1,1,3,19,119,208.15886622923426,208.87166151986457,"[4, 0, 250]",250,a,0.18972756527364254,colour,0.5
111,20,1,1,3,20,120,209.3850666405633,210.2556352391839,"[17, 0, 237]",237,a,0.34709403081797063,colour,0.5
111,20,1,1,3,21,121,210.77563687763177,211.41564322635531,"[73, 0, 181]",181,l,0.11751954536885023,colour,0.5
111,20,1,1,3,22,122,211.93193956674077,214.43957642721944,"[84, 0, 170]",170,l,1.9842052219901234,colour,0.5
111,20,1,1,3,23,123,214.9490127672907,215.9756627138704,"[34, 0, 220]",220,a,0.5032797479070723,colour,0.5
111,20,1,1,3,24,124,216.49593807500787,217.73561351466924,"[90, 0, 164]",164,l,0.7166423727758229,colour,0.5
111,20,1,1,3,25,125,218.24731092178263,221.0636367611587,"[18, 0, 236]",236,a,2.293160440400243,colour,0.5
111,20,1,1,3,26,126,221.57548855547793,222.62364994711243,"[41, 0, 213]",213,a,0.5233150601852685,colour,0.5
111,20,1,1,3,27,127,223.1412526727654,224.16766079817899,"[59, 0, 195]",195,l,0.5032632064539939,colour,0.5
111,20,1,1,3,28,128,224.68563255714253,225.76773397484794,"[78, 0, 176]",176,l,0.5585736809298396,colour,0.5
111,20,1,1,3,29,129,226.2794514677953,227.3355823222082,"[10, 0, 244]",244,a,0.5329248893540353,colour,0.5
111,20,1,1,3,30,130,227.84292301069945,228.88754609483294,"[36, 0, 218]",218,a,0.5220756286289543,colour,0.5
111,20,1,1,3,31,131,229.40521262353286,230.40774504980072,"[39, 0, 215]",215,a,0.479178769281134,colour,0.5
111,20,1,1,3,32,132,230.92078153113835,231.9676333866082,"[94, 0, 160]",160,l,0.5235907519236207,colour,0.5
111,20,1,1,3,33,133,232.4867256358266,233.54359731357545,"[5, 0, 249]",249,a,0.534832676872611,colour,0.5
111,20,1,1,3,34,134,234.06367732724175,235.11959432344884,"[79, 0, 175]",175,l,0.5325538869947195,colour,0.5
111,20,1,1,3,35,135,235.62617095187306,236.58355490420945,"[68, 0, 186]",186,l,0.43399563687853515,colour,0.5
111,20,1,1,3,36,136,237.09646929358132,238.15959405573085,"[28, 0, 226]",226,a,0.5400432522874326,colour,0.5
111,20,1,1,3,37,137,238.67448869999498,239.67960317712277,"[72, 0, 182]",182,l,0.4818045368883759,colour,0.5
111,20,1,1,3,38,138,240.18976852530614,241.27962672896683,"[69, 0, 185]",185,l,0.5667475492227823,colour,0.5
111,20,1,1,3,39,139,241.79908682988025,242.77553487173282,"[37, 0, 217]",217,a,0.45312628615647554,colour,0.5
111,20,1,1,3,40,140,243.2834403347224,244.2235533760395,"[51, 0, 203]",203,a,0.4174517646897584,colour,0.5
111,20,1,1,3,41,141,244.73866069712676,245.7356072133407,"[92, 0, 162]",162,l,0.47339514875784516,colour,0.5
111,20,1,1,3,42,142,246.25435524154454,247.4235508556012,"[99, 0, 155]",155,l,0.6457490094471723,colour,0.5
111,20,1,1,3,43,143,247.94193772762083,249.04758795257658,"[15, 0, 239]",239,a,0.5887087658047676,colour,0.5
111,20,1,1,3,44,144,249.56126522063278,250.7035970299039,"[40, 0, 214]",214,a,0.6283154401462525,colour,0.5
111,20,1,1,3,45,145,251.22401496302336,253.09560401528142,"[11, 0, 243]",243,a,1.3482149152550846,colour,0.5
111,20,1,1,3,46,146,253.60854006605223,254.63157608686015,"[1, 0, 253]",253,a,0.4996496743988246,colour,0.5
111,20,1,1,3,47,147,255.14618204254657,256.4556394140236,"[62, 0, 192]",192,l,0.7866515535861254,colour,0.5
111,20,1,1,3,48,148,256.973680883646,257.99151775054634,"[81, 0, 173]",173,l,0.494368206942454,colour,0.5
111,20,1,1,3,49,149,258.5064206656534,259.54354965826496,"[55, 0, 199]",199,l,0.5139439015183598,colour,0.5
111,20,1,1,3,50,150,260.0531711059157,260.911561609013,"[82, 0, 172]",172,l,0.33491436019539833,colour,0.5
111,20,1,1,4,1,151,269.56592520023696,270.5035010892898,"[16, 0, 238]",238,a,0.4225902664475143,colour,0.5
111,20,1,1,4,2,152,270.99836042150855,271.62354360870086,"[63, 0, 191]",191,l,0.10233956016600132,colour,0.5
111,20,1,1,4,3,153,272.13868834497407,272.71954028797336,"[31, 0, 223]",223,a,0.057222594041377306,colour,0.5
111,20,1,1,4,4,154,273.2324318343308,273.79151908960193,"[40, 0, 214]",214,a,0.03589743794873357,colour,0.5
111,20,1,1,4,5,155,274.31062630494125,275.15950189577416,"[23, 0, 231]",231,a,0.3242872282862663,colour,0.5
111,20,1,1,4,6,156,275.67120481655,276.50350227067247,"[10, 0, 244]",244,a,0.3088918093126267,colour,0.5
111,20,1,1,4,7,157,277.0170795021113,277.87155754468404,"[14, 0, 240]",240,a,0.33098496426828206,colour,0.5
111,20,1,1,4,8,158,278.38689959747717,279.07948470837437,"[39, 0, 215]",215,a,0.180610436713323,colour,0.5
111,20,1,1,4,9,159,279.5942399315536,280.36757320701145,"[61, 0, 193]",193,l,0.25374163035303354,colour,0.5
111,20,1,1,4,10,160,280.8873267227318,281.7195154756773,"[65, 0, 189]",189,l,0.3093636364210397,colour,0.5
111,20,1,1,4,11,161,282.23120579333045,283.07979860319756,"[50, 0, 204]",204,a,0.32566450582817197,colour,0.5
111,20,1,1,4,12,162,283.5904913104605,284.3115175771527,"[83, 0, 171]",171,l,0.19695423543453217,colour,0.5
111,20,1,1,4,13,163,284.8257103888318,285.671484840801,"[73, 0, 181]",181,l,0.3225724252406508,colour,0.5
111,20,1,1,4,14,164,286.17265082011,287.0875156112015,"[60, 0, 194]",194,l,0.39155130623839796,colour,0.5
111,20,1,1,4,15,165,287.59485708735883,288.543516575126,"[28, 0, 226]",226,a,0.4333426412194967,colour,0.5
111,20,1,1,4,16,166,289.0554124803748,289.9915016028099,"[30, 0, 224]",224,a,0.41325140302069485,colour,0.5
111,20,1,1,4,17,167,290.5014176466502,291.4074988963548,"[67, 0, 187]",187,l,0.38884086161851883,colour,0.5
111,20,1,1,4,18,168,291.91744802333415,294.85552330850624,"[51, 0, 203]",203,l,2.4157314479816705,colour,0.5
111,20,1,1,4,19,169,295.3704849064816,296.35948480293155,"[71, 0, 183]",183,l,0.46568168536759913,colour,0.5
111,20,1,1,4,20,170,296.8775770785287,297.7914430773817,"[32, 0, 222]",222,a,0.3905611785594374,colour,0.5
111,20,1,1,4,21,171,298.2911439517047,299.2234931178391,"[95, 0, 159]",159,l,0.4093720254022628,colour,0.5
111,20,1,1,4,22,172,299.73123474093154,300.60745029570535,"[20, 0, 234]",234,a,0.35310608171857893,colour,0.5
111,20,1,1,4,23,173,301.12191210407764,302.1116150144953,"[69, 0, 185]",185,l,0.4664142378605902,colour,0.5
111,20,1,1,4,24,174,302.62169214128517,303.56758407712914,"[45, 0, 209]",209,a,0.42272535525262356,colour,0.5
111,20,1,1,4,25,175,304.07622484955937,305.3995117105078,"[64, 0, 190]",190,l,0.7998662502504885,colour,0.5
111,20,1,1,4,26,176,305.92007221560925,307.0634551984258,"[49, 0, 205]",205,a,0.6209426533896476,colour,0.5
111,20,1,1,4,27,177,307.57623607409187,308.535411629593,"[22, 0, 232]",232,a,0.4344544669147581,colour,0.5
111,20,1,1,4,28,178,309.0463185887784,310.0636300656479,"[53, 0, 201]",201,l,0.4945836402475834,colour,0.5
111,20,1,1,4,29,179,310.57755033648573,311.5514726473484,"[79, 0, 175]",175,l,0.4504394724499434,colour,0.5
111,20,1,1,4,30,180,312.0620310532395,313.0074621899985,"[85, 0, 169]",169,l,0.42225431627593935,colour,0.5
111,20,1,1,4,31,181,313.5151033825241,314.85544138844125,"[76, 0, 178]",178,l,0.8175432155840099,colour,0.5
111,20,1,1,4,32,182,315.37569626956247,316.3914347279351,"[86, 0, 168]",168,l,0.48955423408187926,colour,0.5
111,20,1,1,4,33,183,316.90731122903526,317.8713826772291,"[68, 0, 186]",186,l,0.4407882895320654,colour,0.5
111,20,1,1,4,34,184,318.39172144723125,319.28738981694914,"[72, 0, 182]",182,l,0.3728062317240983,colour,0.5
111,20,1,1,4,35,185,319.78624077280983,320.79949957993813,"[15, 0, 239]",239,a,0.49027260788716376,colour,0.5
111,20,1,1,4,36,186,321.31506297388114,322.4474651515484,"[27, 0, 227]",227,a,0.6091068095993251,colour,0.5
111,20,1,1,4,37,187,322.9443102525547,323.8954738099128,"[21, 0, 233]",233,a,0.42863618792034686,colour,0.5
111,20,1,1,4,38,188,324.4130690526217,325.40738940727897,"[89, 0, 165]",165,l,0.47116165119223297,colour,0.5
111,20,1,1,4,39,189,325.91304168035276,326.7754076595884,"[62, 0, 192]",192,l,0.34814717364497483,colour,0.5
111,20,1,1,4,40,190,327.29449006263167,328.4153710792307,"[3, 0, 251]",251,a,0.597647876245901,colour,0.5
111,20,1,1,4,41,191,328.935235659359,330.28738981694914,"[93, 0, 161]",161,l,0.828715429874137,colour,0.5
111,20,1,1,4,42,192,330.80491495504975,331.87939703837037,"[17, 0, 237]",237,a,0.5516691762022674,colour,0.5
111,20,1,1,4,43,193,332.3898294137325,333.4873892655596,"[42, 0, 212]",212,a,0.574996248818934,colour,0.5
111,20,1,1,4,44,194,333.99905949714594,334.7914178711362,"[0, 0, 254]",254,a,0.28149710106663406,colour,0.5
111,20,1,1,4,45,195,335.3055913846474,336.2633951762691,"[24, 0, 230]",230,a,0.44796572905033827,colour,0.5
111,20,1,1,4,46,196,336.7818230083212,337.91940110293217,"[66, 0, 188]",188,l,0.6142031699419022,colour,0.5
111,20,1,1,4,47,197,338.4380510635674,339.6073805850465,"[6, 0, 248]",248,a,0.6459163937252015,colour,0.5
111,20,1,1,4,48,198,340.1092523357365,341.17541679693386,"[88, 0, 166]",166,l,0.542957708472386,colour,0.5
111,20,1,1,4,49,199,341.67937238374725,342.95135929854587,"[36, 0, 218]",218,a,0.753867857856676,colour,0.5
111,20,1,1,4,50,200,343.47120339865796,344.7674354398623,"[13, 0, 241]",241,a,0.7741288433317095,colour,0.5
111,20,1,1,5,1,201,349.4895995261613,350.4473757487722,"[76, 0, 178]",178,l,0.4429894918575883,colour,0.4
111,20,1,1,5,2,202,350.9542300379835,351.51931910426356,"[16, 0, 238]",238,a,0.04174525523558259,colour,0.4
111,20,1,1,5,3,203,352.0343248131685,352.7433238271624,"[87, 0, 167]",167,l,0.18454495281912386,colour,0.4
111,20,1,1,5,4,204,353.25756980804726,354.1913699009456,"[34, 0, 220]",220,a,0.4103932664729655,colour,0.4
111,20,1,1,5,5,205,354.7026250194758,355.4793934149202,"[93, 0, 161]",161,l,0.26122193690389395,colour,0.4
111,20,1,1,5,6,206,355.9918190422468,356.86340021761134,"[74, 0, 180]",180,l,0.347361845895648,colour,0.4
111,20,1,1,5,7,207,357.38311001635157,358.33532317192294,"[67, 0, 187]",187,l,0.42871692636981606,colour,0.4
111,20,1,1,5,8,208,358.843051798176,360.0793381978292,"[56, 0, 198]",198,l,0.7130146624986082,colour,0.4
111,20,1,1,5,9,209,360.58601328753866,361.51933446433395,"[1, 0, 253]",253,a,0.4100348672363907,colour,0.4
111,20,1,1,5,10,210,362.0352893406525,362.8234288422391,"[32, 0, 222]",222,a,0.26154528418555856,colour,0.4
111,20,1,1,5,11,211,363.33539209491573,364.063330743229,"[58, 0, 196]",196,l,0.21441064774990082,colour,0.4
111,20,1,1,5,12,212,364.5756287644617,365.46332294493914,"[84, 0, 170]",170,l,0.3644311078824103,colour,0.4
111,20,1,1,5,13,213,365.9818716875743,367.05535616050474,"[7, 0, 247]",247,a,0.5502186433877796,colour,0.4
111,20,1,1,5,14,214,367.5755543275736,368.5833414399531,"[20, 0, 234]",234,a,0.4834374201018363,colour,0.4
111,20,1,1,5,15,215,369.08028185158037,370.1593443576712,"[49, 0, 205]",205,a,0.5557659566402435,colour,0.4
111,20,1,1,5,16,216,370.66272611171007,371.71138729318045,"[27, 0, 227]",227,a,0.5334463408216834,colour,0.4
111,20,1,1,5,17,217,372.218333348399,373.13534617237747,"[86, 0, 168]",168,l,0.39409279078245163,colour,0.4
111,20,1,1,5,18,218,373.6441204585135,374.5593562517315,"[70, 0, 184]",184,l,0.38760576234199107,colour,0.4
111,20,1,1,5,19,219,375.06530509050936,375.95940949977376,"[81, 0, 173]",173,l,0.36957039730623364,colour,0.4
111,20,1,1,5,20,220,376.47397292009555,377.3353101750836,"[97, 0, 157]",157,l,0.3372419869992882,colour,0.4
111,20,1,1,5,21,221,377.83739066356793,378.81534555810504,"[72, 0, 182]",182,l,0.45520460861735046,colour,0.4
111,20,1,1,5,22,222,379.3218745312188,380.23135821148753,"[59, 0, 195]",195,l,0.38500756374560297,colour,0.4
111,20,1,1,5,23,223,380.74470819393173,381.623299818486,"[69, 0, 185]",185,l,0.35513438610360026,colour,0.4
111,20,1,1,5,24,224,382.13629770302214,383.1513083348982,"[64, 0, 190]",190,l,0.4917223530355841,colour,0.4
111,20,1,1,5,25,225,383.66769013972953,384.6712902809959,"[3, 0, 251]",251,a,0.4803177702706307,colour,0.4
111,20,1,1,5,26,226,385.18324250611477,386.1353367201518,"[15, 0, 239]",239,a,0.4287890000268817,colour,0.4
111,20,1,1,5,27,227,386.65306114405394,387.73537523834966,"[68, 0, 186]",186,l,0.559551992919296,colour,0.4
111,20,1,1,5,28,228,388.2460447086487,389.23130583018064,"[48, 0, 206]",206,a,0.4604750485159457,colour,0.4
111,20,1,1,5,29,229,389.7383641314227,390.7912713608239,"[85, 0, 169]",169,l,0.5361126745119691,colour,0.4
111,20,1,1,5,30,230,391.3099374691956,392.4152840394527,"[46, 0, 208]",208,a,0.5822540326043963,colour,0.4
111,20,1,1,5,31,231,392.9269085850101,394.01531783142127,"[2, 0, 252]",252,a,0.5650614970363677,colour,0.4
111,20,1,1,5,32,232,394.53633047104813,395.55142184114084,"[78, 0, 176]",176,l,0.49824876617640257,colour,0.4
111,20,1,1,5,33,233,396.06132922065444,397.1592541669961,"[91, 0, 163]",163,l,0.587311795912683,colour,0.4
111,20,1,1,5,34,234,397.6736580799334,398.6153023925144,"[90, 0, 164]",164,l,0.414052878273651,colour,0.4
111,20,1,1,5,35,235,399.1257485526148,400.2232784719672,"[5, 0, 249]",249,a,0.5868336677085608,colour,0.4
111,20,1,1,5,36,236,400.7310200952925,401.79928257106803,"[60, 0, 194]",194,l,0.5449036988429725,colour,0.4
111,20,1,1,5,37,237,402.2968874000944,403.383301819209,"[50, 0, 204]",204,a,0.5755590538028628,colour,0.4
111,20,1,1,5,38,238,403.8885437052231,405.10327730630524,"[96, 0, 158]",158,l,0.6914937652181834,colour,0.4
111,20,1,1,5,39,239,405.6124962437898,406.80725321546197,"[99, 0, 155]",155,l,0.6717077572830021,colour,0.4
111,20,1,1,5,40,240,407.32316358736716,408.9832434512209,"[9, 0, 245]",245,a,1.1369766925927252,colour,0.4
111,20,1,1,5,41,241,409.4950444395654,410.45530031318776,"[47, 0, 207]",207,a,0.44104980304837227,colour,0.4
111,20,1,1,5,42,242,410.9654341535643,411.95925274910405,"[29, 0, 225]",225,a,0.47049723379313946,colour,0.4
111,20,1,1,5,43,243,412.4686623078305,413.4312588048633,"[57, 0, 197]",197,l,0.4392845875117928,colour,0.4
111,20,1,1,5,44,244,413.93873064406216,414.8392791526858,"[63, 0, 191]",191,l,0.3772448699455708,colour,0.4
111,20,1,1,5,45,245,415.35121838073246,416.15929788397625,"[31, 0, 223]",223,a,0.29146572365425527,colour,0.4
111,20,1,1,5,46,246,416.6731315085199,417.5512268876191,"[13, 0, 241]",241,a,0.3548449093941599,colour,0.4
111,20,1,1,5,47,247,418.06367299496196,418.7672263078857,"[73, 0, 181]",181,l,0.18016736069694161,colour,0.4
111,20,1,1,5,48,248,419.28381173079833,419.8632107777521,"[66, 0, 188]",188,l,0.06572808022610843,colour,0.4
111,20,1,1,5,49,249,420.36983191082254,420.97534606209956,"[42, 0, 212]",212,a,0.08226446947082877,colour,0.4
111,20,1,1,5,50,250,421.49482349236496,422.2872889924329,"[94, 0, 160]",160,l,0.2774853913579136,colour,0.4
111,20,1,1,6,1,251,427.49553280789405,428.14324513683096,"[77, 0, 177]",177,l,0.12372103589586914,colour,0.28
111,20,1,1,6,2,252,428.6527118033264,429.3432650654577,"[52, 0, 202]",202,a,0.16587982908822596,colour,0.28
111,20,1,1,6,3,253,429.85716918855906,430.615233075805,"[99, 0, 155]",155,l,0.23469329485669732,colour,0.28
111,20,1,1,6,4,254,431.12277068709955,431.9192053617444,"[16, 0, 238]",238,a,0.2730916514992714,colour,0.28
111,20,1,1,6,5,255,432.4351783548482,433.27928408351727,"[65, 0, 189]",189,a,0.320565388770774,colour,0.28
111,20,1,1,6,6,256,433.79485141602345,434.66323338449,"[26, 0, 228]",228,a,0.34522011410444975,colour,0.28
111,20,1,1,6,7,257,435.1730690840632,436.1112893044483,"[57, 0, 197]",197,a,0.4148074865806848,colour,0.28
111,20,1,1,6,8,258,436.62619891483337,437.47125971876085,"[70, 0, 184]",184,l,0.3194831016007811,colour,0.28
111,20,1,1,6,9,259,437.98473888239823,438.60723761911504,"[27, 0, 227]",227,a,0.09928450081497431,colour,0.28
111,20,1,1,6,10,260,439.11662984872237,439.98319343291223,"[63, 0, 191]",191,l,0.3541237786412239,colour,0.28
111,20,1,1,6,11,261,440.4895369047299,441.3191727513913,"[35, 0, 219]",219,a,0.306462176842615,colour,0.28
111,20,1,1,6,12,262,441.83336832001805,442.63920684251934,"[91, 0, 163]",163,l,0.2825518192257732,colour,0.28
111,20,1,1,6,13,263,443.14276188844815,444.2711996177677,"[47, 0, 207]",207,a,0.6140373609960079,colour,0.28
111,20,1,1,6,14,264,444.7903099840041,445.75122673017904,"[98, 0, 156]",156,l,0.4331602908205241,colour,0.28
111,20,1,1,6,15,265,446.26350584696047,447.1592206901405,"[43, 0, 211]",211,a,0.3723190447781235,colour,0.28
111,20,1,1,6,16,266,447.669754677685,448.51118580182083,"[62, 0, 192]",192,l,0.3181274854578078,colour,0.28
111,20,1,1,6,17,267,449.02912644692697,449.91122447745875,"[4, 0, 250]",250,a,0.35883771488443017,colour,0.28
111,20,1,1,6,18,268,450.41972464695573,451.33516563382,"[64, 0, 190]",190,l,0.39207827136851847,colour,0.28
111,20,1,1,6,19,269,451.84163789311424,453.1991826132871,"[69, 0, 185]",185,l,0.8342190261464566,colour,0.28
111,20,1,1,6,20,270,453.7166537945159,454.28719840804115,"[14, 0, 240]",240,a,0.0471893809735775,colour,0.28
111,20,1,1,6,21,271,454.79479824681766,455.4871600475162,"[72, 0, 182]",182,l,0.1691558356396854,colour,0.28
111,20,1,1,6,22,272,455.9978507854976,456.9191817310639,"[97, 0, 157]",157,l,0.4103546696715057,colour,0.28
111,20,1,1,6,23,273,457.43860126589425,458.86317218095064,"[30, 0, 224]",224,a,0.9011266736779362,colour,0.28
111,20,1,1,6,24,274,459.37602040427737,460.3192015020177,"[9, 0, 245]",245,a,0.41972740390338004,colour,0.28
111,20,1,1,6,25,275,460.8300958580803,461.8472265601158,"[76, 0, 178]",178,l,0.4937967371661216,colour,0.28
111,20,1,1,6,26,276,462.36115037533455,463.03912736452185,"[93, 0, 161]",161,l,0.1601954575162381,colour,0.28
111,20,1,1,6,27,277,463.55869537917897,464.19934251438826,"[85, 0, 169]",169,l,0.12634601606987417,colour,0.28
111,20,1,1,6,28,278,464.7059002381284,465.27132013463415,"[78, 0, 176]",176,l,0.04197959345765412,colour,0.28
111,20,1,1,6,29,279,465.78704579290934,468.03126069530845,"[80, 0, 174]",174,l,1.719122811453417,colour,0.28
111,20,1,1,6,30,280,468.54406835278496,469.615146036027,"[36, 0, 218]",218,a,0.5477807400748134,colour,0.28
111,20,1,1,6,31,281,470.122274835594,471.28712751576677,"[74, 0, 180]",180,l,0.653944933321327,colour,0.28
111,20,1,1,6,32,282,471.79730192245916,472.71115925651975,"[59, 0, 195]",195,l,0.3904646863229573,colour,0.28
111,20,1,1,6,33,283,473.21923761768267,474.1751639479771,"[75, 0, 179]",179,l,0.4326538054738194,colour,0.28
111,20,1,1,6,34,284,474.68960173171945,475.8551444290206,"[86, 0, 168]",168,l,0.6458931567613035,colour,0.28
111,20,1,1,6,35,285,476.36372573068365,477.495164956199,"[25, 0, 229]",229,a,0.6103226104751229,colour,0.28
111,20,1,1,6,36,286,478.00212558405474,479.6071324625518,"[50, 0, 204]",204,a,1.0814818986691535,colour,0.28
111,20,1,1,6,37,287,480.11418328084983,481.09513691440225,"[95, 0, 159]",159,l,0.46993915480561554,colour,0.28
111,20,1,1,6,38,288,481.6018005826045,482.59911888907664,"[87, 0, 167]",167,l,0.4739847353193909,colour,0.28
111,20,1,1,6,39,289,483.1175219085999,484.1672181158792,"[66, 0, 188]",188,l,0.5263854793738574,colour,0.28
111,20,1,1,6,40,290,484.6799466102384,485.7111352318898,"[61, 0, 193]",193,l,0.5066813910380006,colour,0.28
111,20,1,1,6,41,291,486.21588953747414,487.2711362086702,"[90, 0, 164]",164,l,0.5409924197010696,colour,0.28
111,20,1,1,6,42,292,487.784991101129,488.48710805992596,"[53, 0, 201]",201,l,0.17159413290210068,colour,0.28
111,20,1,1,6,43,293,488.9952447100077,489.71113562583923,"[58, 0, 196]",196,a,0.19961032923310995,colour,0.28
111,20,1,1,6,44,294,490.22868636390194,490.93518170272,"[15, 0, 239]",239,a,0.18132723565213382,colour,0.28
111,20,1,1,6,45,295,491.4498975411989,492.48713720426895,"[84, 0, 170]",170,l,0.5137032617349178,colour,0.28
111,20,1,1,6,46,296,492.9986463531386,493.7911472993437,"[92, 0, 162]",162,l,0.26958051905967295,colour,0.28
111,20,1,1,6,47,297,494.31128442054614,495.3431654225569,"[71, 0, 183]",183,l,0.5087742859032005,colour,0.28
111,20,1,1,6,48,298,495.854331925977,496.72707061306573,"[8, 0, 246]",246,a,0.34926096885465086,colour,0.28
111,20,1,1,6,49,299,497.23422816349193,498.3111410608981,"[67, 0, 187]",187,l,0.5540011350531131,colour,0.28
111,20,1,1,6,50,300,498.8276351117529,501.3510888055898,"[54, 0, 200]",200,l,2.0002934150397778,colour,0.28
111,20,1,1,7,1,301,506.9848562483676,508.1510846307501,"[94, 0, 160]",160,l,0.6420641914010048,colour,0.14
111,20,1,1,7,2,302,508.65740525955334,509.4070826016832,"[68, 0, 186]",186,l,0.22608737787231803,colour,0.14
111,20,1,1,7,3,303,509.9181356774643,510.55110243265517,"[44, 0, 210]",210,a,0.1100892573595047,colour,0.14
111,20,1,1,7,4,304,511.0587869482115,511.9991949799005,"[99, 0, 155]",155,l,0.417438767850399,colour,0.14
111,20,1,1,7,5,305,512.517707882449,513.4551085103303,"[80, 0, 174]",174,l,0.4140296415425837,colour,0.14
111,20,1,1,7,6,306,513.9707695778925,514.79903484229,"[83, 0, 171]",171,l,0.3053940678946674,colour,0.14
111,20,1,1,7,7,307,515.3096515373327,516.3030530505348,"[47, 0, 207]",207,a,0.4703137017786503,colour,0.14
111,20,1,1,7,8,308,516.8095839929301,517.9430936640128,"[55, 0, 199]",199,a,0.6109196804463863,colour,0.14
111,20,1,1,7,9,309,518.4502657866105,519.1990790318232,"[98, 0, 156]",156,l,0.22314101993106306,colour,0.14
111,20,1,1,7,10,310,519.7181216564495,520.4310733038001,"[76, 0, 178]",178,l,0.19065979751758277,colour,0.14
111,20,1,1,7,11,311,520.9514160123654,521.5351190024521,"[84, 0, 170]",170,l,0.0604017146397382,colour,0.14
111,20,1,1,7,12,312,522.0451618647203,523.9270881784614,"[93, 0, 161]",161,l,1.3590177020523697,colour,0.14
111,20,1,1,7,13,313,524.4371404929552,525.4071011124179,"[73, 0, 181]",181,l,0.4442978464066982,colour,0.14
111,20,1,1,7,14,314,525.924170965096,526.7750319309998,"[82, 0, 172]",172,l,0.3273485889658332,colour,0.14
111,20,1,1,7,15,315,527.2814734703861,528.3110670179594,"[52, 0, 202]",202,a,0.5062836073338985,colour,0.14
111,20,1,1,7,16,316,528.8283314304426,529.8390259100124,"[89, 0, 165]",165,l,0.4860281355213374,colour,0.14
111,20,1,1,7,17,317,530.348851369461,531.3270858942997,"[81, 0, 173]",173,l,0.45935534592717886,colour,0.14
111,20,1,1,7,18,318,531.845284902025,532.5830787450541,"[87, 0, 167]",167,l,0.2146264750044793,colour,0.14
111,20,1,1,7,19,319,533.0980706692208,534.9350233767182,"[67, 0, 187]",187,l,1.314376501366496,colour,0.14
111,20,1,1,7,20,320,535.4448472608346,536.0790258783381,"[70, 0, 184]",184,l,0.11169535876251757,colour,0.14
111,20,1,1,7,21,321,536.5999987397809,537.2950422340073,"[61, 0, 193]",193,a,0.17220498714596033,colour,0.14
111,20,1,1,7,22,322,537.803109961329,538.3356606974266,"[71, 0, 183]",183,l,0.009185263654217124,colour,0.14
111,20,1,1,7,23,323,538.8523792400956,540.8150549000129,"[74, 0, 180]",180,l,1.4394744210876524,colour,0.14
111,20,1,1,7,24,324,541.3212014492601,542.2070567654446,"[51, 0, 203]",203,a,0.36286242166534066,colour,0.14
111,20,1,1,7,25,325,542.7278445193078,543.5910474201664,"[69, 0, 185]",185,l,0.33993116370402277,colour,0.14
111,20,1,1,7,26,326,544.1028700701427,545.2310644027311,"[62, 0, 192]",192,a,0.6019270068500191,colour,0.14
111,20,1,1,7,27,327,545.7462461604737,547.0070451076608,"[97, 0, 157]",157,l,0.7374169332906604,colour,0.14
111,20,1,1,7,28,328,547.5274630405474,548.4390242558438,"[1, 0, 253]",253,a,0.3887447633314878,colour,0.14
111,20,1,1,7,29,329,548.9508295764681,549.8950330968946,"[79, 0, 175]",175,l,0.42077148822136223,colour,0.14
111,20,1,1,7,30,330,550.403556109406,551.3670285188127,"[95, 0, 159]",159,l,0.44004234625026584,colour,0.14
111,20,1,1,7,31,331,551.8910162670072,552.8870309449267,"[78, 0, 176]",176,l,0.4727445160970092,colour,0.14
111,20,1,1,7,32,332,553.4075193761382,554.3190183639526,"[50, 0, 204]",204,a,0.3908195411786437,colour,0.14
111,20,1,1,7,33,333,554.8298158340622,555.8230290890206,"[88, 0, 166]",166,l,0.46990882861427963,colour,0.14
111,20,1,1,7,34,334,556.3303595376201,557.8710097055882,"[64, 0, 190]",190,a,1.028229660820216,colour,0.14
111,20,1,1,7,35,335,558.3914331523702,559.3670107957441,"[53, 0, 201]",201,a,0.45309792924672365,colour,0.14
111,20,1,1,7,36,336,559.8719167315867,560.9350265276153,"[54, 0, 200]",200,a,0.5399802369065583,colour,0.14
111,20,1,1,7,37,337,561.4500062423758,562.5270404443145,"[56, 0, 198]",198,a,0.554343780502677,colour,0.14
111,20,1,1,7,38,338,563.0457183681428,564.2469863931183,"[34, 0, 220]",220,a,0.6764232688583434,colour,0.14
111,20,1,1,7,39,339,564.7666796504054,565.8149914909154,"[24, 0, 230]",230,a,0.5280920115765184,colour,0.14
111,20,1,1,7,40,340,566.3261579943355,567.3351774490438,"[72, 0, 182]",182,l,0.4967119812499732,colour,0.14
111,20,1,1,7,41,341,567.8462951155379,568.7270229577553,"[30, 0, 224]",224,a,0.35745137883350253,colour,0.14
111,20,1,1,7,42,342,569.2336224289611,570.6469494504854,"[57, 0, 197]",197,a,0.8900300781242549,colour,0.14
111,20,1,1,7,43,343,571.1555894350167,572.2230161710177,"[75, 0, 179]",179,l,0.5440754420123994,colour,0.14
111,20,1,1,7,44,344,572.7335982075892,573.9989586726297,"[85, 0, 169]",169,l,0.7403565954882652,colour,0.14
111,20,1,1,7,45,345,574.5165704567917,575.7670597112738,"[90, 0, 164]",164,l,0.7269910559989512,colour,0.14
111,20,1,1,7,46,346,577.0891851219349,578.3430031582247,"[77, 0, 177]",177,l,0.7249804751481861,colour,0.14
111,20,1,1,7,47,347,578.8612513968255,580.0310224189889,"[58, 0, 196]",196,a,0.6467730076983571,colour,0.14
111,20,1,1,7,48,348,580.5487818950787,581.9750325612258,"[48, 0, 206]",206,a,0.9145757083315402,colour,0.14
111,20,1,1,7,49,349,582.4924580564257,583.863002039725,"[60, 0, 194]",194,a,0.8497424446977675,colour,0.14
111,20,1,1,7,50,350,584.374563963851,586.0069903631229,"[66, 0, 188]",188,l,1.1079821840394288,colour,0.14
111,20,1,1,8,1,351,591.1195364282466,592.1909547876567,"[60, 0, 194]",194,a,0.5472143900115043,colour,0.06
111,20,1,1,8,2,352,592.6983616424259,593.4789641234092,"[94, 0, 160]",160,l,0.25099101359955966,colour,0.06
111,20,1,1,8,3,353,593.9747931032907,594.7910027580801,"[76, 0, 178]",178,l,0.292785499477759,colour,0.06
111,20,1,1,8,4,354,595.2995159246493,596.2309549138881,"[66, 0, 188]",188,l,0.42112004151567817,colour,0.06
111,20,1,1,8,5,355,596.7466699383222,597.558974615531,"[57, 0, 197]",197,a,0.28904239227995276,colour,0.06
111,20,1,1,8,6,356,598.0747648645192,598.9749533983413,"[63, 0, 191]",191,a,0.38940130383707583,colour,0.06
111,20,1,1,8,7,357,599.4845913874451,600.3909573871642,"[93, 0, 161]",161,l,0.3957016495987773,colour,0.06
111,20,1,1,8,8,358,600.8974174372852,601.8069527114276,"[61, 0, 193]",193,a,0.38622178928926587,colour,0.06
111,20,1,1,8,9,359,602.3139318497851,603.3989063699264,"[78, 0, 176]",176,l,0.5619906838983297,colour,0.06
111,20,1,1,8,10,360,603.90775233577,604.9909482498188,"[71, 0, 183]",183,l,0.5597780600655824,colour,0.06
111,20,1,1,8,11,361,605.5080346441828,606.758919713553,"[74, 0, 180]",180,l,0.7276976150460541,colour,0.06
111,20,1,1,8,12,362,607.2734890414868,608.2469174701255,"[69, 0, 185]",185,l,0.45109522505663335,colour,0.06
111,20,1,1,8,13,363,608.7455419648904,609.774906688137,"[99, 0, 155]",155,l,0.5062328011263162,colour,0.06
111,20,1,1,8,14,364,610.2922687744722,611.2629532816354,"[75, 0, 179]",179,l,0.44769791420549154,colour,0.06
111,20,1,1,8,15,365,611.7768219585996,612.6391099565662,"[53, 0, 201]",201,a,0.33857436617836356,colour,0.06
111,20,1,1,8,16,366,613.1521625856403,614.0148968105204,"[68, 0, 186]",186,l,0.33728491608053446,colour,0.06
111,20,1,1,8,17,367,614.529504341539,615.1989719059784,"[55, 0, 199]",199,a,0.14822176820598543,colour,0.06
111,20,1,1,8,18,368,615.7180157122202,616.7429118650034,"[70, 0, 184]",184,l,0.5022128208074719,colour,0.06
111,20,1,1,8,19,369,617.2491419091821,618.10288976226,"[84, 0, 170]",170,l,0.33026383304968476,colour,0.06
111,20,1,1,8,20,370,618.6088366317563,619.4389285512734,"[9, 0, 245]",245,a,0.30669257626868784,colour,0.06
111,20,1,1,8,21,371,619.9525242934469,620.7989273224957,"[54, 0, 200]",200,a,0.3258846653625369,colour,0.06
111,20,1,1,8,22,372,621.3133111493662,622.1749512716196,"[73, 0, 181]",181,l,0.33901941147632897,colour,0.06
111,20,1,1,8,23,373,622.6882216972299,623.6149203625973,"[51, 0, 203]",203,a,0.4039180534891784,colour,0.06
111,20,1,1,8,24,374,624.1256804172881,625.06293138396,"[85, 0, 169]",169,l,0.42497618217021227,colour,0.06
111,20,1,1,8,25,375,625.5834678644314,626.6389449352864,"[91, 0, 163]",163,l,0.5359972775913775,colour,0.06
111,20,1,1,8,26,376,627.158407399198,627.9428837443702,"[50, 0, 204]",204,a,0.2617043978534639,colour,0.06
111,20,1,1,8,27,377,628.4551419871859,628.974901410751,"[80, 0, 174]",174,l,0.007808380061760545,colour,0.06
111,20,1,1,8,28,378,629.4906054073945,631.9270625784993,"[77, 0, 177]",177,l,1.9136663191020489,colour,0.06
111,20,1,1,8,29,379,632.4369317549281,633.3189155701548,"[58, 0, 196]",196,a,0.3586175551172346,colour,0.06
111,20,1,1,8,30,380,633.8304963989649,634.7988950272556,"[92, 0, 162]",162,l,0.4457342007663101,colour,0.06
111,20,1,1,8,31,381,635.3046721492428,636.1429087929428,"[11, 0, 243]",243,a,0.3266877164132893,colour,0.06
111,20,1,1,8,32,382,636.6565466765314,637.8148583711591,"[82, 0, 172]",172,l,0.6349812746047974,colour,0.06
111,20,1,1,8,33,383,638.3284218180925,643.0308747268282,"[64, 0, 190]",190,l,4.179478131001815,colour,0.06
111,20,1,1,8,34,384,643.549386447994,644.5109105037991,"[59, 0, 195]",195,a,0.4469251895789057,colour,0.06
111,20,1,1,8,35,385,645.0257570990361,645.5748816395644,"[26, 0, 228]",228,l,0.02591345552355051,colour,0.06
111,20,1,1,8,36,386,646.0880358810537,647.7588318858761,"[67, 0, 187]",187,l,1.1473202558699995,colour,0.06
111,20,1,1,8,37,387,648.2769615768921,649.8948523218278,"[79, 0, 175]",175,l,1.0947391306981444,colour,0.06
111,20,1,1,8,38,388,650.3894174513407,651.3831423118245,"[90, 0, 164]",164,l,0.4710049007553607,colour,0.06
111,20,1,1,8,39,389,651.889505869709,652.8468764314894,"[56, 0, 198]",198,a,0.43404132314026356,colour,0.06
111,20,1,1,8,40,390,653.3458857131191,654.5668495553546,"[89, 0, 165]",165,l,0.6998287164606154,colour,0.06
111,20,1,1,8,41,391,655.0776493884623,655.9188268762082,"[97, 0, 157]",157,l,0.3180006672628224,colour,0.06
111,20,1,1,8,42,392,656.4244015617296,657.2628603342455,"[98, 0, 156]",156,l,0.3191101299598813,colour,0.06
111,20,1,1,8,43,393,657.7725940276869,658.9348776538391,"[83, 0, 171]",171,l,0.6388354462105781,colour,0.06
111,20,1,1,8,44,394,659.4539009802975,660.3748325665947,"[87, 0, 167]",167,l,0.39780517807230353,colour,0.06
111,20,1,1,8,45,395,660.891301411204,661.6789167043753,"[95, 0, 159]",159,l,0.26512337010353804,colour,0.06
111,20,1,1,8,46,396,662.1881695126649,662.9668390003499,"[65, 0, 189]",189,a,0.2554584026802331,colour,0.06
111,20,1,1,8,47,397,663.4850710912142,664.4708871408366,"[72, 0, 182]",182,a,0.4630535547621548,colour,0.06
111,20,1,1,8,48,398,664.9854678905103,665.9588537837844,"[96, 0, 158]",158,l,0.45115075749345124,colour,0.06
111,20,1,1,8,49,399,666.4697272661142,667.358822354814,"[81, 0, 173]",173,l,0.36610692040994763,colour,0.06
111,20,1,1,8,50,400,667.8761257580481,668.8868422929663,"[88, 0, 166]",166,l,0.48820216255262494,colour,0.06
111,20,1,1,9,1,401,674.0034721416887,674.766968339216,"[72, 0, 182]",182,l,0.24359932215884328,colour,0.06
111,20,1,1,9,2,402,675.2841480749194,676.1668352982961,"[71, 0, 183]",183,l,0.35935207712464035,colour,0.06
111,20,1,1,9,3,403,676.6746635674499,677.4948297939263,"[96, 0, 158]",158,l,0.29682635399512947,colour,0.06
111,20,1,1,9,4,404,678.0016474556178,678.9187941870186,"[95, 0, 159]",159,l,0.39366625621914864,colour,0.06
111,20,1,1,9,5,405,679.4392967969179,680.3028356479481,"[93, 0, 161]",161,l,0.33946051844395697,colour,0.06
111,20,1,1,9,6,406,680.8159083633218,681.5428218317684,"[64, 0, 190]",190,a,0.2042017795611173,colour,0.06
111,20,1,1,9,7,407,682.0511880938429,682.8468291698955,"[83, 0, 171]",171,l,0.2733125986997038,colour,0.06
111,20,1,1,9,8,408,683.3632775347214,684.4468353926204,"[97, 0, 157]",157,l,0.5609552641399205,colour,0.06
111,20,1,1,9,9,409,684.9570952637587,686.2548243114725,"[76, 0, 178]",178,l,0.7754049026407301,colour,0.06
111,20,1,1,9,10,410,686.7695712638088,687.7668013486546,"[82, 0, 172]",172,l,0.4734849454835057,colour,0.06
111,20,1,1,9,11,411,688.2866974365897,689.086852375418,"[23, 0, 231]",231,a,0.27711911499500275,colour,0.06
111,20,1,1,9,12,412,689.5991184951272,690.5987734864466,"[94, 0, 160]",160,l,0.476669579744339,colour,0.06
111,20,1,1,9,13,413,691.1148366704583,692.0947978135664,"[78, 0, 176]",176,l,0.4572151897009462,colour,0.06
111,20,1,1,9,14,414,692.614716744516,693.5668026877102,"[90, 0, 164]",164,l,0.42957275244407356,colour,0.06
111,20,1,1,9,15,415,694.0858445249032,695.0629038147163,"[51, 0, 203]",203,a,0.45394351542927325,colour,0.06
111,20,1,1,9,16,416,695.5701117774006,696.5908375005238,"[80, 0, 174]",174,l,0.4975729272700846,colour,0.06
111,20,1,1,9,17,417,697.101391574135,698.3587743057869,"[67, 0, 187]",187,l,0.7339621207211167,colour,0.06
111,20,1,1,9,18,418,698.8715157969855,700.2627870789729,"[84, 0, 170]",170,l,0.867881391197443,colour,0.06
111,20,1,1,9,19,419,700.7778250831179,701.9428341197781,"[66, 0, 188]",188,l,0.6417010657023638,colour,0.06
111,20,1,1,9,20,420,702.4495529264677,703.7748007436749,"[59, 0, 195]",195,a,0.8022320796735585,colour,0.06
111,20,1,1,9,21,421,704.2849200121127,705.2231146323029,"[91, 0, 163]",163,l,0.41505679045803845,colour,0.06
111,20,1,1,9,22,422,705.7316104695201,706.8548061158508,"[86, 0, 168]",168,l,0.5999656566418707,colour,0.06
111,20,1,1,9,23,423,707.3724060845561,708.3667874853127,"[41, 0, 213]",213,a,0.4714231644757092,colour,0.06
111,20,1,1,9,24,424,708.8724192783702,709.7827536650002,"[87, 0, 167]",167,l,0.38750651315785944,colour,0.06
111,20,1,1,9,25,425,710.2956979868468,711.446759380633,"[81, 0, 173]",173,l,0.6279700379818678,colour,0.06
111,20,1,1,9,26,426,711.967628660379,713.1667065108195,"[89, 0, 165]",165,l,0.6757096210494637,colour,0.06
111,20,1,1,9,27,427,713.6865836940706,714.878945691511,"[61, 0, 193]",193,a,0.6666744123212993,colour,0.06
111,20,1,1,9,28,428,715.3919404253829,716.3107208278961,"[54, 0, 200]",200,a,0.39579696021974087,colour,0.06
111,20,1,1,9,29,429,716.8277902868576,717.902746560052,"[52, 0, 202]",202,a,0.5520783814135939,colour,0.06
111,20,1,1,9,30,430,718.4213445333298,719.4227131463122,"[77, 0, 177]",177,l,0.47614300856366754,colour,0.06
111,20,1,1,9,31,431,719.9394364149775,720.878729470307,"[53, 0, 201]",201,a,0.41696221474558115,colour,0.06
111,20,1,1,9,32,432,721.3925906643271,722.8228014463093,"[65, 0, 189]",189,l,0.9088058723136783,colour,0.06
111,20,1,1,9,33,433,723.3286955405492,724.4627341460437,"[73, 0, 181]",181,l,0.6110323201864958,colour,0.06
111,20,1,1,9,34,434,724.969305654522,726.0787466419861,"[92, 0, 162]",162,l,0.5837215008214116,colour,0.06
111,20,1,1,9,35,435,726.5964887889568,727.7427984373644,"[99, 0, 155]",155,l,0.6228287792764604,colour,0.06
111,20,1,1,9,36,436,728.2515991111286,729.1667529845145,"[74, 0, 180]",180,l,0.3853643878828734,colour,0.06
111,20,1,1,9,37,437,729.6805291078053,730.614739193581,"[62, 0, 192]",192,a,0.4119635282550007,colour,0.06
111,20,1,1,9,38,438,731.1337191970088,732.1907279328443,"[88, 0, 166]",166,l,0.5318055807147175,colour,0.06
111,20,1,1,9,39,439,732.6983864544891,733.6388657724019,"[32, 0, 222]",222,a,0.4177243057638407,colour,0.06
111,20,1,1,9,40,440,734.151488322299,735.0547673613764,"[85, 0, 169]",169,l,0.38033931353129447,colour,0.06
111,20,1,1,9,41,441,735.5734413468745,736.4867512357887,"[79, 0, 175]",175,l,0.3904883172363043,colour,0.06
111,20,1,1,9,42,442,736.9954865311738,738.1907019389328,"[58, 0, 196]",196,a,0.6723414545413107,colour,0.06
111,20,1,1,9,43,443,738.6984608913772,739.7586837999988,"[68, 0, 186]",186,l,0.5375521795358509,colour,0.06
111,20,1,1,9,44,444,740.277980061248,741.3266944116913,"[55, 0, 199]",199,a,0.5257348464801908,colour,0.06
111,20,1,1,9,45,445,741.8403275692835,742.782718218863,"[98, 0, 156]",156,l,0.4193497058004141,colour,0.06
111,20,1,1,9,46,446,743.2934483415447,744.4307330213487,"[50, 0, 204]",204,a,0.6137163769453764,colour,0.06
111,20,1,1,9,47,447,744.9506421058904,746.054673232371,"[60, 0, 194]",194,a,0.5807652969378978,colour,0.06
111,20,1,1,9,48,448,746.5756090721115,747.606689780252,"[57, 0, 197]",197,a,0.5075695128180087,colour,0.06
111,20,1,1,9,49,449,748.1225662813522,749.1186802082229,"[69, 0, 185]",185,l,0.47263227007351816,colour,0.06
111,20,1,1,9,50,450,749.624845267972,750.8386383659672,"[56, 0, 198]",198,a,0.6905319946818054,colour,0.06
111,20,1,1,10,1,451,762.9693387374282,763.7108587524854,"[61, 0, 193]",193,l,0.21843811124563217,colour,0.06
111,20,1,1,10,2,452,764.2201706375927,766.1186971436255,"[85, 0, 169]",169,l,1.375918398378417,colour,0.06
111,20,1,1,10,3,453,766.6152295311913,767.2866312705446,"[76, 0, 178]",178,l,0.15148910996504128,colour,0.06
111,20,1,1,10,4,454,767.7884411872365,769.0706200348213,"[62, 0, 192]",192,l,0.7646635554265231,colour,0.06
111,20,1,1,10,5,455,769.5799492490478,770.8226986527443,"[91, 0, 163]",163,l,0.7300583245232701,colour,0.06
111,20,1,1,10,6,456,771.3354988270439,774.1106760869734,"[56, 0, 198]",198,a,2.252359232865274,colour,0.06
111,20,1,1,10,7,457,774.6166780947242,776.7346698611509,"[92, 0, 162]",162,l,1.5940154397394508,colour,0.06
111,20,1,1,10,8,458,777.2433610456064,778.150747498963,"[89, 0, 165]",165,l,0.3842037252616137,colour,0.06
111,20,1,1,10,9,459,778.6658674229402,779.5026377800386,"[83, 0, 171]",171,l,0.3144099782221019,colour,0.06
111,20,1,1,10,10,460,780.0096681183204,780.9186141996179,"[94, 0, 160]",160,l,0.3855305905453861,colour,0.06
111,20,1,1,10,11,461,781.431525044376,782.2546301456168,"[59, 0, 195]",195,a,0.2987747073639184,colour,0.06
111,20,1,1,10,12,462,782.7609937037341,783.6146549107507,"[84, 0, 170]",170,l,0.33004288584925234,colour,0.06
111,20,1,1,10,13,463,784.122466244502,785.0146096972749,"[53, 0, 201]",201,a,0.36930494545958936,colour,0.06
111,20,1,1,10,14,464,785.5288229889702,786.3665893811267,"[63, 0, 191]",191,a,0.3153382719028741,colour,0.06
111,20,1,1,10,15,465,786.8724685092457,787.8868777391035,"[70, 0, 184]",184,l,0.49214061722159386,colour,0.06
111,20,1,1,10,16,466,788.4050999835599,789.2066160524264,"[69, 0, 185]",185,l,0.27825378393754363,colour,0.06
111,20,1,1,10,17,467,789.7177471094765,790.5906134024262,"[13, 0, 241]",241,a,0.34990096744149923,colour,0.06
111,20,1,1,10,18,468,791.1082503928337,791.9265852379613,"[97, 0, 157]",157,l,0.29539511958137155,colour,0.06
111,20,1,1,10,19,469,792.4252187910024,793.3105731357355,"[93, 0, 161]",161,l,0.36237444705329835,colour,0.06
111,20,1,1,10,20,470,793.8283353690058,794.7185848187655,"[78, 0, 176]",176,l,0.3675054656341672,colour,0.06
111,20,1,1,10,21,471,795.2346109810751,795.9986262670718,"[73, 0, 181]",181,l,0.241262243129313,colour,0.06
111,20,1,1,10,22,472,796.5159804762807,797.1186857218854,"[72, 0, 182]",182,l,0.07937640068121254,colour,0.06
111,20,1,1,10,23,473,797.6252714088187,798.5346432370134,"[60, 0, 194]",194,a,0.38558454741723835,colour,0.06
111,20,1,1,10,24,474,799.048441021936,799.9346070820466,"[50, 0, 204]",204,a,0.36300617503002286,colour,0.06
111,20,1,1,10,25,475,800.4545882404782,801.5507007101551,"[82, 0, 172]",172,l,0.5731483257841319,colour,0.06
111,20,1,1,10,26,476,802.063919936074,802.9665613393299,"[77, 0, 177]",177,l,0.3767218431457877,colour,0.06
111,20,1,1,10,27,477,803.4729524664581,804.5346408740152,"[67, 0, 187]",187,l,0.5393918317276984,colour,0.06
111,20,1,1,10,28,478,805.051119171083,805.9745906665921,"[74, 0, 180]",180,l,0.4002946752589196,colour,0.06
111,20,1,1,10,29,479,806.4926699453499,807.390753769083,"[87, 0, 167]",167,l,0.3747860926669091,colour,0.06
111,20,1,1,10,30,480,807.8991338156629,808.8466023150831,"[81, 0, 173]",173,l,0.4241786452475935,colour,0.06
111,20,1,1,10,31,481,809.3677949421108,810.7185190466698,"[64, 0, 190]",190,a,0.8282443906646222,colour,0.06
111,20,1,1,10,32,482,811.2270582069177,812.2785909154918,"[96, 0, 158]",158,l,0.5281451807823032,colour,0.06
111,20,1,1,10,33,483,812.7896562004462,814.0625363569707,"[80, 0, 174]",174,l,0.7482275969814509,colour,0.06
111,20,1,1,10,34,484,814.5751722976565,815.5665884357877,"[44, 0, 210]",210,a,0.4765876599121839,colour,0.06
111,20,1,1,10,35,485,816.0745569141582,817.3186284569092,"[65, 0, 189]",189,a,0.7214524075388908,colour,0.06
111,20,1,1,10,36,486,817.8266197780613,818.7826378745958,"[75, 0, 179]",179,l,0.4326675902120769,colour,0.06
111,20,1,1,10,37,487,819.2966881142929,820.3985448197927,"[33, 0, 221]",221,a,0.5908528603613377,colour,0.06
111,20,1,1,10,38,488,820.904460181715,822.0225685262121,"[79, 0, 175]",175,l,0.5951934312470257,colour,0.06
111,20,1,1,10,39,489,822.5310450650286,824.1025884705596,"[57, 0, 197]",197,a,1.0489707440137863,colour,0.06
111,20,1,1,10,40,490,824.6107495392207,825.5745492340066,"[95, 0, 159]",159,l,0.4544980498030782,colour,0.06
111,20,1,1,10,41,491,826.0887633136008,826.8465125181247,"[98, 0, 156]",156,l,0.23442272283136845,colour,0.06
111,20,1,1,10,42,492,827.3614957777318,828.2305075053591,"[71, 0, 183]",183,a,0.3468443329911679,colour,0.06
111,20,1,1,10,43,493,828.7511912840419,829.9104978325777,"[54, 0, 200]",200,a,0.6363097154535353,colour,0.06
111,20,1,1,10,44,494,830.4337601175066,831.502505841665,"[90, 0, 164]",164,l,0.5453771010506898,colour,0.06
111,20,1,1,10,45,495,832.0117527423427,832.9905670075677,"[55, 0, 199]",199,l,0.45521721174009144,colour,0.06
111,20,1,1,10,46,496,833.5023049805313,834.6945413413923,"[66, 0, 188]",188,l,0.674208675744012,colour,0.06
111,20,1,1,10,47,497,835.2004586723633,836.0705400842708,"[51, 0, 203]",203,a,0.3474717289209366,colour,0.06
111,20,1,1,10,48,498,836.5910237894859,837.6385365175083,"[99, 0, 155]",155,l,0.5247266022488475,colour,0.06
111,20,1,1,10,49,499,838.1534402205143,838.8784785908647,"[68, 0, 186]",186,l,0.2015389904845506,colour,0.06
111,20,1,1,10,50,500,839.3892626701854,840.2545178998262,"[58, 0, 196]",196,a,0.3422016827389598,colour,0.06
111,20,1,1,11,1,501,845.6197981385048,846.7425337731838,"[69, 0, 185]",185,l,0.6056634187698364,colour,0.06
111,20,1,1,11,2,502,847.2549944526982,848.6145292739384,"[95, 0, 159]",159,l,0.8366313294973224,colour,0.06
111,20,1,1,11,3,503,849.1224146508612,850.1825083780568,"[67, 0, 187]",187,l,0.5366041935048997,colour,0.06
111,20,1,1,11,4,504,850.699502612697,851.5184849395882,"[57, 0, 197]",197,a,0.2962540965527296,colour,0.06
111,20,1,1,11,5,505,852.0297518735752,852.998517565662,"[50, 0, 204]",204,a,0.4461634922772646,colour,0.06
111,20,1,1,11,6,506,853.5159060396254,854.6944676924031,"[24, 0, 230]",230,a,0.6551296205725521,colour,0.06
111,20,1,1,11,7,507,855.2033601319417,856.0385527440812,"[86, 0, 168]",168,l,0.31243956950493157,colour,0.06
111,20,1,1,11,8,508,856.5471509811468,857.710487750126,"[60, 0, 194]",194,a,0.6400981147307903,colour,0.06
111,20,1,1,11,9,509,858.2197236230131,859.3506157970987,"[54, 0, 200]",200,a,0.607928030192852,colour,0.06
111,20,1,1,11,10,510,859.8602553615347,860.9744571531191,"[61, 0, 193]",193,a,0.5913046014029533,colour,0.06
111,20,1,1,11,11,511,861.4852636815049,862.0944902203046,"[89, 0, 165]",165,l,0.09214093210175633,colour,0.06
111,20,1,1,11,12,512,862.6046697469428,863.7345406797249,"[58, 0, 196]",196,a,0.5985320592299104,colour,0.06
111,20,1,1,11,13,513,864.2520232826937,864.822726221988,"[75, 0, 179]",179,l,0.04756747279316187,colour,0.06
111,20,1,1,11,14,514,865.3322267588228,866.2465181108564,"[68, 0, 186]",186,l,0.3979741376824677,colour,0.06
111,20,1,1,11,15,515,866.7549595974851,867.5184731241316,"[53, 0, 201]",201,a,0.24016262660734355,colour,0.06
111,20,1,1,11,16,516,868.0369903591927,868.8864988596179,"[77, 0, 177]",177,l,0.3276234930381179,colour,0.06
111,20,1,1,11,17,517,869.3955673482269,870.2864630986005,"[78, 0, 176]",176,l,0.36795169254764915,colour,0.06
111,20,1,1,11,18,518,870.8020107385237,871.6944491816685,"[90, 0, 164]",164,l,0.3692029395606369,colour,0.06
111,20,1,1,11,19,519,872.2080122344196,873.2304456715938,"[62, 0, 192]",192,a,0.49965597596019506,colour,0.06
111,20,1,1,11,20,520,873.7540502082556,874.7424963579979,"[74, 0, 180]",180,l,0.47786214388906956,colour,0.06
111,20,1,1,11,21,521,875.2571885657962,877.1184624116868,"[76, 0, 178]",178,l,1.3474303751718253,colour,0.06
111,20,1,1,11,22,522,877.6384636561852,878.8147339161951,"[71, 0, 183]",183,l,0.6534675927832723,colour,0.06
111,20,1,1,11,23,523,879.3159770893399,880.3986161057837,"[51, 0, 203]",203,a,0.5595110328868032,colour,0.06
111,20,1,1,11,24,524,880.9047618673649,881.902461416088,"[73, 0, 181]",181,l,0.47328723524697125,colour,0.06
111,20,1,1,11,25,525,882.4218848892488,883.5184739120305,"[59, 0, 195]",195,a,0.5732274889014661,colour,0.06
111,20,1,1,11,26,526,884.0197867958341,885.02254292625,"[63, 0, 191]",191,a,0.47938947658985853,colour,0.06
111,20,1,1,11,27,527,885.5197964450344,886.3986610041466,"[99, 0, 155]",155,l,0.35622179321944714,colour,0.06
111,20,1,1,11,28,528,886.9104411187582,887.8944505993277,"[87, 0, 167]",167,l,0.46105715190060437,colour,0.06
111,20,1,1,11,29,529,888.3979260886554,889.3824562330265,"[91, 0, 163]",163,l,0.4616451633628458,colour,0.06
111,20,1,1,11,30,530,889.8980290791951,890.8944399654865,"[83, 0, 171]",171,l,0.4707331471145153,colour,0.06
111,20,1,1,11,31,531,891.3887463386636,892.2864351354074,"[32, 0, 222]",222,a,0.3744808624032885,colour,0.06
111,20,1,1,11,32,532,892.7949589358177,893.6783818623517,"[93, 0, 161]",161,l,0.3601362232584506,colour,0.06
111,20,1,1,11,33,533,894.1855307482183,895.1584243346006,"[56, 0, 198]",198,a,0.44938199734315276,colour,0.06
111,20,1,1,11,34,534,895.6645468592178,896.5667286447715,"[88, 0, 166]",166,l,0.38602959271520376,colour,0.06
111,20,1,1,11,35,535,897.0793531639501,898.7265735799447,"[64, 0, 190]",190,a,1.1241932567209005,colour,0.06
111,20,1,1,11,36,536,899.236380134942,900.1744692046195,"[82, 0, 172]",172,l,0.42793278000317514,colour,0.06
111,20,1,1,11,37,537,900.682286840165,901.646406337386,"[41, 0, 213]",213,a,0.440652412828058,colour,0.06
111,20,1,1,11,38,538,902.158504285384,903.1664166403934,"[80, 0, 174]",174,l,0.48516206932254136,colour,0.06
111,20,1,1,11,39,539,903.6741121837404,904.7824437087402,"[84, 0, 170]",170,l,0.5852681319229305,colour,0.06
111,20,1,1,11,40,540,905.2896863296628,906.3823884916492,"[79, 0, 175]",175,l,0.5690472130663693,colour,0.06
111,20,1,1,11,41,541,906.8992094341666,907.8944045195822,"[92, 0, 162]",162,l,0.4723274337593466,colour,0.06
111,20,1,1,11,42,542,908.4168826581445,909.6863911035471,"[85, 0, 169]",169,l,0.7470736298710108,colour,0.06
111,20,1,1,11,43,543,910.1979423938319,911.3263801231515,"[55, 0, 199]",199,a,0.6049068418797106,colour,0.06
111,20,1,1,11,44,544,911.8391129497904,912.7184237360489,"[81, 0, 173]",173,l,0.3562414855696261,colour,0.06
111,20,1,1,11,45,545,913.2297934636008,913.9664762686007,"[70, 0, 184]",184,l,0.21348708006553352,colour,0.06
111,20,1,1,11,46,546,914.4797017960809,915.3983475032728,"[66, 0, 188]",188,l,0.39519319497048855,colour,0.06
111,20,1,1,11,47,547,915.9047374487855,917.0863978776615,"[65, 0, 189]",189,a,0.6581106367520988,colour,0.06
111,20,1,1,11,48,548,917.6078342951369,918.5983914565295,"[72, 0, 182]",182,l,0.46714915381744504,colour,0.06
111,20,1,1,11,49,549,919.1078490642831,920.0783831225708,"[96, 0, 158]",158,l,0.4598823110572994,colour,0.06
111,20,1,1,11,50,550,920.5902053785976,921.4784702411853,"[52, 0, 202]",202,a,0.37635832373052835,colour,0.06
111,20,1,1,12,1,551,926.1997521137819,927.0703640354332,"[52, 0, 202]",202,l,0.3463689615018666,colour,0.06
111,20,1,1,12,2,552,927.5735039683059,928.2863953569904,"[55, 0, 199]",199,l,0.18951922096312046,colour,0.06
111,20,1,1,12,3,553,928.7922520358115,929.3983636510093,"[63, 0, 191]",191,l,0.0806374941021204,colour,0.06
111,20,1,1,12,4,554,929.9041876406409,930.6623681061901,"[77, 0, 177]",177,l,0.23557432717643678,colour,0.06
111,20,1,1,12,5,555,931.1670519132167,931.7743773600087,"[12, 0, 242]",242,a,0.0838957775849849,colour,0.06
111,20,1,1,12,6,556,932.2936881934293,932.8623364409432,"[50, 0, 204]",204,a,0.045556497760117054,colour,0.06
111,20,1,1,12,7,557,933.3702970421873,934.038334159879,"[98, 0, 156]",156,l,0.14480122039094567,colour,0.06
111,20,1,1,12,8,558,934.5578753929585,935.1023561016191,"[86, 0, 168]",168,l,0.0217792596668005,colour,0.06
111,20,1,1,12,9,559,935.6203081684653,937.1903415704146,"[80, 0, 174]",174,l,1.0481783270370215,colour,0.06
111,20,1,1,12,10,560,937.6977228249889,939.1503910687752,"[64, 0, 190]",190,l,0.9410566950682551,colour,0.06
111,20,1,1,12,11,561,939.6710677584633,940.7183748991229,"[79, 0, 175]",175,l,0.5246883991640061,colour,0.06
111,20,1,1,12,12,562,941.2303838378284,942.0542892329395,"[89, 0, 165]",165,l,0.2996502257883549,colour,0.06
111,20,1,1,12,13,563,942.5631068421062,943.3503491636366,"[51, 0, 203]",203,a,0.26485240436159074,colour,0.06
111,20,1,1,12,14,564,943.8595204460435,944.8383445572108,"[74, 0, 180]",180,l,0.46868672617711127,colour,0.06
111,20,1,1,12,15,565,945.3565668019,946.3022870211862,"[56, 0, 198]",198,a,0.4227033001370728,colour,0.06
111,20,1,1,12,16,566,946.8105607295875,947.5743129267357,"[75, 0, 179]",179,l,0.2361079875845462,colour,0.06
111,20,1,1,12,17,567,948.0823751401622,949.070344343083,"[71, 0, 183]",183,l,0.46543080592527986,colour,0.06
111,20,1,1,12,18,568,949.582320592599,950.8783698894549,"[67, 0, 187]",187,l,0.773500659968704,colour,0.06
111,20,1,1,12,19,569,951.3886923820246,952.5023695712443,"[88, 0, 166]",166,l,0.5905054889153689,colour,0.06
111,20,1,1,12,20,570,953.0137546586338,953.9263233307283,"[76, 0, 178]",178,l,0.38913309504278004,colour,0.06
111,20,1,1,12,21,571,954.436371706659,955.4462981875986,"[59, 0, 195]",195,a,0.4906676351092756,colour,0.06
111,20,1,1,12,22,572,955.9529082926456,956.9343215441331,"[93, 0, 161]",161,l,0.45833764923736453,colour,0.06
111,20,1,1,12,23,573,957.4529466927052,959.0383384921588,"[65, 0, 189]",189,l,1.0618912379723042,colour,0.06
111,20,1,1,12,24,574,959.5465610006358,960.4383271492552,"[68, 0, 186]",186,l,0.3685684544034302,colour,0.06
111,20,1,1,12,25,575,960.9487725216895,961.8143558243755,"[21, 0, 233]",233,a,0.3424529561307281,colour,0.06
111,20,1,1,12,26,576,962.3200616603717,963.28631107416,"[83, 0, 171]",171,l,0.44339751568622887,colour,0.06
111,20,1,1,12,27,577,963.8046242971905,964.5422897466924,"[91, 0, 163]",163,l,0.21419836510904133,colour,0.06
111,20,1,1,12,28,578,965.0439283405431,967.0783669750672,"[72, 0, 182]",182,l,1.5116493578534573,colour,0.06
111,20,1,1,12,29,579,967.590682325419,968.6062742732465,"[84, 0, 170]",170,l,0.4922701921314001,colour,0.06
111,20,1,1,12,30,580,969.1219199809711,969.9663100659382,"[96, 0, 158]",158,l,0.32148186722770333,colour,0.06
111,20,1,1,12,31,581,970.4812756024767,971.4062744306866,"[87, 0, 167]",167,l,0.40113947354257107,colour,0.06
111,20,1,1,12,32,582,971.9128081300296,972.8222961425781,"[78, 0, 176]",176,l,0.38588268822059035,colour,0.06
111,20,1,1,12,33,583,973.3346355177928,974.3583060235251,"[66, 0, 188]",188,l,0.5090767594520003,colour,0.06
111,20,1,1,12,34,584,974.8730998435058,975.8782604003791,"[62, 0, 192]",192,l,0.4816210048738867,colour,0.06
111,20,1,1,12,35,585,976.3893670390826,977.142290455522,"[85, 0, 169]",169,l,0.22945554414764047,colour,0.06
111,20,1,1,12,36,586,977.6548448703252,978.566259181127,"[61, 0, 193]",193,a,0.3881354844197631,colour,0.06
111,20,1,1,12,37,587,979.0767722947057,979.8942851843312,"[82, 0, 172]",172,l,0.2948268004693091,colour,0.06
111,20,1,1,12,38,588,980.4074610872194,981.2862760219723,"[69, 0, 185]",185,l,0.35593113536015153,colour,0.06
111,20,1,1,12,39,589,981.7979017489124,982.702450939687,"[57, 0, 197]",197,a,0.3819911014288664,colour,0.06
111,20,1,1,12,40,590,983.2199709578417,984.0943200790789,"[94, 0, 160]",160,l,0.351161666912958,colour,0.06
111,20,1,1,12,41,591,984.6118491557427,985.518273050664,"[58, 0, 196]",196,a,0.38381066732108593,colour,0.06
111,20,1,1,12,42,592,986.0329353262205,986.774262750987,"[90, 0, 164]",164,l,0.2181604504585266,colour,0.06
111,20,1,1,12,43,593,987.2827093575615,988.1262727607973,"[95, 0, 159]",159,l,0.3201435802038759,colour,0.06
111,20,1,1,12,44,594,988.634244389832,989.6302708829753,"[73, 0, 181]",181,a,0.4727661774959415,colour,0.06
111,20,1,1,12,45,595,990.1497483130079,991.1262459794525,"[54, 0, 200]",200,a,0.4534894118551165,colour,0.06
111,20,1,1,12,46,596,991.6341951591894,992.4942610810976,"[19, 0, 235]",235,a,0.3373384792357683,colour,0.06
111,20,1,1,12,47,597,992.9968311195262,993.8863980353344,"[70, 0, 184]",184,l,0.36683514062315226,colour,0.06
111,20,1,1,12,48,598,994.4028550644871,995.4143136041239,"[99, 0, 155]",155,l,0.48867320152930915,colour,0.06
111,20,1,1,12,49,599,995.9341974828858,996.7422852567397,"[92, 0, 162]",162,l,0.285300072748214,colour,0.06
111,20,1,1,12,50,600,997.2622278183699,998.11825761199,"[53, 0, 201]",201,a,0.33294198219664395,colour,0.06
111,20,1,1,13,1,601,1012.6077878212091,1013.2942628138699,"[85, 0, 169]",169,l,0.1628031083382666,colour,0.06
111,20,1,1,13,2,602,1013.8116367154289,1014.4703550557606,"[74, 0, 180]",180,l,0.13593221455812454,colour,0.06
111,20,1,1,13,3,603,1014.9834226509556,1015.6542005389929,"[71, 0, 183]",183,l,0.14645773428492248,colour,0.06
111,20,1,1,13,4,604,1016.1724901313428,1017.7424278289545,"[84, 0, 170]",170,l,1.0467415787279606,colour,0.06
111,20,1,1,13,5,605,1018.2580688104499,1019.1342603405938,"[64, 0, 190]",190,l,0.35344203212298453,colour,0.06
111,20,1,1,13,6,606,1019.6416758596897,1020.5262303042691,"[80, 0, 174]",174,l,0.3617702880874276,colour,0.06
111,20,1,1,13,7,607,1021.0323370750993,1021.878188326722,"[60, 0, 194]",194,l,0.3351829629391432,colour,0.06
111,20,1,1,13,8,608,1022.3840032578446,1023.1902001798153,"[50, 0, 204]",204,a,0.28345963289029896,colour,0.06
111,20,1,1,13,9,609,1023.6964562179055,1024.582256789552,"[75, 0, 179]",179,l,0.3622141517698765,colour,0.06
111,20,1,1,13,10,610,1025.1027385257185,1025.9581858217716,"[14, 0, 240]",240,a,0.3320676451548934,colour,0.06
111,20,1,1,13,11,611,1026.47763607651,1027.422135768924,"[58, 0, 196]",196,a,0.4211562753189355,colour,0.06
111,20,1,1,13,12,612,1027.9320061267354,1028.8541539078578,"[88, 0, 166]",166,l,0.39975550095550716,colour,0.06
111,20,1,1,13,13,613,1029.36872126651,1030.2781990393996,"[70, 0, 184]",184,l,0.385976817458868,colour,0.06
111,20,1,1,13,14,614,1030.790619152598,1031.638236013474,"[97, 0, 157]",157,l,0.32496109791100025,colour,0.06
111,20,1,1,13,15,615,1032.1515367652755,1033.0062176382635,"[93, 0, 161]",161,l,0.3313504527322948,colour,0.06
111,20,1,1,13,16,616,1033.512788358843,1034.4782024263404,"[63, 0, 191]",191,l,0.44254365866072476,colour,0.06
111,20,1,1,13,17,617,1034.9972029095516,1035.8142234922852,"[61, 0, 193]",193,l,0.2935436519328505,colour,0.06
111,20,1,1,13,18,618,1036.325287595857,1037.2301672229078,"[57, 0, 197]",197,a,0.3816740559414029,colour,0.06
111,20,1,1,13,19,619,1037.7471421589144,1038.6462881837506,"[98, 0, 156]",156,l,0.37633823743090034,colour,0.06
111,20,1,1,13,20,620,1039.1534201342147,1040.2621718922164,"[65, 0, 189]",189,l,0.5853953438345343,colour,0.06
111,20,1,1,13,21,621,1040.7797915535048,1041.646192479413,"[2, 0, 252]",252,a,0.3433371391147375,colour,0.06
111,20,1,1,13,22,622,1042.1548391594552,1043.0542620576452,"[68, 0, 186]",186,l,0.3764146436005831,colour,0.06
111,20,1,1,13,23,623,1043.560950144427,1044.2943340998609,"[81, 0, 173]",173,l,0.20874636224471033,colour,0.06
111,20,1,1,13,24,624,1044.812433858635,1045.5421767130028,"[72, 0, 182]",182,l,0.20703195314854383,colour,0.06
111,20,1,1,13,25,625,1046.0624185970519,1046.902155004209,"[90, 0, 164]",164,l,0.3164772728923708,colour,0.06
111,20,1,1,13,26,626,1047.421825024765,1048.3664653198794,"[87, 0, 167]",167,l,0.4204485348891467,colour,0.06
111,20,1,1,13,27,627,1048.8760103613604,1049.6861311655957,"[73, 0, 181]",181,l,0.28769268398173153,colour,0.06
111,20,1,1,13,28,628,1050.203968229238,1051.654132403899,"[55, 0, 199]",199,a,0.9273209411185235,colour,0.06
111,20,1,1,13,29,629,1052.1727288016118,1053.0461492352188,"[96, 0, 158]",158,l,0.34974539862014353,colour,0.06
111,20,1,1,13,30,630,1053.5657747511286,1054.526149172103,"[59, 0, 195]",195,a,0.4356430924963206,colour,0.06
111,20,1,1,13,31,631,1055.032824655762,1055.854124763282,"[83, 0, 171]",171,l,0.2983052437193692,colour,0.06
111,20,1,1,13,32,632,1056.361205513822,1057.1981838210486,"[92, 0, 162]",162,l,0.3130240358877927,colour,0.06
111,20,1,1,13,33,633,1057.7057064662222,1058.8781583944801,"[56, 0, 198]",198,a,0.6466473708860576,colour,0.06
111,20,1,1,13,34,634,1059.396248307079,1060.3581413959619,"[94, 0, 160]",160,l,0.4390301632229239,colour,0.06
111,20,1,1,13,35,635,1060.8651642512996,1061.7581481703091,"[79, 0, 175]",175,l,0.3696617695968598,colour,0.06
111,20,1,1,13,36,636,1062.27284589177,1063.1581238305662,"[54, 0, 200]",200,a,0.3620349522680044,colour,0.06
111,20,1,1,13,37,637,1063.663433064241,1064.5260774923954,"[82, 0, 172]",172,l,0.3392695034854114,colour,0.06
111,20,1,1,13,38,638,1065.0384164734278,1066.0941282762215,"[69, 0, 185]",185,l,0.5328642369713634,colour,0.06
111,20,1,1,13,39,639,1066.6015701831784,1067.478292223066,"[76, 0, 178]",178,l,0.35328449378721416,colour,0.06
111,20,1,1,13,40,640,1067.9951478240546,1068.982350997394,"[86, 0, 168]",168,l,0.4641961003653705,colour,0.06
111,20,1,1,13,41,641,1069.4951960700564,1070.5020993931685,"[99, 0, 155]",155,l,0.4839687175117433,colour,0.06
111,20,1,1,13,42,642,1071.0108606822323,1071.8941185877193,"[67, 0, 187]",187,l,0.36064310232177377,colour,0.06
111,20,1,1,13,43,643,1072.4014876331203,1073.3021275138017,"[95, 0, 159]",159,l,0.37512204283848405,colour,0.06
111,20,1,1,13,44,644,1073.8121498960536,1074.750094818417,"[91, 0, 163]",163,l,0.4147996094543487,colour,0.06
111,20,1,1,13,45,645,1075.2651533023454,1076.1661496132147,"[89, 0, 165]",165,l,0.37824878189712763,colour,0.06
111,20,1,1,13,46,646,1076.6717597448733,1077.5180643126369,"[0, 0, 254]",254,a,0.3214873808901757,colour,0.06
111,20,1,1,13,47,647,1078.0327297388576,1078.8780871084891,"[62, 0, 192]",192,l,0.32281306479126215,colour,0.06
111,20,1,1,13,48,648,1079.3909341502003,1080.206152496161,"[66, 0, 188]",188,l,0.29181545809842646,colour,0.06
111,20,1,1,13,49,649,1080.7190850025509,1081.5181210264564,"[78, 0, 176]",176,l,0.2755650009494275,colour,0.06
111,20,1,1,13,50,650,1082.031662023859,1082.8781044376083,"[51, 0, 203]",203,a,0.32369606639258564,colour,0.06
111,20,1,1,14,1,651,1090.0343606530223,1090.566204436589,"[72, 0, 182]",182,l,0.005360630573704839,colour,0.06
111,20,1,1,14,2,652,1091.079973864369,1091.6540571793448,"[84, 0, 170]",170,l,0.051134530920535326,colour,0.06
111,20,1,1,14,3,653,1092.175050520571,1092.9421897886787,"[91, 0, 163]",163,l,0.24439607141539454,colour,0.06
111,20,1,1,14,4,654,1093.4563187975436,1094.2540429220535,"[70, 0, 184]",184,l,0.2857935610227287,colour,0.06
111,20,1,1,14,5,655,1094.7733466662467,1095.59805708169,"[94, 0, 160]",160,l,0.30138787208124995,colour,0.06
111,20,1,1,14,6,656,1096.1195517880842,1096.9342262335122,"[67, 0, 187]",187,l,0.29231682349927723,colour,0.06
111,20,1,1,14,7,657,1097.44722608733,1098.1980629104655,"[65, 0, 189]",189,l,0.22784629138186574,colour,0.06
111,20,1,1,14,8,658,1098.7128264044877,1099.5340044198092,"[11, 0, 243]",243,a,0.29856557538732886,colour,0.06
111,20,1,1,14,9,659,1100.0411836316343,1100.8460343899205,"[92, 0, 162]",162,l,0.28234426281414926,colour,0.06
111,20,1,1,14,10,660,1101.3538142160978,1101.942044459749,"[69, 0, 185]",185,l,0.06475528213195503,colour,0.06
111,20,1,1,14,11,661,1102.463255991228,1103.3420472953003,"[42, 0, 212]",212,a,0.3557602062355727,colour,0.06
111,20,1,1,14,12,662,1103.8538053545635,1104.6380363339558,"[56, 0, 198]",198,a,0.2610860604327172,colour,0.06
111,20,1,1,14,13,663,1105.1507719175424,1106.0380415325053,"[63, 0, 191]",191,a,0.3639671579003334,colour,0.06
111,20,1,1,14,14,664,1106.5583834534045,1107.3901062870864,"[98, 0, 156]",156,l,0.31176688126288354,colour,0.06
111,20,1,1,14,15,665,1107.8988195271231,1108.8780662345234,"[71, 0, 183]",183,l,0.4559930870309472,colour,0.06
111,20,1,1,14,16,666,1109.3861737402622,1110.1740111624822,"[85, 0, 169]",169,l,0.2646350017748773,colour,0.06
111,20,1,1,14,17,667,1110.6829512573313,1111.5740321150515,"[52, 0, 202]",202,a,0.368426276370883,colour,0.06
111,20,1,1,14,18,668,1112.0892260819674,1112.9820075642783,"[76, 0, 178]",178,l,0.3704128328245133,colour,0.06
111,20,1,1,14,19,669,1113.4955304448958,1114.3742264383473,"[77, 0, 177]",177,l,0.35582637251354754,colour,0.06
111,20,1,1,14,20,670,1114.8747012191452,1115.8300009414088,"[64, 0, 190]",190,l,0.43225365853868425,colour,0.06
111,20,1,1,14,21,671,1116.340282473946,1117.6859893812798,"[88, 0, 166]",166,l,0.8230125475674868,colour,0.06
111,20,1,1,14,22,672,1118.1996323845815,1119.2700232015923,"[75, 0, 179]",179,l,0.5472029687371105,colour,0.06
111,20,1,1,14,23,673,1119.7781661532354,1120.5981130076107,"[51, 0, 203]",203,a,0.2968948830384761,colour,0.06
111,20,1,1,14,24,674,1121.1063599346671,1121.934040732216,"[54, 0, 200]",200,a,0.3044338726904243,colour,0.06
111,20,1,1,14,25,675,1122.4500373562332,1123.2540090514813,"[60, 0, 194]",194,a,0.2811489417217672,colour,0.06
111,20,1,1,14,26,676,1123.7625805069692,1124.6140735947993,"[93, 0, 161]",161,l,0.3271433955524117,colour,0.06
111,20,1,1,14,27,677,1125.123271658551,1125.9500269193668,"[99, 0, 155]",155,l,0.3040557811036706,colour,0.06
111,20,1,1,14,28,678,1126.4670400584582,1127.3259965176694,"[89, 0, 165]",165,l,0.33547677169553936,colour,0.06
111,20,1,1,14,29,679,1127.8420860890765,1128.9340513660572,"[73, 0, 181]",181,l,0.5692173540592194,colour,0.06
111,20,1,1,14,30,680,1129.4513145971578,1130.261999781942,"[90, 0, 164]",164,l,0.2873965122271329,colour,0.06
111,20,1,1,14,31,681,1130.7808647821657,1131.7579910259228,"[23, 0, 231]",231,a,0.4544933238066733,colour,0.06
111,20,1,1,14,32,682,1132.2651584222913,1133.0620160871185,"[87, 0, 167]",167,l,0.27356032747775316,colour,0.06
111,20,1,1,14,33,683,1133.5757268320303,1134.4780043221544,"[50, 0, 204]",204,a,0.39199004997499287,colour,0.06
111,20,1,1,14,34,684,1134.9855163334869,1135.6939883823507,"[96, 0, 158]",158,l,0.1852530869655311,colour,0.06
111,20,1,1,14,35,685,1136.2043679824565,1137.269968850771,"[97, 0, 157]",157,l,0.5424701278097928,colour,0.06
111,20,1,1,14,36,686,1137.7824047179893,1140.3179620704614,"[68, 0, 186]",186,l,2.0127015160396695,colour,0.06
111,20,1,1,14,37,687,1140.8305523248855,1141.4779779345263,"[83, 0, 171]",171,l,0.1240329616703093,colour,0.06
111,20,1,1,14,38,688,1141.986435962608,1142.5419435563963,"[79, 0, 175]",175,l,0.032725406577810645,colour,0.06
111,20,1,1,14,39,689,1143.0489510516636,1143.7419851466548,"[55, 0, 199]",199,a,0.1696568070910871,colour,0.06
111,20,1,1,14,40,690,1144.2528810780495,1144.9339796863496,"[74, 0, 180]",180,l,0.15898241358809173,colour,0.06
111,20,1,1,14,41,691,1145.4432088637259,1146.1739977716934,"[53, 0, 201]",201,a,0.20806067739613354,colour,0.06
111,20,1,1,14,42,692,1146.6931219224352,1147.590012000408,"[61, 0, 193]",193,l,0.3734828580636531,colour,0.06
111,20,1,1,14,43,693,1148.0994353438728,1148.9179970438126,"[59, 0, 195]",195,l,0.2958574939984828,colour,0.06
111,20,1,1,14,44,694,1149.4165376494639,1150.134025608655,"[57, 0, 197]",197,a,0.19408822222612798,colour,0.06
111,20,1,1,14,45,695,1150.6511316953693,1151.5740049397573,"[80, 0, 174]",174,l,0.4001749462913722,colour,0.06
111,20,1,1,14,46,696,1152.0883864033967,1152.8940157939214,"[95, 0, 159]",159,l,0.28268927126191556,colour,0.06
111,20,1,1,14,47,697,1153.4010796092916,1154.221985871205,"[81, 0, 173]",173,l,0.29819299769587815,colour,0.06
111,20,1,1,14,48,698,1154.7294348671567,1155.6059844030533,"[86, 0, 168]",168,l,0.3538110654335469,colour,0.06
111,20,1,1,14,49,699,1156.1196872710716,1156.7899700952694,"[78, 0, 176]",176,l,0.14795749774202704,colour,0.06
111,20,1,1,14,50,700,1157.3075944825541,1158.2619446434546,"[62, 0, 192]",192,a,0.43211226793937385,colour,0.06
111,20,1,1,15,1,701,1166.5468697755132,1168.8220562906936,"[56, 0, 198]",198,a,1.7512708406429738,colour,0.06
111,20,1,1,15,2,702,1169.3290377922822,1170.0219328596722,"[65, 0, 189]",189,l,0.16981040686368942,colour,0.06
111,20,1,1,15,3,703,1170.531938700471,1171.4459303359035,"[59, 0, 195]",195,a,0.39046389888972044,colour,0.06
111,20,1,1,15,4,704,1171.9538172881585,1173.957936123712,"[87, 0, 167]",167,l,1.480705708032474,colour,0.06
111,20,1,1,15,5,705,1174.4715444690082,1175.3259205054492,"[43, 0, 211]",211,a,0.33265526266768575,colour,0.06
111,20,1,1,15,6,706,1175.846078894334,1176.7899039292242,"[64, 0, 190]",190,l,0.4190590479411185,colour,0.06
111,20,1,1,15,7,707,1177.3010629494675,1178.2939670360647,"[99, 0, 155]",155,l,0.4694972604047507,colour,0.06
111,20,1,1,15,8,708,1178.8011533371173,1179.645920726005,"[72, 0, 182]",182,l,0.3215279469732195,colour,0.06
111,20,1,1,15,9,709,1180.1604778447654,1181.1019201148301,"[52, 0, 202]",202,a,0.41869552875868976,colour,0.06
111,20,1,1,15,10,710,1181.6136234293226,1182.4298890104983,"[94, 0, 160]",160,l,0.29182687983848155,colour,0.06
111,20,1,1,15,11,711,1182.9431810977403,1183.78990077856,"[92, 0, 162]",162,l,0.3241548961959779,colour,0.06
111,20,1,1,15,12,712,1184.302643451374,1185.0219903611578,"[66, 0, 188]",188,l,0.19638946116901934,colour,0.06
111,20,1,1,15,13,713,1185.5399380954914,1186.1419478100725,"[31, 0, 223]",223,a,0.07920625968836248,colour,0.06
111,20,1,1,15,14,714,1186.6493326092605,1187.6299439913128,"[97, 0, 157]",157,l,0.45771182887256145,colour,0.06
111,20,1,1,15,15,715,1188.1494072428904,1189.0620594101492,"[75, 0, 179]",179,l,0.38978609070181847,colour,0.06
111,20,1,1,15,16,716,1189.5712302983738,1190.4059396621305,"[55, 0, 199]",199,a,0.31147622340358794,colour,0.06
111,20,1,1,15,17,717,1190.909059114987,1191.7578957153019,"[58, 0, 196]",196,a,0.33038750058040023,colour,0.06
111,20,1,1,15,18,718,1192.2636342404876,1193.1019685578067,"[74, 0, 180]",180,l,0.3150228017475456,colour,0.06
111,20,1,1,15,19,719,1193.608233654406,1195.0858957248274,"[95, 0, 159]",159,l,0.953912598779425,colour,0.06
111,20,1,1,15,20,720,1195.5896602964494,1196.4220762981568,"[79, 0, 175]",175,l,0.321763860527426,colour,0.06
111,20,1,1,15,21,721,1196.937070191605,1197.7820518324152,"[77, 0, 177]",177,l,0.321644525276497,colour,0.06
111,20,1,1,15,22,722,1198.29634586256,1200.3339801589027,"[61, 0, 193]",193,l,1.5148213892243803,colour,0.06
111,20,1,1,15,23,723,1200.8398770100903,1201.9658811681438,"[54, 0, 200]",200,a,0.6025134429801255,colour,0.06
111,20,1,1,15,24,724,1202.4860761847813,1203.11005656817,"[68, 0, 186]",186,l,0.10065784025937319,colour,0.06
111,20,1,1,15,25,725,1203.6278802410234,1205.2699562476482,"[85, 0, 169]",169,l,1.1153943554963917,colour,0.06
111,20,1,1,15,26,726,1205.778343777405,1206.5738867861219,"[53, 0, 201]",201,a,0.27273285831324756,colour,0.06
111,20,1,1,15,27,727,1207.0929309860803,1207.6298782189842,"[76, 0, 178]",178,l,0.014111876487731934,colour,0.06
111,20,1,1,15,28,728,1208.1409411409404,1209.5578474297654,"[90, 0, 164]",164,l,0.8937377389520407,colour,0.06
111,20,1,1,15,29,729,1210.0782590613235,1210.7819328911137,"[81, 0, 173]",173,l,0.18329725041985512,colour,0.06
111,20,1,1,15,30,730,1211.294250998646,1212.0138692676555,"[51, 0, 203]",203,a,0.19669390353374183,colour,0.06
111,20,1,1,15,31,731,1212.5325377392583,1214.157857197104,"[96, 0, 158]",158,l,1.1019390192814171,colour,0.06
111,20,1,1,15,32,732,1214.673212640686,1215.933889101725,"[63, 0, 191]",191,l,0.7373168962076306,colour,0.06
111,20,1,1,15,33,733,1216.45445748372,1218.437878953293,"[93, 0, 161]",161,l,1.459999283310026,colour,0.06
111,20,1,1,15,34,734,1218.9543371640611,1221.637792543508,"[60, 0, 194]",194,a,2.1608543610200286,colour,0.06
111,20,1,1,15,35,735,1222.158566512866,1222.7178888937924,"[78, 0, 176]",176,l,0.036668193293735385,colour,0.06
111,20,1,1,15,36,736,1223.2366455867887,1224.6378185374197,"[70, 0, 184]",184,l,0.8781430346425623,colour,0.06
111,20,1,1,15,37,737,1225.1443593257573,1226.4537950358354,"[71, 0, 183]",183,l,0.7861643666401505,colour,0.06
111,20,1,1,15,38,738,1226.9725005286746,1227.8138154684566,"[91, 0, 163]",163,l,0.318611127557233,colour,0.06
111,20,1,1,15,39,739,1228.3317561135627,1229.173848110484,"[69, 0, 185]",185,l,0.31746621895581484,colour,0.06
111,20,1,1,15,40,740,1229.6821265448816,1230.37383731897,"[88, 0, 166]",166,l,0.16893252520821989,colour,0.06
111,20,1,1,15,41,741,1230.888039189158,1231.9978161270265,"[73, 0, 181]",181,l,0.5871802517212927,colour,0.06
111,20,1,1,15,42,742,1232.5129120263737,1233.3978370795958,"[67, 0, 187]",187,l,0.36144969798624516,colour,0.06
111,20,1,1,15,43,743,1233.9063671813346,1234.549797622487,"[19, 0, 235]",235,a,0.12065573688596487,colour,0.06
111,20,1,1,15,44,744,1235.062530449126,1235.6378264143132,"[50, 0, 204]",204,a,0.056638915091753006,colour,0.06
111,20,1,1,15,45,745,1236.1544598862529,1236.7258032183163,"[98, 0, 156]",156,l,0.048166905296966434,colour,0.06
111,20,1,1,15,46,746,1237.232632301515,1238.6058359232266,"[80, 0, 174]",174,l,0.8499752073548734,colour,0.06
111,20,1,1,15,47,747,1239.1256437897682,1240.0937671200372,"[57, 0, 197]",197,l,0.44469720567576587,colour,0.06
111,20,1,1,15,48,748,1240.610011866549,1241.5497854133137,"[62, 0, 192]",192,l,0.41729028802365065,colour,0.06
111,20,1,1,15,49,749,1242.0650770538487,1242.8378077459056,"[89, 0, 165]",165,l,0.2468414579052478,colour,0.06
111,20,1,1,15,50,750,1243.3492881441489,1244.0937742092647,"[82, 0, 172]",172,l,0.2247542110271752,colour,0.06
111,20,1,1,16,1,751,1248.6567546268925,1249.4617621356156,"[71, 0, 183]",183,l,0.280882308492437,colour,0.06
111,20,1,1,16,2,752,1249.9701437575277,1250.749799040379,"[82, 0, 172]",172,l,0.25625948421657085,colour,0.06
111,20,1,1,16,3,753,1251.2681579494383,1252.0538485199213,"[79, 0, 175]",175,l,0.2621478675864637,colour,0.06
111,20,1,1,16,4,754,1252.5651891028974,1254.3177911413368,"[51, 0, 203]",203,a,1.2294835071079433,colour,0.06
111,20,1,1,16,5,755,1254.8303845468909,1255.4937935865019,"[81, 0, 173]",173,l,0.14041102514602244,colour,0.06
111,20,1,1,16,6,756,1256.0039022208657,1256.86186185712,"[59, 0, 195]",195,a,0.33506520302034914,colour,0.06
111,20,1,1,16,7,757,1257.3788954762276,1258.4537934605032,"[64, 0, 190]",190,a,0.551865705056116,colour,0.06
111,20,1,1,16,8,758,1258.9726994207595,1259.9417699493933,"[60, 0, 194]",194,a,0.44586535124108195,colour,0.06
111,20,1,1,16,9,759,1260.4575310538057,1261.3257487888914,"[83, 0, 171]",171,l,0.34487746888771653,colour,0.06
111,20,1,1,16,10,760,1261.832592838211,1262.7580843672622,"[57, 0, 197]",197,a,0.4024848497938365,colour,0.06
111,20,1,1,16,11,761,1263.2700948812999,1264.2297143007163,"[70, 0, 184]",184,l,0.43671395839191973,colour,0.06
111,20,1,1,16,12,762,1264.738774124533,1265.6697499514557,"[50, 0, 204]",204,a,0.40694081713445485,colour,0.06
111,20,1,1,16,13,763,1266.1777274881024,1266.8937664898112,"[86, 0, 168]",168,l,0.19322333741001785,colour,0.06
111,20,1,1,16,14,764,1267.4120533252135,1268.1017267366406,"[90, 0, 164]",164,l,0.1665280987508595,colour,0.06
111,20,1,1,16,15,765,1268.615097199101,1269.2457193923183,"[72, 0, 182]",182,l,0.1072409669868648,colour,0.06
111,20,1,1,16,16,766,1269.7573687501717,1270.3017348498106,"[77, 0, 177]",177,l,0.020900590578094125,colour,0.06
111,20,1,1,16,17,767,1270.8199169223662,1272.3657122873701,"[69, 0, 185]",185,l,1.032137789297849,colour,0.06
111,20,1,1,16,18,768,1272.8736815531738,1273.7338290009648,"[54, 0, 200]",200,a,0.33677212917245924,colour,0.06
111,20,1,1,16,19,769,1274.248440076597,1274.9577336872462,"[94, 0, 160]",160,l,0.18636924517340958,colour,0.06
111,20,1,1,16,20,770,1275.468647735659,1276.3657367057167,"[11, 0, 243]",243,a,0.3818000864703208,colour,0.06
111,20,1,1,16,21,771,1276.8750997907482,1277.749761625193,"[98, 0, 156]",156,l,0.3513046328444034,colour,0.06
111,20,1,1,16,22,772,1278.2657743967138,1279.3658879422583,"[68, 0, 186]",186,l,0.5768465343862772,colour,0.06
111,20,1,1,16,23,773,1279.875008812407,1280.733843573369,"[73, 0, 181]",181,l,0.335438568610698,colour,0.06
111,20,1,1,16,24,774,1281.2512753701303,1282.2057188723702,"[87, 0, 167]",167,l,0.43196063744835556,colour,0.06
111,20,1,1,16,25,775,1282.7201440529898,1283.6617048704065,"[85, 0, 169]",169,l,0.4183753323741257,colour,0.06
111,20,1,1,16,26,776,1284.1731175270397,1284.9417069340125,"[74, 0, 180]",180,l,0.24563944153487682,colour,0.06
111,20,1,1,16,27,777,1285.454313336406,1286.4217494064942,"[63, 0, 191]",191,a,0.45937543199397624,colour,0.06
111,20,1,1,16,28,778,1286.9394001811743,1287.8297484864015,"[53, 0, 201]",201,a,0.3669450234156102,colour,0.06
111,20,1,1,16,29,779,1288.3456608273555,1289.2219118282665,"[55, 0, 199]",199,a,0.3603177859913558,colour,0.06
111,20,1,1,16,30,780,1289.7296699930448,1290.5657381236088,"[95, 0, 159]",159,l,0.31313076824881136,colour,0.06
111,20,1,1,16,31,781,1291.0732910947409,1291.9817113925237,"[56, 0, 198]",198,l,0.3849705425091088,colour,0.06
111,20,1,1,16,32,782,1292.495235454524,1293.325711767422,"[66, 0, 188]",188,l,0.3071596771478653,colour,0.06
111,20,1,1,16,33,783,1293.8390058239456,1294.6696987515315,"[26, 0, 228]",228,a,0.3082821366842836,colour,0.06
111,20,1,1,16,34,784,1295.1830329801887,1295.8300135442987,"[52, 0, 202]",202,a,0.12419719528406858,colour,0.06
111,20,1,1,16,35,785,1296.3410603187513,1296.9657023623586,"[97, 0, 157]",157,l,0.10079095978289843,colour,0.06
111,20,1,1,16,36,786,1297.4720312620047,1299.0860024569556,"[89, 0, 165]",165,l,1.0985070501919836,colour,0.06
111,20,1,1,16,37,787,1299.6054531054106,1300.205682638567,"[91, 0, 163]",163,l,0.07763914857059717,colour,0.06
111,20,1,1,16,38,788,1300.7068088396918,1302.0217075799592,"[88, 0, 166]",166,l,0.7914048742968589,colour,0.06
111,20,1,1,16,39,789,1302.5279262028635,1303.2536790089216,"[58, 0, 196]",196,a,0.20250745653174818,colour,0.06
111,20,1,1,16,40,790,1303.762314661406,1304.6057028034702,"[93, 0, 161]",161,l,0.3203972168266773,colour,0.06
111,20,1,1,16,41,791,1305.1215926953591,1306.0617112505715,"[84, 0, 170]",170,l,0.41744664474390447,colour,0.06
111,20,1,1,16,42,792,1306.574764273595,1307.4776900333818,"[18, 0, 236]",236,a,0.37871115654706955,colour,0.06
111,20,1,1,16,43,793,1307.9827598091215,1308.8058708179742,"[80, 0, 174]",174,l,0.2998191856313497,colour,0.06
111,20,1,1,16,44,794,1309.326270240359,1310.30169152678,"[67, 0, 187]",187,l,0.45202982029877603,colour,0.06
111,20,1,1,16,45,795,1310.8106284709647,1311.7096835176926,"[99, 0, 155]",155,l,0.376021979842335,colour,0.06
111,20,1,1,16,46,796,1312.2168304342777,1313.1416669981554,"[65, 0, 189]",189,l,0.401495116064325,colour,0.06
111,20,1,1,16,47,797,1313.6440716215875,1314.397662999807,"[61, 0, 193]",193,l,0.23495835275389254,colour,0.06
111,20,1,1,16,48,798,1314.905568068847,1315.4937045774423,"[75, 0, 179]",179,l,0.06493408815003932,colour,0.06
111,20,1,1,16,49,799,1315.999371028738,1316.5336444450077,"[62, 0, 192]",192,l,0.011731080710887909,colour,0.06
111,20,1,1,16,50,800,1317.0462599056773,1317.7097169945482,"[76, 0, 178]",178,l,0.1400478994473815,colour,0.06
