id,age,condition,counterbalance,block,trialinblock,trial,tstart,tend,trialstim,trialintensity,response,RT,trialtype,colourfreq
169,20,0,1,Practice,1,NA,5.907699232921004e-06,0.6080379289778648,"[66, 0, 188]",188,a,0.021171991858864203,colour,0.5
169,20,0,1,Practice,2,NA,1.1439637945150025,3.4080577788263327,"[20, 0, 234]",234,l,1.732027811842272,colour,0.5
169,20,0,1,Practice,3,NA,3.9248706805956317,5.0080411585076945,"[9, 0, 245]",245,l,0.5598047625389881,colour,0.5
169,20,0,1,Practice,4,NA,5.506362979722326,6.4561117452103645,"[89, 0, 165]",165,l,0.426435825516819,colour,0.5
169,20,0,1,Practice,5,NA,6.975568930574809,7.552057807188248,"[3, 0, 251]",251,a,0.05341460744966753,colour,0.5
169,20,0,1,Practice,6,NA,8.069107016694034,8.640036753742606,"[83, 0, 171]",171,l,0.04773180017946288,colour,0.5
169,20,0,1,Practice,7,NA,9.14731424440106,11.12803507753415,"[65, 0, 189]",189,l,1.4574535793217365,colour,0.5
169,20,0,1,Practice,8,NA,11.649293321708683,12.200136507104617,"[22, 0, 232]",232,a,0.027388460774091072,colour,0.5
169,20,0,1,Practice,9,NA,12.71192944482027,13.344070763152558,"[10, 0, 244]",244,a,0.10890990453481209,colour,0.5
169,20,0,1,Practice,10,NA,13.852662912526284,14.47207315142441,"[55, 0, 199]",199,a,0.09621978508948814,colour,0.5
169,20,0,1,1,1,1,4.530048104381422,6.087968312713201,"[7, 0, 247]",247,a,1.0338723512832075,colour,0.5
169,20,0,1,1,2,2,6.594848412525607,7.3119317291275365,"[65, 0, 189]",189,l,0.1937333550740732,colour,0.5
169,20,0,1,1,3,3,7.829333431014675,8.703953270931379,"[63, 0, 191]",191,l,0.3520847462496022,colour,0.5
169,20,0,1,1,4,4,9.220087181805866,9.98395352299849,"[19, 0, 235]",235,a,0.24125799212197307,colour,0.5
169,20,0,1,1,5,5,10.50129772334185,11.247952984209405,"[84, 0, 170]",170,l,0.23441688307502773,colour,0.5
169,20,0,1,1,6,6,11.755977995024296,12.543995380969136,"[82, 0, 172]",172,l,0.2647201998188393,colour,0.5
169,20,0,1,1,7,7,13.054504773812369,13.864140773250256,"[95, 0, 159]",159,l,0.28641285639605485,colour,0.5
169,20,0,1,1,8,8,14.382765367685352,15.967962578302831,"[45, 0, 209]",209,a,1.061810621395125,colour,0.5
169,20,0,1,1,9,9,16.476690998490085,17.39195064950036,"[2, 0, 252]",252,a,0.39215229876572266,colour,0.5
169,20,0,1,1,10,10,17.898727955442155,18.640124975296203,"[53, 0, 201]",201,a,0.21885877540626097,colour,0.5
169,20,0,1,1,11,11,19.14885300162132,19.727957411043462,"[85, 0, 169]",169,l,0.05776660829724278,colour,0.5
169,20,0,1,1,12,12,20.240683370473562,20.84797889929905,"[31, 0, 223]",223,a,0.09650217284797691,colour,0.5
169,20,0,1,1,13,13,21.369478571228683,22.111942126663052,"[13, 0, 241]",241,a,0.21895881234377157,colour,0.5
169,20,0,1,1,14,14,22.619691051266273,23.455914822086925,"[5, 0, 249]",249,a,0.3128891693049809,colour,0.5
169,20,0,1,1,15,15,23.96541715011699,24.71194165405177,"[25, 0, 229]",229,a,0.22330057321232744,colour,0.5
169,20,0,1,1,16,16,25.23109439628024,25.9919671122625,"[32, 0, 222]",222,a,0.237499517534161,colour,0.5
169,20,0,1,1,17,17,26.51251958400826,27.271953185860184,"[11, 0, 243]",243,a,0.23618131419061683,colour,0.5
169,20,0,1,1,18,18,27.778195648628753,28.84001060234732,"[66, 0, 188]",188,l,0.5384519952640403,colour,0.5
169,20,0,1,1,19,19,29.35648558405228,29.887958230247023,"[4, 0, 250]",250,a,0.008128198518534191,colour,0.5
169,20,0,1,1,20,20,30.404829027422238,31.13597816831316,"[28, 0, 226]",226,a,0.20814418866939377,colour,0.5
169,20,0,1,1,21,21,31.65478353817889,32.20000102400081,"[75, 0, 179]",179,l,0.02210934589675162,colour,0.5
169,20,0,1,1,22,22,32.71776506442984,33.46395913136075,"[70, 0, 184]",184,l,0.22404218565498013,colour,0.5
169,20,0,1,1,23,23,33.98262980581785,34.72802554644295,"[88, 0, 166]",166,l,0.2221158837346593,colour,0.5
169,20,0,1,1,24,24,35.24830547659076,35.95997695211554,"[98, 0, 156]",156,l,0.186134485877119,colour,0.5
169,20,0,1,1,25,25,36.460905641535646,37.42398176965071,"[43, 0, 211]",211,a,0.4398384127707686,colour,0.5
169,20,0,1,1,26,26,37.94515218611923,38.8959875733708,"[93, 0, 161]",161,l,0.42772842885460705,colour,0.5
169,20,0,1,1,27,27,39.41423722618492,39.95196927055076,"[51, 0, 203]",203,a,0.014332852064399049,colour,0.5
169,20,0,1,1,28,28,40.46114588773344,41.231967553379945,"[80, 0, 174]",174,a,0.24747958104126155,colour,0.5
169,20,0,1,1,29,29,41.74250097083859,42.3920010618167,"[23, 0, 231]",231,a,0.12613398177199997,colour,0.5
169,20,0,1,1,30,30,42.89884256469668,43.63995089525997,"[21, 0, 233]",233,a,0.21817269526945893,colour,0.5
169,20,0,1,1,31,31,44.14896446010971,44.88797477178741,"[3, 0, 251]",251,a,0.21565798707888462,colour,0.5
169,20,0,1,1,32,32,45.399066663201666,46.39999732184515,"[79, 0, 175]",175,l,0.4775543094292516,colour,0.5
169,20,0,1,1,33,33,46.914815392461605,47.77595781434502,"[38, 0, 216]",216,a,0.3383706266322406,colour,0.5
169,20,0,1,1,34,34,48.2844101483206,49.05603486641485,"[44, 0, 210]",210,a,0.24840669505647384,colour,0.5
169,20,0,1,1,35,35,49.56570812371501,50.303930349080474,"[9, 0, 245]",245,a,0.2149061346281087,colour,0.5
169,20,0,1,1,36,36,50.80737414053874,51.44801899284357,"[96, 0, 158]",158,l,0.11733388157153968,colour,0.5
169,20,0,1,1,37,37,51.963717703620205,52.496000491519226,"[1, 0, 253]",253,a,0.009036014089360833,colour,0.5
169,20,0,1,1,38,38,53.01059918978717,53.56799282570137,"[99, 0, 155]",155,l,0.03512163153209258,colour,0.5
169,20,0,1,1,39,39,54.073290451357025,54.70396548016288,"[34, 0, 220]",220,a,0.10743888883735053,colour,0.5
169,20,0,1,1,40,40,55.21399004830164,55.91197261036723,"[59, 0, 195]",195,l,0.17474799750198144,colour,0.5
169,20,0,1,1,41,41,56.432870091404766,57.08801242348272,"[78, 0, 176]",176,l,0.13189634596346878,colour,0.5
169,20,0,1,1,42,42,57.60477097447438,58.31198253529146,"[72, 0, 182]",182,l,0.1841475316468859,colour,0.5
169,20,0,1,1,43,43,58.823552556030336,59.55194753022806,"[94, 0, 160]",160,l,0.20498908651643433,colour,0.5
169,20,0,1,1,44,44,60.05955939635169,60.815950929914834,"[73, 0, 181]",181,l,0.2331762674584752,colour,0.5
169,20,0,1,1,45,45,61.325285479440936,62.312058153765975,"[47, 0, 207]",207,a,0.46457786379323807,colour,0.5
169,20,0,1,1,46,46,62.825531239490374,63.57599814419518,"[64, 0, 190]",190,l,0.22722800781775732,colour,0.5
169,20,0,1,1,47,47,64.09097532868327,64.63997295063746,"[15, 0, 239]",239,a,0.02593122971302364,colour,0.5
169,20,0,1,1,48,48,65.15368588872661,66.75995190349931,"[16, 0, 238]",238,a,1.0829857640346745,colour,0.5
169,20,0,1,1,49,49,67.28055439371383,68.01596180007618,"[56, 0, 198]",198,l,0.21325749430980068,colour,0.5
169,20,0,1,1,50,50,68.52957115659956,69.55201409025176,"[24, 0, 230]",230,a,0.49844312584900763,colour,0.5
169,20,0,1,2,1,51,74.71900449851819,75.35198155854596,"[78, 0, 176]",176,l,0.10912809534056578,colour,0.5
169,20,0,1,2,2,52,75.8606071848626,76.68797099086805,"[13, 0, 241]",241,a,0.3040890691190725,colour,0.5
169,20,0,1,2,3,53,77.20444203411171,78.33600400462456,"[45, 0, 209]",209,a,0.6182759617513511,colour,0.5
169,20,0,1,2,4,54,78.8515762907773,79.75992315272742,"[16, 0, 238]",238,a,0.38500989736348856,colour,0.5
169,20,0,1,2,5,55,80.27368059543369,80.81596038222779,"[60, 0, 194]",194,l,0.019092877613729797,colour,0.5
169,20,0,1,2,6,56,81.33669599246059,81.9119978165254,"[1, 0, 253]",253,a,0.055266078576096334,colour,0.5
169,20,0,1,2,7,57,82.42758979497012,83.15994489303557,"[26, 0, 228]",228,a,0.20907602885563392,colour,0.5
169,20,0,1,2,8,58,83.68257884211198,84.42396522811032,"[38, 0, 216]",216,a,0.21661306419991888,colour,0.5
169,20,0,1,2,9,59,84.93408353163977,85.65600052302761,"[21, 0, 233]",233,a,0.19846541754668579,colour,0.5
169,20,0,1,2,10,60,86.16857603320386,86.74395583881414,"[48, 0, 206]",206,l,0.0520668656390626,colour,0.5
169,20,0,1,2,11,61,87.26266865480284,87.90395980878384,"[83, 0, 171]",171,l,0.11823303251003381,colour,0.5
169,20,0,1,2,12,62,88.41942260567157,88.99198837995937,"[40, 0, 214]",214,a,0.04932530201040208,colour,0.5
169,20,0,1,2,13,63,89.51318912260467,90.12796654827252,"[93, 0, 161]",161,l,0.0913053718250012,colour,0.5
169,20,0,1,2,14,64,90.63968977519835,91.31998430917156,"[63, 0, 191]",191,l,0.15735929252696224,colour,0.5
169,20,0,1,2,15,65,91.82729409523017,92.82392867917952,"[12, 0, 242]",242,a,0.4733972624526359,colour,0.5
169,20,0,1,2,16,66,93.34273719979683,94.27198272432724,"[29, 0, 225]",225,a,0.4064386769605335,colour,0.5
169,20,0,1,2,17,67,94.78034329213551,95.54399577481672,"[65, 0, 189]",189,l,0.2406687981565483,colour,0.5
169,20,0,1,2,18,68,96.06250339692633,96.83997121771972,"[69, 0, 185]",185,l,0.2541592131310608,colour,0.5
169,20,0,1,2,19,69,97.35950047694496,98.12792992057803,"[50, 0, 204]",204,l,0.24505624518496916,colour,0.5
169,20,0,1,2,20,70,98.64080751080473,99.22405833336234,"[7, 0, 247]",247,a,0.05994733488478232,colour,0.5
169,20,0,1,2,21,71,99.73470124007144,100.7839993667003,"[18, 0, 236]",236,a,0.5233436599810375,colour,0.5
169,20,0,1,2,22,72,101.30002063754364,102.13596832216717,"[67, 0, 187]",187,l,0.3125469169317512,colour,0.5
169,20,0,1,2,23,73,102.64394016373262,103.39200381873525,"[89, 0, 165]",165,l,0.22480073350016028,colour,0.5
169,20,0,1,2,24,74,103.90967806222034,104.66445955238305,"[84, 0, 170]",170,l,0.2314598855737131,colour,0.5
169,20,0,1,2,25,75,105.17715715488885,106.1199844667135,"[5, 0, 249]",249,a,0.42041194741614163,colour,0.5
169,20,0,1,2,26,76,106.62105297153175,107.35992819395324,"[46, 0, 208]",208,a,0.2156658640014939,colour,0.5
169,20,0,1,2,27,77,107.87122134079982,108.40796128648799,"[82, 0, 172]",172,l,0.013503411886631511,colour,0.5
169,20,0,1,2,28,78,108.9181595408154,109.67209032311803,"[57, 0, 197]",197,l,0.23058082078932784,colour,0.5
169,20,0,1,2,29,79,110.18390571005875,110.92006693810981,"[15, 0, 239]",239,a,0.21207083560875617,colour,0.5
169,20,0,1,2,30,80,111.43508232568274,112.20795396095491,"[37, 0, 217]",217,a,0.2501360738679068,colour,0.5
169,20,0,1,2,31,81,112.71645710109442,113.49602490998222,"[27, 0, 227]",227,a,0.2561953981348779,colour,0.5
169,20,0,1,2,32,82,114.01343055034522,114.67996724775003,"[70, 0, 184]",184,l,0.15264259005198255,colour,0.5
169,20,0,1,2,33,83,115.19176688084553,115.7919534851826,"[52, 0, 202]",202,a,0.07506787939928472,colour,0.5
169,20,0,1,2,34,84,116.30359203516855,116.83999012234563,"[76, 0, 178]",178,l,0.0213169272756204,colour,0.5
169,20,0,1,2,35,85,117.35791209510353,118.01595589237695,"[49, 0, 205]",205,l,0.1346162480476778,colour,0.5
169,20,0,1,2,36,86,118.52994727974874,119.21595927944873,"[94, 0, 160]",160,l,0.1627427766652545,colour,0.5
169,20,0,1,2,37,87,119.72677547851345,120.76008620506036,"[24, 0, 230]",230,a,0.5100856142817065,colour,0.5
169,20,0,1,2,38,88,121.27368414004741,122.06401931107393,"[44, 0, 210]",210,a,0.26593167083046865,colour,0.5
169,20,0,1,2,39,89,122.57195491879247,123.09652737900615,"[79, 0, 175]",175,l,0.0015068556822370738,colour,0.5
169,20,0,1,2,40,90,123.61886476186919,124.175978766958,"[28, 0, 226]",226,a,0.033761680489988066,colour,0.5
169,20,0,1,2,41,91,124.6971034972812,125.64797945068858,"[68, 0, 186]",186,l,0.4275882195943268,colour,0.5
169,20,0,1,2,42,92,126.16728500525642,126.90400116263481,"[92, 0, 162]",162,l,0.21341030663461424,colour,0.5
169,20,0,1,2,43,93,127.41739902373229,128.16802622386604,"[72, 0, 182]",182,l,0.22757734943297692,colour,0.5
169,20,0,1,2,44,94,128.68310659605777,129.52793984550226,"[87, 0, 167]",167,l,0.32148171254084446,colour,0.5
169,20,0,1,2,45,95,130.0425511468493,130.56801448724582,"[2, 0, 252]",252,a,0.0020625727192964405,colour,0.5
169,20,0,1,2,46,96,131.0895452730183,131.70401983095508,"[11, 0, 243]",243,a,0.0911218394903699,colour,0.5
169,20,0,1,2,47,97,132.21606916254677,132.99998542769754,"[23, 0, 231]",231,a,0.26045523898210377,colour,0.5
169,20,0,1,2,48,98,133.51317021797877,134.0479854371515,"[59, 0, 195]",195,l,0.011458562265033834,colour,0.5
169,20,0,1,2,49,99,134.5619980922056,135.44795794667152,"[96, 0, 158]",158,l,0.36420969633036293,colour,0.5
169,20,0,1,2,50,100,135.96826505221543,136.50398808694445,"[58, 0, 196]",196,a,0.012355350132565945,colour,0.5
169,20,0,1,3,1,101,143.5787271047302,144.30402408448572,"[88, 0, 166]",166,a,0.2012294304004172,colour,0.5
169,20,0,1,3,2,102,144.8140061172162,145.72796883259434,"[89, 0, 165]",165,l,0.39100029853580054,colour,0.5
169,20,0,1,3,3,103,146.22351325016643,146.81600409914972,"[33, 0, 221]",221,a,0.06906723821884952,colour,0.5
169,20,0,1,3,4,104,147.33303361634898,148.09602443737094,"[31, 0, 223]",223,a,0.23986220108054113,colour,0.5
169,20,0,1,3,5,105,148.61435128406447,149.55999262719706,"[78, 0, 176]",176,l,0.42227562777407,colour,0.5
169,20,0,1,3,6,106,150.0694953490747,150.84014332851802,"[51, 0, 203]",203,a,0.24724484868056607,colour,0.5
169,20,0,1,3,7,107,151.35084767524677,152.28799533056736,"[24, 0, 230]",230,a,0.4138095091911964,colour,0.5
169,20,0,1,3,8,108,152.80415326605726,153.56799912723363,"[2, 0, 252]",252,a,0.2409421274351189,colour,0.5
169,20,0,1,3,9,109,154.08712114946684,154.86405333939183,"[15, 0, 239]",239,a,0.25364760687807575,colour,0.5
169,20,0,1,3,10,110,155.38415603872272,156.03999941711663,"[93, 0, 161]",161,l,0.1325016876362497,colour,0.5
169,20,0,1,3,11,111,156.5561002448958,157.23999768418435,"[25, 0, 229]",229,a,0.16061403778439853,colour,0.5
169,20,0,1,3,12,112,157.7611255652737,158.29600025521358,"[68, 0, 186]",186,l,0.011948506973567419,colour,0.5
169,20,0,1,3,13,113,158.8081590760703,159.36795517400606,"[23, 0, 231]",231,a,0.036549324126099236,colour,0.5
169,20,0,1,3,14,114,159.88631313454243,160.8319576284557,"[22, 0, 232]",232,a,0.422318950862973,colour,0.5
169,20,0,1,3,15,115,161.3395773714874,161.87999505329935,"[80, 0, 174]",174,l,0.017095683375373483,colour,0.5
169,20,0,1,3,16,116,162.37496918153192,163.09596654197958,"[63, 0, 191]",191,l,0.19778445741394535,colour,0.5
169,20,0,1,3,17,117,163.60551573769771,164.2479880365281,"[12, 0, 242]",242,a,0.11923970347561408,colour,0.5
169,20,0,1,3,18,118,164.7619073500391,165.46402293445135,"[38, 0, 216]",216,a,0.17867109979852103,colour,0.5
169,20,0,1,3,19,119,166.00604553965968,166.91202105344564,"[32, 0, 222]",222,a,0.37661191416555084,colour,0.5
169,20,0,1,3,20,120,167.41845453163842,168.03997972479556,"[55, 0, 199]",199,l,0.09663411133806221,colour,0.5
169,20,0,1,3,21,121,168.56073896581074,169.11997068209166,"[75, 0, 179]",179,l,0.0450071719387779,colour,0.5
169,20,0,1,3,22,122,169.62977784709074,170.17599649004114,"[3, 0, 251]",251,a,0.02288640450569801,colour,0.5
169,20,0,1,3,23,123,170.68529007956386,171.2719673643296,"[96, 0, 158]",158,l,0.06331668939674273,colour,0.5
169,20,0,1,3,24,124,171.77918183959264,172.3760357171268,"[79, 0, 175]",175,l,0.07358780525100883,colour,0.5
169,20,0,1,3,25,125,172.88859547344327,173.46401269445778,"[6, 0, 248]",248,a,0.06540289288386703,colour,0.5
169,20,0,1,3,26,126,173.9753263212915,174.51230808858236,"[45, 0, 209]",209,a,0.013501442663255148,colour,0.5
169,20,0,1,3,27,127,175.01056492516364,176.04009945405414,"[53, 0, 201]",201,a,0.5061526658246294,colour,0.5
169,20,0,1,3,28,128,176.55761261442967,177.13597856216074,"[13, 0, 241]",241,a,0.05507624469464645,colour,0.5
169,20,0,1,3,29,129,177.65404507648782,178.26400221814401,"[70, 0, 184]",184,l,0.08661545089853462,colour,0.5
169,20,0,1,3,30,130,178.7667717448494,179.34397584620456,"[14, 0, 240]",240,a,0.05440158609417267,colour,0.5
169,20,0,1,3,31,131,179.85582274083572,180.43200205430912,"[91, 0, 163]",163,l,0.05304833044647239,colour,0.5
169,20,0,1,3,32,132,180.94961564546975,181.66400584153598,"[5, 0, 249]",249,a,0.19098548992769793,colour,0.5
169,20,0,1,3,33,133,182.18416683012038,182.71236031259468,"[16, 0, 238]",238,a,0.004914413279038854,colour,0.5
169,20,0,1,3,34,134,183.2310644639656,184.22399846873304,"[82, 0, 172]",172,l,0.4673733843519585,colour,0.5
169,20,0,1,3,35,135,184.73339603365457,185.44798906052893,"[94, 0, 160]",160,l,0.1915833484963514,colour,0.5
169,20,0,1,3,36,136,185.96761796285864,186.49601073152735,"[17, 0, 237]",237,a,0.005076677931356244,colour,0.5
169,20,0,1,3,37,137,187.01643835401046,187.84800568084756,"[73, 0, 181]",181,l,0.3083323684113566,colour,0.5
169,20,0,1,3,38,138,188.36031455711054,188.99200452765217,"[50, 0, 204]",204,a,0.1085223598201992,colour,0.5
169,20,0,1,3,39,139,189.50104054174153,190.48000915299053,"[9, 0, 245]",245,a,0.45573916667490266,colour,0.5
169,20,0,1,3,40,140,191.0011295509903,191.9120033303625,"[97, 0, 157]",157,l,0.3875726547848899,colour,0.5
169,20,0,1,3,41,141,192.4244539912761,193.2159805471456,"[1, 0, 253]",253,a,0.2681553266447736,colour,0.5
169,20,0,1,3,42,142,193.73710803438735,194.50400108387112,"[92, 0, 162]",162,l,0.243650214135414,colour,0.5
169,20,0,1,3,43,143,195.01837056361546,195.8400232054264,"[35, 0, 219]",219,a,0.2982085510302568,colour,0.5
169,20,0,1,3,44,144,196.34667684366286,197.2639797689044,"[47, 0, 207]",207,a,0.394332237643539,colour,0.5
169,20,0,1,3,45,145,197.7842624559853,198.9039743810863,"[59, 0, 195]",195,l,0.5967061851843027,colour,0.5
169,20,0,1,3,46,146,199.42506720985693,200.18396911930176,"[56, 0, 198]",198,l,0.2368500650918577,colour,0.5
169,20,0,1,3,47,147,200.69199609935458,201.5040014777187,"[87, 0, 167]",167,l,0.2886333614587784,colour,0.5
169,20,0,1,3,48,148,202.02027087168244,202.91202932421584,"[71, 0, 183]",183,l,0.3684986817970639,colour,0.5
169,20,0,1,3,49,149,203.42654255784873,203.98409176302084,"[36, 0, 218]",218,a,0.03420278827252332,colour,0.5
169,20,0,1,3,50,150,204.50478247478895,205.272071733576,"[41, 0, 213]",213,a,0.24514879904745612,colour,0.5
169,20,0,1,4,1,151,212.77518548189255,213.71200821406092,"[22, 0, 232]",232,a,0.41263624126440845,colour,0.5
169,20,0,1,4,2,152,214.22924292513926,215.33599179539306,"[52, 0, 202]",202,a,0.5842842750571435,colour,0.5
169,20,0,1,4,3,153,215.85420836514095,216.54400365173933,"[98, 0, 156]",156,l,0.17045231664087623,colour,0.5
169,20,0,1,4,4,154,217.0422636391013,217.98397557839053,"[6, 0, 248]",248,a,0.41841593470599037,colour,0.5
169,20,0,1,4,5,155,218.49553023911722,219.35200873394206,"[93, 0, 161]",161,l,0.3318363238067832,colour,0.5
169,20,0,1,4,6,156,219.8720559009671,220.85663012562145,"[77, 0, 177]",177,l,0.45941493354621343,colour,0.5
169,20,0,1,4,7,157,221.37388610439666,222.295999861366,"[78, 0, 176]",176,l,0.40114617129438557,colour,0.5
169,20,0,1,4,8,158,222.81585916374752,223.5119867100584,"[54, 0, 200]",200,a,0.1731812771758996,colour,0.5
169,20,0,1,4,9,159,224.0190377391409,224.8319907115365,"[2, 0, 252]",252,a,0.28967902320437133,colour,0.5
169,20,0,1,4,10,160,225.34720892991754,226.19199216089328,"[3, 0, 251]",251,a,0.33129596678190865,colour,0.5
169,20,0,1,4,11,161,226.71131504469668,227.54395914712222,"[1, 0, 253]",253,a,0.3093414024624508,colour,0.5
169,20,0,1,4,12,162,228.05514595548448,228.88804448257724,"[18, 0, 236]",236,a,0.3097517902351683,colour,0.5
169,20,0,1,4,13,163,229.3989815924142,230.20003331940097,"[70, 0, 184]",184,l,0.27787781473307405,colour,0.5
169,20,0,1,4,14,164,230.71168801707972,231.51205327006755,"[12, 0, 242]",242,a,0.277325248462148,colour,0.5
169,20,0,1,4,15,165,232.0243022817158,232.87205235633883,"[41, 0, 213]",213,a,0.3246222423767904,colour,0.5
169,20,0,1,4,16,166,233.3837649494235,234.28798942286812,"[31, 0, 223]",223,a,0.3782243206369458,colour,0.5
169,20,0,1,4,17,167,234.80836151303083,235.7679973943159,"[95, 0, 159]",159,l,0.4363579936180031,colour,0.5
169,20,0,1,4,18,168,236.2754595988663,236.90408308265614,"[33, 0, 221]",221,a,0.10527746073785238,colour,0.5
169,20,0,1,4,19,169,237.41626159581938,238.152001802242,"[42, 0, 212]",212,a,0.2128053588239709,colour,0.5
169,20,0,1,4,20,170,238.66632874660718,239.42401367118873,"[79, 0, 175]",175,l,0.23445114769856445,colour,0.5
169,20,0,1,4,21,171,239.93354081152938,240.8560389624181,"[62, 0, 192]",192,l,0.39920687244739383,colour,0.5
169,20,0,1,4,22,172,241.37113627001236,242.12801617290825,"[86, 0, 168]",168,l,0.23363549217174295,colour,0.5
169,20,0,1,4,23,173,242.63687141156697,243.3920006679691,"[67, 0, 187]",187,l,0.23177063025650568,colour,0.5
169,20,0,1,4,24,174,243.90259749467077,244.49600167306198,"[43, 0, 211]",211,a,0.07008729995868634,colour,0.5
169,20,0,1,4,25,175,245.01207178084587,245.760003891206,"[97, 0, 157]",157,l,0.22462783500668593,colour,0.5
169,20,0,1,4,26,176,246.27923973499855,246.9039661103161,"[91, 0, 163]",163,l,0.10153119536698796,colour,0.5
169,20,0,1,4,27,177,247.41989522114454,248.17614260700066,"[89, 0, 165]",165,l,0.23304669205390383,colour,0.5
169,20,0,1,4,28,178,248.68514041800518,249.58397943807358,"[94, 0, 160]",160,l,0.37588211709226016,colour,0.5
169,20,0,1,4,29,179,250.09141210415692,251.08004333883582,"[19, 0, 235]",235,a,0.4656684240035247,colour,0.5
169,20,0,1,4,30,180,251.59160036266258,252.37602035712916,"[9, 0, 245]",245,a,0.26110902373329736,colour,0.5
169,20,0,1,4,31,181,252.88852655036317,253.6320015029196,"[58, 0, 196]",196,a,0.21876937230990734,colour,0.5
169,20,0,1,4,32,182,254.14041208919662,254.96800117523526,"[15, 0, 239]",239,a,0.3045994938293006,colour,0.5
169,20,0,1,4,33,183,255.48402992916817,256.2480159996194,"[35, 0, 219]",219,a,0.24101971516211051,colour,0.5
169,20,0,1,4,34,184,256.7653397199465,257.53601684402383,"[39, 0, 215]",215,a,0.24736260871577542,colour,0.5
169,20,0,1,4,35,185,258.04803978792916,258.8080558883521,"[59, 0, 195]",195,a,0.23666653275722638,colour,0.5
169,20,0,1,4,36,186,259.32941810795455,260.1119945082173,"[63, 0, 191]",191,l,0.25995426658482756,colour,0.5
169,20,0,1,4,37,187,260.626404554132,261.2079905886494,"[0, 0, 254]",254,a,0.05821480530721601,colour,0.5
169,20,0,1,4,38,188,261.72026795722195,262.7040044709429,"[90, 0, 164]",164,l,0.4601171613758197,colour,0.5
169,20,0,1,4,39,189,263.22035932955623,263.8000194560009,"[47, 0, 207]",207,a,0.056382238792139105,colour,0.5
169,20,0,1,4,40,190,264.3142203695752,264.9200054980902,"[29, 0, 225]",225,a,0.08250251470599324,colour,0.5
169,20,0,1,4,41,191,265.4393016003596,266.4560199790285,"[44, 0, 210]",210,a,0.49355313103296794,colour,0.5
169,20,0,1,4,42,192,266.9720428252622,267.71997257255134,"[27, 0, 227]",227,a,0.22479482580092736,colour,0.5
169,20,0,1,4,43,193,268.23777757298376,268.8880035225593,"[28, 0, 226]",226,a,0.12715916350134648,colour,0.5
169,20,0,1,4,44,194,269.39405772683676,270.1999935409258,"[37, 0, 217]",217,a,0.28268982797453646,colour,0.5
169,20,0,1,4,45,195,270.706594797608,271.46401781446184,"[36, 0, 218]",218,a,0.2340931414946681,colour,0.5
169,20,0,1,4,46,196,271.9723921668774,272.680064527769,"[82, 0, 172]",172,l,0.18455595019622706,colour,0.5
169,20,0,1,4,47,197,273.1912127391988,273.9120305057586,"[65, 0, 189]",189,l,0.1975107342877891,colour,0.5
169,20,0,1,4,48,198,274.42570760383387,275.10402502972283,"[88, 0, 166]",166,l,0.15492807974806055,colour,0.5
169,20,0,1,4,49,199,275.61332216385927,276.2319907903002,"[84, 0, 170]",170,l,0.09533835723414086,colour,0.5
169,20,0,1,4,50,200,276.73840103155817,277.49597174074734,"[51, 0, 203]",203,a,0.23442791077832226,colour,0.5
169,20,0,1,5,1,201,282.2237629486772,283.08004097576486,"[99, 0, 155]",155,l,0.33257636087364517,colour,0.5
169,20,0,1,5,2,202,283.59969941656163,284.5599989287439,"[20, 0, 234]",234,a,0.43703186452330556,colour,0.5
169,20,0,1,5,3,203,285.0685879273515,286.15202031302033,"[77, 0, 177]",177,a,0.5601225964637706,colour,0.5
169,20,0,1,5,4,204,286.6624647212302,287.52800837474933,"[25, 0, 229]",229,a,0.3423421720362967,colour,0.5
169,20,0,1,5,5,205,288.03756899201835,289.01602836008533,"[73, 0, 181]",181,l,0.4552421327243792,colour,0.5
169,20,0,1,5,6,206,289.53768990280514,290.3280876953795,"[47, 0, 207]",207,a,0.26737629881245084,colour,0.5
169,20,0,1,5,7,207,290.8345641028136,292.00002205539204,"[0, 0, 254]",254,a,0.642167067999253,colour,0.5
169,20,0,1,5,8,208,292.5066437920759,293.47996819298714,"[54, 0, 200]",200,l,0.44997759014950134,colour,0.5
169,20,0,1,5,9,209,293.9923286631092,294.68803046164976,"[79, 0, 175]",175,l,0.1724164277984528,colour,0.5
169,20,0,1,5,10,210,295.1955686785077,295.93602046740125,"[38, 0, 216]",216,a,0.21712624582869466,colour,0.5
169,20,0,1,5,11,211,296.4456677308481,297.4641190329421,"[70, 0, 184]",184,l,0.49513206059054937,colour,0.5
169,20,0,1,5,12,212,297.9770332508633,298.8000237883098,"[7, 0, 247]",247,a,0.2989982127182884,colour,0.5
169,20,0,1,5,13,213,299.32174637720163,299.98403071686334,"[29, 0, 225]",225,a,0.1391852581873536,colour,0.5
169,20,0,1,5,14,214,300.4943605158187,301.3760550156003,"[46, 0, 208]",208,a,0.35844181828724686,colour,0.5
169,20,0,1,5,15,215,301.8849886296666,302.8240421068913,"[45, 0, 209]",209,a,0.4156956387887476,colour,0.5
169,20,0,1,5,16,216,303.3382753158512,304.064034277224,"[66, 0, 188]",188,l,0.20253030449384823,colour,0.5
169,20,0,1,5,17,217,304.5730072759179,305.1601276376896,"[28, 0, 226]",226,a,0.06432296651473735,colour,0.5
169,20,0,1,5,18,218,305.66841731316526,306.2240327333566,"[63, 0, 191]",191,l,0.03238321868411731,colour,0.5
169,20,0,1,5,19,219,306.73095418701996,309.48799635456817,"[22, 0, 232]",232,l,2.233784366049804,colour,0.5
169,20,0,1,5,20,220,309.9982170581061,310.5440989625349,"[68, 0, 186]",186,l,0.02259141368267592,colour,0.5
169,20,0,1,5,21,221,311.0544039491797,311.60002197662834,"[71, 0, 183]",183,l,0.022297604402410798,colour,0.5
169,20,0,1,5,22,222,312.1075743719557,313.1040029743308,"[36, 0, 218]",218,a,0.4730475270043826,colour,0.5
169,20,0,1,5,23,223,313.6227957411029,314.3440794277558,"[51, 0, 203]",203,a,0.19693217416352127,colour,0.5
169,20,0,1,5,24,224,314.8532438357215,315.480052869927,"[84, 0, 170]",170,l,0.10350357730931137,colour,0.5
169,20,0,1,5,25,225,315.9940493772883,316.5360550471087,"[72, 0, 182]",182,l,0.018778982164803892,colour,0.5
169,20,0,1,5,26,226,317.056466915732,317.59202807967085,"[58, 0, 196]",196,a,0.0122005685698241,colour,0.5
169,20,0,1,5,27,227,318.1034326849913,319.312002227598,"[93, 0, 161]",161,l,0.6962905986583792,colour,0.5
169,20,0,1,5,28,228,319.8272413198283,321.8080298945133,"[16, 0, 238]",238,l,1.4577186378301121,colour,0.5
169,20,0,1,5,29,229,322.3241961007734,323.0080592754384,"[97, 0, 157]",157,l,0.1608436501410324,colour,0.5
169,20,0,1,5,30,230,323.52748495311243,324.0880092727166,"[55, 0, 199]",199,a,0.04966361593687907,colour,0.5
169,20,0,1,5,31,231,324.6089394429873,325.1840380423964,"[4, 0, 250]",250,a,0.05184197943890467,colour,0.5
169,20,0,1,5,32,232,325.7027020214591,326.4399916189577,"[26, 0, 228]",228,a,0.21388292212213855,colour,0.5
169,20,0,1,5,33,233,326.95060301796184,327.5600103502802,"[27, 0, 227]",227,a,0.08606800464622211,colour,0.5
169,20,0,1,5,34,234,328.0756302918162,328.7200107756362,"[12, 0, 242]",242,a,0.12105927306402009,colour,0.5
169,20,0,1,5,35,235,329.2320380518504,329.9680315013975,"[5, 0, 249]",249,a,0.21260489110136405,colour,0.5
169,20,0,1,5,36,236,330.4820965380204,331.4880526745692,"[80, 0, 174]",174,l,0.48312644590623677,colour,0.5
169,20,0,1,5,37,237,331.997885045741,332.5285577902396,"[32, 0, 222]",222,a,0.007381859919405542,colour,0.5
169,20,0,1,5,38,238,333.04806460023974,333.7200304679427,"[40, 0, 214]",214,a,0.151709962185123,colour,0.5
169,20,0,1,5,39,239,334.23274933814537,335.0480756279285,"[19, 0, 235]",235,a,0.29203067904745694,colour,0.5
169,20,0,1,5,40,240,335.56097527354723,336.35197368162335,"[49, 0, 205]",205,a,0.26602461854054127,colour,0.5
169,20,0,1,5,41,241,336.8598143723939,337.65607141534565,"[10, 0, 244]",244,a,0.27315441686369013,colour,0.5
169,20,0,1,5,42,242,338.1723896462645,338.6960968263156,"[87, 0, 167]",167,l,0.002367015855270438,colour,0.5
169,20,0,1,5,43,243,339.21740115051216,339.91197773035674,"[41, 0, 213]",213,a,0.18378086079610512,colour,0.5
169,20,0,1,5,44,244,340.42382501885004,341.1600366592029,"[90, 0, 164]",164,l,0.21287113113794476,colour,0.5
169,20,0,1,5,45,245,341.6738988650177,342.4480327774654,"[67, 0, 187]",187,l,0.2507815878489055,colour,0.5
169,20,0,1,5,46,246,342.95535240967,343.7360407110973,"[60, 0, 194]",194,l,0.2576297861087369,colour,0.5
169,20,0,1,5,47,247,344.25217344042903,344.94407422898803,"[61, 0, 193]",193,a,0.16854098088515457,colour,0.5
169,20,0,1,5,48,248,345.4554122742993,346.1360514237167,"[88, 0, 166]",166,l,0.15741364330460783,colour,0.5
169,20,0,1,5,49,249,346.643069763566,347.3840445802489,"[78, 0, 176]",176,l,0.21768353825609665,colour,0.5
169,20,0,1,5,50,250,347.8946547977248,348.8800269548374,"[1, 0, 253]",253,a,0.4620895433035912,colour,0.5
169,20,0,1,6,1,251,355.5365229364252,356.1520801776496,"[76, 0, 178]",178,l,0.08872764825355262,colour,0.5
169,20,0,1,6,2,252,356.6656462110841,357.23206365185615,"[83, 0, 171]",171,l,0.04346880856610369,colour,0.5
169,20,0,1,6,3,253,357.7438628911041,358.6960180570604,"[4, 0, 250]",250,a,0.4288461644464405,colour,0.5
169,20,0,1,6,4,254,359.21272501420754,359.93605315663444,"[26, 0, 228]",228,a,0.20004395322757773,colour,0.5
169,20,0,1,6,5,255,360.4471619834512,361.0639870156738,"[63, 0, 191]",191,l,0.10248784786381293,colour,0.5
169,20,0,1,6,6,256,361.5749505132262,362.18411563010886,"[36, 0, 218]",218,a,0.08647524165280629,colour,0.5
169,20,0,1,6,7,257,362.7000695532479,363.4160213496216,"[45, 0, 209]",209,a,0.19265657948562875,colour,0.5
169,20,0,1,6,8,258,363.9220964277338,364.6480357706896,"[31, 0, 223]",223,a,0.20284341224760283,colour,0.5
169,20,0,1,6,9,259,365.15655033236544,365.99203603535716,"[21, 0, 233]",233,a,0.3143381295958534,colour,0.5
169,20,0,1,6,10,260,366.49824935350625,367.15204000532685,"[5, 0, 249]",249,a,0.13046313953236677,colour,0.5
169,20,0,1,6,11,261,367.67030147353944,368.48815822535835,"[3, 0, 251]",251,a,0.2945761072332971,colour,0.5
169,20,0,1,6,12,262,369.0014895264467,369.5680345733999,"[89, 0, 165]",165,l,0.04336207623418886,colour,0.5
169,20,0,1,6,13,263,370.0796231049171,370.75203323116875,"[88, 0, 166]",166,l,0.14919013399048708,colour,0.5
169,20,0,1,6,14,264,371.2671699233906,372.1761693885346,"[67, 0, 187]",187,l,0.3855585251440061,colour,0.5
169,20,0,1,6,15,265,372.68934275729407,373.3520075523993,"[16, 0, 238]",238,a,0.13970237827743404,colour,0.5
169,20,0,1,6,16,266,373.8734627196973,374.61601252746186,"[78, 0, 176]",176,l,0.21927270779269747,colour,0.5
169,20,0,1,6,17,267,375.1280098713614,375.8320352161536,"[37, 0, 217]",217,a,0.18087427561113145,colour,0.5
169,20,0,1,6,18,268,376.34678515137057,376.8960883980035,"[82, 0, 172]",172,l,0.025970614340621978,colour,0.5
169,20,0,1,6,19,269,377.40926058520563,378.52001053933054,"[6, 0, 248]",248,a,0.5880474758014316,colour,0.5
169,20,0,1,6,20,270,379.03446115140105,379.63200229061476,"[68, 0, 186]",186,l,0.07411201459763106,colour,0.5
169,20,0,1,6,21,271,380.14395591757784,380.6800046631397,"[22, 0, 232]",232,a,0.01266136864433065,colour,0.5
169,20,0,1,6,22,272,381.19096067760256,381.84801395161776,"[56, 0, 198]",198,l,0.13381792174186558,colour,0.5
169,20,0,1,6,23,273,382.36289976377157,382.9922093276982,"[77, 0, 177]",177,l,0.10585168853867799,colour,0.5
169,20,0,1,6,24,274,383.5035674591636,384.0480819294753,"[10, 0, 244]",244,a,0.01981991775392089,colour,0.5
169,20,0,1,6,25,275,384.5676048871683,385.09604885583394,"[8, 0, 246]",246,a,0.004992000976926647,colour,0.5
169,20,0,1,6,26,276,385.6146982625942,386.18427198706195,"[91, 0, 163]",163,l,0.041893817484378815,colour,0.5
169,20,0,1,6,27,277,386.6972267711535,387.2320065441454,"[46, 0, 208]",208,a,0.011391608393751085,colour,0.5
169,20,0,1,6,28,278,387.7442138080951,388.5200164470152,"[52, 0, 202]",202,l,0.2524715820181882,colour,0.5
169,20,0,1,6,29,279,389.0438878609566,389.6240639259777,"[60, 0, 194]",194,l,0.053965204482665285,colour,0.5
169,20,0,1,6,30,280,390.13649646996055,390.84802261623554,"[53, 0, 201]",201,l,0.18818642475525849,colour,0.5
169,20,0,1,6,31,281,391.35539699306537,391.9520567044092,"[74, 0, 180]",180,l,0.07360513450112194,colour,0.5
169,20,0,1,6,32,282,392.46483189461287,393.0879927311762,"[24, 0, 230]",230,a,0.09984317043563351,colour,0.5
169,20,0,1,6,33,283,393.6055507900164,394.2400748780492,"[69, 0, 185]",185,l,0.11138325885985978,colour,0.5
169,20,0,1,6,34,284,394.7339521445392,395.28001994437363,"[2, 0, 252]",252,a,0.02286986296530813,colour,0.5
169,20,0,1,6,35,285,395.7943244394992,396.4640079683013,"[38, 0, 216]",216,a,0.14641863806173205,colour,0.5
169,20,0,1,6,36,286,396.9819114302809,397.6240749536664,"[25, 0, 229]",229,a,0.11884861417638604,colour,0.5
169,20,0,1,6,37,287,398.1381833133637,398.76003539889643,"[57, 0, 197]",197,l,0.09861830864974763,colour,0.5
169,20,0,1,6,38,288,399.2789589226304,400.3599884524301,"[20, 0, 234]",234,a,0.5577449467527913,colour,0.5
169,20,0,1,6,39,289,400.87282468880585,401.58406805347477,"[18, 0, 236]",236,a,0.18836444323824253,colour,0.5
169,20,0,1,6,40,290,402.09304814139614,403.07202817418147,"[99, 0, 155]",155,l,0.4555867481685709,colour,0.5
169,20,0,1,6,41,291,403.59317929219105,404.36800046631834,"[11, 0, 243]",243,a,0.25162363109120633,colour,0.5
169,20,0,1,6,42,292,404.87342491046,405.6960641370679,"[70, 0, 184]",184,l,0.2993140773905907,colour,0.5
169,20,0,1,6,43,293,406.2172373104695,406.96002657675126,"[94, 0, 160]",160,a,0.21942473245144356,colour,0.5
169,20,0,1,6,44,294,407.4674013474287,408.1840222885512,"[27, 0, 227]",227,a,0.19101975453668274,colour,0.5
169,20,0,1,6,45,295,408.7041580709774,409.4000382818631,"[42, 0, 212]",212,a,0.17264249554136768,colour,0.5
169,20,0,1,6,46,296,409.9073457048362,410.6960464139993,"[58, 0, 196]",196,l,0.26525819377275184,colour,0.5
169,20,0,1,6,47,297,411.2043427848548,412.18398566084215,"[85, 0, 169]",169,l,0.45638152986066416,colour,0.5
169,20,0,1,6,48,298,412.70449402180384,413.5279989224364,"[62, 0, 192]",192,l,0.3002167729573557,colour,0.5
169,20,0,1,6,49,299,414.0496793697821,414.8320379730867,"[59, 0, 195]",195,l,0.2590113987098448,colour,0.5
169,20,0,1,6,50,300,415.334539290503,415.9521126305772,"[19, 0, 235]",235,a,0.09200287351268344,colour,0.5
169,20,0,1,7,1,301,422.44643809407717,423.0960232558282,"[33, 0, 221]",221,a,0.12544396315934137,colour,0.5
169,20,0,1,7,2,302,423.60466306061426,424.5599977472011,"[23, 0, 231]",231,a,0.43214305125002284,colour,0.5
169,20,0,1,7,3,303,425.07348934370384,425.9680393783201,"[24, 0, 230]",230,a,0.3713410700438544,colour,0.5
169,20,0,1,7,4,304,426.4798823345045,427.1280374406051,"[39, 0, 215]",215,a,0.12488509537070058,colour,0.5
169,20,0,1,7,5,305,427.63620069144235,428.3440569785307,"[55, 0, 199]",199,a,0.18461778404889628,colour,0.5
169,20,0,1,7,6,306,428.8551008206996,429.45600068056956,"[72, 0, 182]",182,l,0.07769247068790719,colour,0.5
169,20,0,1,7,7,307,429.9644990945526,430.95203425516956,"[78, 0, 176]",176,l,0.46107302617747337,colour,0.5
169,20,0,1,7,8,308,431.4677349351841,432.0640338833764,"[83, 0, 171]",171,l,0.07530694405431859,colour,0.5
169,20,0,1,7,9,309,432.57666177509236,433.1600697422982,"[6, 0, 248]",248,a,0.06016473800991662,colour,0.5
169,20,0,1,7,10,310,433.670486975112,434.4560759051965,"[93, 0, 161]",161,a,0.26225432856881525,colour,0.5
169,20,0,1,7,11,311,434.9688644861744,435.58405860117637,"[80, 0, 174]",174,l,0.09202217197162099,colour,0.5
169,20,0,1,7,12,312,436.09392917541845,436.8560058793373,"[89, 0, 165]",165,l,0.23875116085400805,colour,0.5
169,20,0,1,7,13,313,437.3753212800657,438.1200187313225,"[22, 0, 232]",232,a,0.22142350205103867,colour,0.5
169,20,0,1,7,14,314,438.6409796216176,439.36000381242775,"[31, 0, 223]",223,a,0.19555843849957455,colour,0.5
169,20,0,1,7,15,315,439.8754449477856,440.53600778555847,"[16, 0, 238]",238,a,0.13724162703147158,colour,0.5
169,20,0,1,7,16,316,441.0474391724274,441.73603559109324,"[30, 0, 224]",224,a,0.16525551561790053,colour,0.5
169,20,0,1,7,17,317,442.25064019704587,442.9040299134067,"[67, 0, 187]",187,l,0.12995074558421038,colour,0.5
169,20,0,1,7,18,318,443.4099864438176,444.14407879760256,"[49, 0, 205]",205,l,0.21086684767215047,colour,0.5
169,20,0,1,7,19,319,444.66027651156764,445.4240392711945,"[46, 0, 208]",208,a,0.24041161657078192,colour,0.5
169,20,0,1,7,20,320,445.94438064136193,446.48002451298817,"[99, 0, 155]",155,l,0.012341171663138084,colour,0.5
169,20,0,1,7,21,321,446.99131135828793,447.58405978270457,"[43, 0, 211]",211,a,0.06972771833534352,colour,0.5
169,20,0,1,7,22,322,448.1007801306114,448.712037752528,"[28, 0, 226]",226,a,0.08779344498179853,colour,0.5
169,20,0,1,7,23,323,449.22719138012326,449.82406337458815,"[40, 0, 214]",214,a,0.07224715268239379,colour,0.5
169,20,0,1,7,24,324,450.3379484234756,451.3441018769954,"[86, 0, 168]",168,l,0.48297127049590927,colour,0.5
169,20,0,1,7,25,325,451.8537428388954,452.42407747427933,"[10, 0, 244]",244,a,0.04737379394646268,colour,0.5
169,20,0,1,7,26,326,452.9334907930606,453.48008004530857,"[98, 0, 156]",156,l,0.023238503039465286,colour,0.5
169,20,0,1,7,27,327,453.9959965530579,454.6160345828539,"[91, 0, 163]",163,l,0.09671130520291626,colour,0.5
169,20,0,1,7,28,328,455.1367375038535,455.7680919174163,"[82, 0, 172]",172,l,0.10802847666491289,colour,0.5
169,20,0,1,7,29,329,456.27751193157746,457.24002210264734,"[94, 0, 160]",160,l,0.43920589571644086,colour,0.5
169,20,0,1,7,30,330,457.7463862639124,458.3521162539546,"[74, 0, 180]",180,l,0.0823898746893974,colour,0.5
169,20,0,1,7,31,331,458.87361750127457,459.79199483904813,"[19, 0, 235]",235,a,0.39508212088549044,colour,0.5
169,20,0,1,7,32,332,460.3111987812881,461.1360195221787,"[57, 0, 197]",197,a,0.3014959855354391,colour,0.5
169,20,0,1,7,33,333,461.6547437597037,462.3600302001287,"[29, 0, 225]",225,a,0.18209480508812703,colour,0.5
169,20,0,1,7,34,334,462.8735737843381,463.5040420438745,"[35, 0, 219]",219,a,0.10710057493997738,colour,0.5
169,20,0,1,7,35,335,464.0131162610487,464.592041076583,"[68, 0, 186]",186,l,0.05579737713560462,colour,0.5
169,20,0,1,7,36,336,465.1068918364326,465.7200966341188,"[75, 0, 179]",179,l,0.08980284845165443,colour,0.5
169,20,0,1,7,37,337,466.232006937993,466.7680202374031,"[27, 0, 227]",227,a,0.012762193291564472,colour,0.5
169,20,0,1,7,38,338,467.2789222949359,467.84803403777187,"[58, 0, 196]",196,l,0.04579840901715215,colour,0.5
169,20,0,1,7,39,339,468.35720868573117,469.59204028890235,"[2, 0, 252]",252,a,0.7115545031992951,colour,0.5
169,20,0,1,7,40,340,470.10728410728916,470.824045651505,"[14, 0, 240]",240,a,0.1933934657718055,colour,0.5
169,20,0,1,7,41,341,471.3433393906889,471.9680374090967,"[71, 0, 183]",183,l,0.10131379225640558,colour,0.5
169,20,0,1,7,42,342,472.4840334737819,473.10405693126086,"[44, 0, 210]",210,a,0.09673060366185382,colour,0.5
169,20,0,1,7,43,343,473.61213353593484,474.3040445644874,"[1, 0, 253]",253,a,0.17257790475559887,colour,0.5
169,20,0,1,7,44,344,474.8114311505633,475.5760595842148,"[97, 0, 157]",157,l,0.24142380138800945,colour,0.5
169,20,0,1,7,45,345,476.0926905290253,476.7361372034211,"[70, 0, 184]",184,l,0.12005693440733012,colour,0.5
169,20,0,1,7,46,346,477.2490856859804,477.8480375823856,"[88, 0, 166]",166,l,0.07569527644955087,colour,0.5
169,20,0,1,7,47,347,478.3584170059621,478.99203406611923,"[38, 0, 216]",216,a,0.11020723399997223,colour,0.5
169,20,0,1,7,48,348,479.49921112600714,480.1120358620683,"[77, 0, 177]",177,l,0.08819044198025949,colour,0.5
169,20,0,1,7,49,349,480.6257598278462,481.3520587524108,"[73, 0, 181]",181,l,0.2030186738265911,colour,0.5
169,20,0,1,7,50,350,481.86019128323824,482.48804991765064,"[3, 0, 251]",251,a,0.10454805751214735,colour,0.5
169,20,0,1,8,1,351,487.61366717315104,488.34404752621776,"[81, 0, 173]",173,l,0.2061698375182459,colour,0.5
169,20,0,1,8,2,352,488.8646189025749,489.42402981888154,"[53, 0, 201]",201,a,0.03622518866905011,colour,0.5
169,20,0,1,8,3,353,489.94277965642686,490.5920918827469,"[40, 0, 214]",214,a,0.1259610832639737,colour,0.5
169,20,0,1,8,4,354,491.0990692625928,491.7520533173374,"[50, 0, 204]",204,a,0.1296159763005562,colour,0.5
169,20,0,1,8,5,355,492.27108711800247,493.248097131931,"[55, 0, 199]",199,a,0.453885332448408,colour,0.5
169,20,0,1,8,6,356,493.7555798164831,494.3760404432833,"[6, 0, 248]",248,a,0.10645427326380741,colour,0.5
169,20,0,1,8,7,357,494.88699921467924,495.9360669412563,"[91, 0, 163]",163,l,0.5257886573817814,colour,0.5
169,20,0,1,8,8,358,496.4496416393231,497.176034693126,"[16, 0, 238]",238,a,0.2030686922953464,colour,0.5
169,20,0,1,8,9,359,497.6840896362555,498.2963669260498,"[88, 0, 166]",166,l,0.08897143905051053,colour,0.5
169,20,0,1,8,10,360,498.809256331675,499.3360205461795,"[34, 0, 220]",220,a,0.013203301074099727,colour,0.5
169,20,0,1,8,11,361,499.84685289292247,500.512019005444,"[70, 0, 184]",184,l,0.14180197253881488,colour,0.5
169,20,0,1,8,12,362,501.02936399348255,502.040089214046,"[9, 0, 245]",245,a,0.4877675298921531,colour,0.5
169,20,0,1,8,13,363,502.56077992581413,503.21609279332915,"[37, 0, 217]",217,a,0.13203025369148236,colour,0.5
169,20,0,1,8,14,364,503.7335681444529,504.4640615313838,"[20, 0, 234]",234,a,0.20707095769466832,colour,0.5
169,20,0,1,8,15,365,504.9839365876105,505.61606490901613,"[7, 0, 247]",247,a,0.10894810760510154,colour,0.5
169,20,0,1,8,16,366,506.1272958281479,506.80807400528283,"[24, 0, 230]",230,a,0.1574010402255226,colour,0.5
169,20,0,1,8,17,367,507.3148662773892,507.9280734381464,"[96, 0, 158]",158,l,0.08991233770211693,colour,0.5
169,20,0,1,8,18,368,508.4398730712419,509.09606776045985,"[28, 0, 226]",226,a,0.13293255541066173,colour,0.5
169,20,0,1,8,19,369,509.61184957280057,510.1920795947517,"[76, 0, 178]",178,l,0.0554724539979361,colour,0.5
169,20,0,1,8,20,370,510.7072170746542,511.2960022244515,"[41, 0, 213]",213,a,0.06540722519275732,colour,0.5
169,20,0,1,8,21,371,511.81666773006145,512.3520603277866,"[48, 0, 206]",206,a,0.012050906982040033,colour,0.5
169,20,0,1,8,22,372,512.8636323177634,513.4320571927819,"[64, 0, 190]",190,l,0.04508475965121761,colour,0.5
169,20,0,1,8,23,373,513.9418198531639,514.520066071651,"[29, 0, 225]",225,a,0.05486908157763537,colour,0.5
169,20,0,1,8,24,374,515.0359286224557,515.5920907012187,"[4, 0, 250]",250,a,0.03309174806054216,colour,0.5
169,20,0,1,8,25,375,516.0998876750527,517.2960246736766,"[23, 0, 231]",231,a,0.6728465078776935,colour,0.5
169,20,0,1,8,26,376,517.8032048843306,518.3520749001036,"[97, 0, 157]",157,l,0.031723526248242706,colour,0.5
169,20,0,1,8,27,377,518.8494475518964,519.6806466324924,"[63, 0, 191]",191,l,0.30819452222203836,colour,0.5
169,20,0,1,8,28,378,520.1932863396069,521.1520530022535,"[99, 0, 155]",155,l,0.4354194580519106,colour,0.5
169,20,0,1,8,29,379,521.6620913549996,522.6640046599932,"[1, 0, 253]",253,a,0.4785460142447846,colour,0.5
169,20,0,1,8,30,380,523.1779527242761,523.976015552209,"[65, 0, 189]",189,l,0.27476524795929436,colour,0.5
169,20,0,1,8,31,381,524.4906150381576,525.3360634754063,"[45, 0, 209]",209,l,0.32081335547263734,colour,0.5
169,20,0,1,8,32,382,525.851411663054,526.8880397564208,"[77, 0, 177]",177,l,0.5133186980092432,colour,0.5
169,20,0,1,8,33,383,527.3984428107797,528.0080726662127,"[93, 0, 161]",161,l,0.08635039239015896,colour,0.5
169,20,0,1,8,34,384,528.5235311307915,529.2400744842016,"[42, 0, 212]",212,a,0.19320875189441722,colour,0.5
169,20,0,1,8,35,385,529.7580441123573,530.4960824115406,"[22, 0, 232]",232,a,0.2146422576479381,colour,0.5
169,20,0,1,8,36,386,531.0081140200637,531.7280665064463,"[46, 0, 208]",208,a,0.1966533310333034,colour,0.5
169,20,0,1,8,37,387,532.2424537092884,533.2160794025549,"[58, 0, 196]",196,l,0.4502032640448306,colour,0.5
169,20,0,1,8,38,388,533.7270641677896,534.6960192386032,"[75, 0, 179]",179,l,0.4456074723711936,colour,0.5
169,20,0,1,8,39,389,535.211604521668,536.1920697485912,"[87, 0, 167]",167,l,0.4572196346416604,colour,0.5
169,20,0,1,8,40,390,536.7116494201473,537.4880672468862,"[66, 0, 188]",188,l,0.2532513975602342,colour,0.5
169,20,0,1,8,41,391,538.0087020324863,538.7360651295603,"[39, 0, 215]",215,a,0.2041001755715115,colour,0.5
169,20,0,1,8,42,392,539.2444209712121,540.1441075483744,"[79, 0, 175]",175,l,0.3764035695057828,colour,0.5
169,20,0,1,8,43,393,540.6507576419972,541.2160738887032,"[3, 0, 251]",251,a,0.04192256825626828,colour,0.5
169,20,0,1,8,44,394,541.7288569558441,542.3920550187468,"[60, 0, 194]",194,l,0.13971891981782392,colour,0.5
169,20,0,1,8,45,395,542.900973666663,543.4961414884747,"[44, 0, 210]",210,a,0.07260949122428428,colour,0.5
169,20,0,1,8,46,396,544.0103676081926,544.6561017415079,"[86, 0, 168]",168,l,0.12228886100638192,colour,0.5
169,20,0,1,8,47,397,545.1667466174549,545.7120617771434,"[5, 0, 249]",249,a,0.02200930894468911,colour,0.5
169,20,0,1,8,48,398,546.229341386701,547.2881252998195,"[82, 0, 172]",172,l,0.5355647085380042,colour,0.5
169,20,0,1,8,49,399,547.8075840605743,548.8320970500208,"[36, 0, 218]",218,a,0.5012205294769956,colour,0.5
169,20,0,1,8,50,400,549.3412331010477,550.2721067858947,"[71, 0, 183]",183,l,0.40758516333880834,colour,0.5
169,20,0,1,9,1,401,555.1547831443313,555.720075366422,"[84, 0, 170]",170,l,0.04136212507728487,colour,0.5
169,20,0,1,9,2,402,556.2337985445047,556.880314856433,"[66, 0, 188]",188,l,0.12320337195706088,colour,0.5
169,20,0,1,9,3,403,557.3901625876024,558.0800799665449,"[34, 0, 220]",220,a,0.16774580534547567,colour,0.5
169,20,0,1,9,4,404,558.5925192059076,559.1360963221814,"[65, 0, 189]",189,l,0.01953871153818909,colour,0.5
169,20,0,1,9,5,405,559.6557019875909,560.3920392649015,"[47, 0, 207]",207,a,0.2132381958363112,colour,0.5
169,20,0,1,9,6,406,560.9073744556081,561.5842929396749,"[30, 0, 224]",224,a,0.15365595641196705,colour,0.5
169,20,0,1,9,7,407,562.097369816096,562.7200796987308,"[60, 0, 194]",194,l,0.09939379188290332,colour,0.5
169,20,0,1,9,8,408,563.2381154930481,563.7921732513787,"[61, 0, 193]",193,l,0.03059161217242945,colour,0.5
169,20,0,1,9,9,409,564.3030059919838,564.9680653721734,"[28, 0, 226]",226,l,0.14205639720603358,colour,0.5
169,20,0,1,9,10,410,565.4750151827757,566.1681203531043,"[39, 0, 215]",215,a,0.16831688236561604,colour,0.5
169,20,0,1,9,11,411,566.6796537461487,567.3120207383763,"[31, 0, 223]",223,a,0.1090434184006881,colour,0.5
169,20,0,1,9,12,412,567.820359250778,568.4800485376181,"[51, 0, 203]",203,l,0.1363444453163538,colour,0.5
169,20,0,1,9,13,413,568.9923873461958,570.0000858584826,"[73, 0, 181]",181,l,0.4844525261723902,colour,0.5
169,20,0,1,9,14,414,570.5095212326414,571.1440748591413,"[57, 0, 197]",197,l,0.1112406865140656,colour,0.5
169,20,0,1,9,15,415,571.6657781495742,572.3280676092254,"[81, 0, 173]",173,l,0.13894422429439146,colour,0.5
169,20,0,1,9,16,416,572.8378322388307,573.3761578094563,"[79, 0, 175]",175,l,0.015068162960233167,colour,0.5
169,20,0,1,9,17,417,573.8846928511484,574.4640532606136,"[4, 0, 250]",250,a,0.055975789480726235,colour,0.5
169,20,0,1,9,18,418,574.9785219896148,575.5200893085712,"[43, 0, 211]",211,a,0.018171671268646605,colour,0.5
169,20,0,1,9,19,419,576.0269473530061,576.6480983922374,"[7, 0, 247]",247,a,0.0977707515557995,colour,0.5
169,20,0,1,9,20,420,577.1677170545736,578.1360691467999,"[13, 0, 241]",241,a,0.44539991540659685,colour,0.5
169,20,0,1,9,21,421,578.6521487068821,579.3440884862212,"[46, 0, 208]",208,a,0.168622507044347,colour,0.5
169,20,0,1,9,22,422,579.8553906915331,580.4480552266905,"[54, 0, 200]",200,l,0.06943233366473578,colour,0.5
169,20,0,1,9,23,423,580.9648161407677,581.9680468614097,"[11, 0, 243]",243,a,0.47983743603981566,colour,0.5
169,20,0,1,9,24,424,582.4819838979893,583.0881293958228,"[76, 0, 178]",178,l,0.08278647784027271,colour,0.5
169,20,0,1,9,25,425,583.6070875780133,584.1601378776977,"[40, 0, 214]",214,a,0.02972554431471508,colour,0.5
169,20,0,1,9,26,426,584.6688367594033,585.2480805903906,"[62, 0, 192]",192,l,0.05623730337538291,colour,0.5
169,20,0,1,9,27,427,585.7596671526699,586.7520470157906,"[8, 0, 246]",246,a,0.4689440431102412,colour,0.5
169,20,0,1,9,28,428,587.259787275776,587.8001336714078,"[59, 0, 195]",195,l,0.0169538987101987,colour,0.5
169,20,0,1,9,29,429,588.3066939680866,588.8560818916594,"[63, 0, 191]",191,l,0.03687621648714412,colour,0.5
169,20,0,1,9,30,430,589.3741897598375,589.9125787397061,"[50, 0, 204]",204,a,0.015066587584442459,colour,0.5
169,20,0,1,9,31,431,590.4211484398547,591.072086463435,"[21, 0, 233]",233,a,0.13190697983372957,colour,0.5
169,20,0,1,9,32,432,591.5892936052842,592.4641615683358,"[86, 0, 168]",168,l,0.35213240166194737,colour,0.5
169,20,0,1,9,33,433,592.9799792206759,593.5360857671039,"[15, 0, 239]",239,a,0.0327876987576019,colour,0.5
169,20,0,1,9,34,434,594.0426307037851,594.5921005473647,"[2, 0, 252]",252,a,0.026110429753316566,colour,0.5
169,20,0,1,9,35,435,595.1051982976351,595.6640830353863,"[96, 0, 158]",158,l,0.03569389009498991,colour,0.5
169,20,0,1,9,36,436,596.18335353765,596.7201730402885,"[16, 0, 238]",238,a,0.013363202640903182,colour,0.5
169,20,0,1,9,37,437,597.2304276146169,597.7760606082156,"[82, 0, 172]",172,l,0.022342502867104486,colour,0.5
169,20,0,1,9,38,438,598.2929577930772,598.9280765889125,"[25, 0, 229]",229,a,0.11169045891438145,colour,0.5
169,20,0,1,9,39,439,599.449317503866,600.3680705709412,"[88, 0, 166]",166,l,0.39406520989723504,colour,0.5
169,20,0,1,9,40,440,600.8883713749383,601.6640877615428,"[58, 0, 196]",196,l,0.2508312124700751,colour,0.5
169,20,0,1,9,41,441,602.1714463845274,602.888057873337,"[94, 0, 160]",160,l,0.19546155232819729,colour,0.5
169,20,0,1,9,42,442,603.4036600918043,604.0560856725788,"[5, 0, 249]",249,a,0.12968686860403977,colour,0.5
169,20,0,1,9,43,443,604.5756523472082,605.1840549777844,"[77, 0, 177]",177,l,0.08270140705280937,colour,0.5
169,20,0,1,9,44,444,605.7031427353941,606.5280804486101,"[91, 0, 163]",163,l,0.3019091302267043,colour,0.5
169,20,0,1,9,45,445,607.0469744338625,607.6160779059428,"[53, 0, 201]",201,a,0.046576649183407426,colour,0.5
169,20,0,1,9,46,446,608.1252143508173,609.3440825785365,"[24, 0, 230]",230,a,0.6955864016053965,colour,0.5
169,20,0,1,9,47,447,609.8597970431583,610.6320660937054,"[45, 0, 209]",209,a,0.2490833228948759,colour,0.5
169,20,0,1,9,48,448,611.1410331847001,611.9840724645619,"[6, 0, 248]",248,a,0.31252998154377565,colour,0.5
169,20,0,1,9,49,449,612.4921600969246,613.1200848974986,"[36, 0, 218]",218,a,0.10469417447166052,colour,0.5
169,20,0,1,9,50,450,613.6328313369304,614.2320490795391,"[38, 0, 216]",216,a,0.07608439651085064,colour,0.5
169,20,0,1,10,1,451,618.6324611214659,619.1601150346105,"[92, 0, 162]",162,l,0.0035820314806187525,colour,0.5
169,20,0,1,10,2,452,619.6802456970327,620.5840964104136,"[7, 0, 247]",247,a,0.38064726266020443,colour,0.5
169,20,0,1,10,3,453,621.1035945557815,621.864044674774,"[35, 0, 219]",219,l,0.2372124036483001,colour,0.5
169,20,0,1,10,4,454,622.384907891188,623.7760724235995,"[45, 0, 209]",209,l,0.86792248475831,colour,0.5
169,20,0,1,10,5,455,624.291131528109,624.8880665379547,"[83, 0, 171]",171,l,0.07353109140240122,colour,0.5
169,20,0,1,10,6,456,625.4007294819894,626.0320827140094,"[5, 0, 249]",249,a,0.10827778131351806,colour,0.5
169,20,0,1,10,7,457,626.5414692512422,627.1840959377878,"[71, 0, 183]",183,l,0.11932713733403943,colour,0.5
169,20,0,1,10,8,458,627.6977868204849,628.2400941765081,"[61, 0, 193]",193,l,0.018930612946860492,colour,0.5
169,20,0,1,10,9,459,628.7604284574481,629.3200945861172,"[23, 0, 231]",231,a,0.03641226563195232,colour,0.5
169,20,0,1,10,10,460,629.8386664051504,630.5361487824994,"[41, 0, 213]",213,a,0.17510560985829215,colour,0.5
169,20,0,1,10,11,461,631.0450875165698,631.9040271564882,"[94, 0, 160]",160,l,0.3363517708494328,colour,0.5
169,20,0,1,10,12,462,632.4202327473758,633.0560573156545,"[42, 0, 212]",212,a,0.11458562256302685,colour,0.5
169,20,0,1,10,13,463,633.5748528393597,634.1601733238494,"[80, 0, 174]",174,l,0.06237500304996502,colour,0.5
169,20,0,1,10,14,464,634.6687453870836,635.3121975753311,"[22, 0, 232]",232,a,0.12057011605065782,colour,0.5
169,20,0,1,10,15,465,635.8251275471121,636.7441090450011,"[36, 0, 218]",218,a,0.39576505024160724,colour,0.5
169,20,0,1,10,16,466,637.2626430547971,637.8000966498657,"[13, 0, 241]",241,a,0.014088273543165997,colour,0.5
169,20,0,1,10,17,467,638.3095863748167,638.968140990648,"[81, 0, 173]",173,l,0.13516093738144264,colour,0.5
169,20,0,1,10,18,468,639.4815479102108,640.4400743266597,"[82, 0, 172]",172,l,0.43513903953135014,colour,0.5
169,20,0,1,10,19,469,640.9504714733193,641.8640651547757,"[73, 0, 181]",181,l,0.3903063414763892,colour,0.5
169,20,0,1,10,20,470,642.3754177723895,643.1120823359233,"[70, 0, 184]",184,l,0.2137513774796389,colour,0.5
169,20,0,1,10,21,471,643.6255227324145,644.3521363401087,"[55, 0, 199]",199,l,0.2053541819768725,colour,0.5
169,20,0,1,10,22,472,644.8583331167174,645.5680948318768,"[60, 0, 194]",194,l,0.1865236059675226,colour,0.5
169,20,0,1,10,23,473,646.0771249382669,646.6560958338232,"[32, 0, 222]",222,a,0.05548742016253527,colour,0.5
169,20,0,1,10,24,474,647.1711419413914,647.8081500176049,"[85, 0, 169]",169,l,0.11178380047203973,colour,0.5
169,20,0,1,10,25,475,648.3295791910641,648.8722634579317,"[97, 0, 157]",157,l,0.019326822279253975,colour,0.5
169,20,0,1,10,26,476,649.392173172615,650.3040807983489,"[37, 0, 217]",217,a,0.38861831653048284,colour,0.5
169,20,0,1,10,27,477,650.814109698782,651.4160890911735,"[39, 0, 215]",215,l,0.07868732626957353,colour,0.5
169,20,0,1,10,28,478,651.9112755025271,652.4401141051349,"[34, 0, 220]",220,a,0.003936099237762392,colour,0.5
169,20,0,1,10,29,479,652.9597737274598,653.5120851716201,"[19, 0, 235]",235,a,0.028847661073086783,colour,0.5
169,20,0,1,10,30,480,654.0223728290293,654.7200722156413,"[58, 0, 196]",196,l,0.1744825451169163,colour,0.5
169,20,0,1,10,31,481,655.241302102906,655.8561303347524,"[10, 0, 244]",244,a,0.09157397496164776,colour,0.5
169,20,0,1,10,32,482,656.3664238998463,656.9760848691367,"[17, 0, 237]",237,a,0.08642798008804675,colour,0.5
169,20,0,1,10,33,483,657.4914657460176,658.4641237590986,"[76, 0, 178]",178,l,0.4494750423618825,colour,0.5
169,20,0,1,10,34,484,658.9931277771102,659.528391587126,"[68, 0, 186]",186,l,0.013520347274607047,colour,0.5
169,20,0,1,10,35,485,660.0385465183645,660.9440895889857,"[87, 0, 167]",167,l,0.38235104143677745,colour,0.5
169,20,0,1,10,36,486,661.4605452722317,661.9921388292278,"[30, 0, 224]",224,a,0.008232961627072655,colour,0.5
169,20,0,1,10,37,487,662.5074559030036,663.1760626562173,"[67, 0, 187]",187,l,0.14525718553340994,colour,0.5
169,20,0,1,10,38,488,663.6951374168857,664.3281195969321,"[21, 0, 233]",233,a,0.10971374469227158,colour,0.5
169,20,0,1,10,39,489,664.8358921523031,665.3680957770994,"[95, 0, 159]",159,l,0.007121527552953921,colour,0.5
169,20,0,1,10,40,490,665.8846026603569,666.5041381423507,"[64, 0, 190]",190,l,0.09621033279108815,colour,0.5
169,20,0,1,10,41,491,667.0253806326946,667.608160808988,"[91, 0, 163]",163,l,0.05949401785619557,colour,0.5
169,20,0,1,10,42,492,668.1191506942414,668.6640806723153,"[47, 0, 207]",207,a,0.021917542777373455,colour,0.5
169,20,0,1,10,43,493,669.181701746551,669.8401712916093,"[14, 0, 240]",240,a,0.1351243096869439,colour,0.5
169,20,0,1,10,44,494,670.3535770296294,670.8961801641708,"[0, 0, 254]",254,a,0.019696250034030527,colour,0.5
169,20,0,1,10,45,495,671.4163765989215,672.0960799696913,"[46, 0, 208]",208,l,0.15352519946463872,colour,0.5
169,20,0,1,10,46,496,672.6067524148675,673.2080799917458,"[84, 0, 170]",170,l,0.07793744304217398,colour,0.5
169,20,0,1,10,47,497,673.7162625410565,674.3201272753504,"[6, 0, 248]",248,a,0.0938787631021114,colour,0.5
169,20,0,1,10,48,498,674.8241441130667,675.5440938425309,"[31, 0, 223]",223,a,0.19664702948648483,colour,0.5
169,20,0,1,10,49,499,676.0585830515338,676.6561324615177,"[86, 0, 168]",168,l,0.07420338691736106,colour,0.5
169,20,0,1,10,50,500,677.1679958977038,677.8401027623622,"[51, 0, 203]",203,l,0.14867616466654,colour,0.5
169,20,0,1,11,1,501,682.3096986209857,682.8801250225515,"[92, 0, 162]",162,l,0.04628480911196675,colour,0.5
169,20,0,1,11,2,502,683.3887632519472,683.9283656720509,"[46, 0, 208]",208,a,0.01481531368335709,colour,0.5
169,20,0,1,11,3,503,684.4372087014781,685.040123084822,"[69, 0, 185]",185,a,0.07959789874439593,colour,0.5
169,20,0,1,11,4,504,685.546698741513,686.1921611209254,"[31, 0, 223]",223,l,0.12224553791747894,colour,0.5
169,20,0,1,11,5,505,686.7030025261338,687.3200930107269,"[20, 0, 234]",234,a,0.093851193858427,colour,0.5
169,20,0,1,11,6,506,687.8281932461687,688.4001131126424,"[30, 0, 224]",224,a,0.04872704959416296,colour,0.5
169,20,0,1,11,7,507,688.9219136830943,689.6001054720255,"[67, 0, 187]",187,l,0.15503402438480407,colour,0.5
169,20,0,1,11,8,508,690.1108980403078,690.6560855938151,"[74, 0, 180]",180,l,0.021865948918275535,colour,0.5
169,20,0,1,11,9,509,691.1734290064633,691.7441058942204,"[24, 0, 230]",230,a,0.047455713953240775,colour,0.5
169,20,0,1,11,10,510,692.2516799511068,692.8160923207033,"[60, 0, 194]",194,l,0.041112032704404555,colour,0.5
169,20,0,1,11,11,511,693.329847006491,694.3040918260376,"[88, 0, 166]",166,l,0.45101655650069006,colour,0.5
169,20,0,1,11,12,512,694.8145031511667,695.4080542341981,"[79, 0, 175]",175,l,0.07022829689958598,colour,0.5
169,20,0,1,11,13,513,695.9254358499311,696.6320948444773,"[39, 0, 215]",215,a,0.18329761148197576,colour,0.5
169,20,0,1,11,14,514,697.1442501207202,697.7121468479309,"[21, 0, 233]",233,l,0.044454211834818125,colour,0.5
169,20,0,1,11,15,515,698.2224782222765,698.8240992145875,"[9, 0, 245]",245,a,0.07853293853986543,colour,0.5
169,20,0,1,11,16,516,699.331905640749,700.1600583207473,"[80, 0, 174]",174,a,0.30482516771007795,colour,0.5
169,20,0,1,11,17,517,700.6758291053993,701.2081225271395,"[10, 0, 244]",244,a,0.009025380233651958,colour,0.5
169,20,0,1,11,18,518,701.7227606100205,702.4241007112141,"[15, 0, 239]",239,a,0.17822172126034275,colour,0.5
169,20,0,1,11,19,519,702.9416378962051,703.8721602702135,"[72, 0, 182]",182,l,0.40719368019199464,colour,0.5
169,20,0,1,11,20,520,704.3792073608347,704.9761270106828,"[77, 0, 177]",177,l,0.07383986684726551,colour,0.5
169,20,0,1,11,21,521,705.4886674685404,706.0640634218435,"[29, 0, 225]",225,a,0.0522220410493901,colour,0.5
169,20,0,1,11,22,522,706.5826403608953,707.5041188438918,"[57, 0, 197]",197,l,0.39841878614970483,colour,0.5
169,20,0,1,11,23,523,708.0215382688621,708.5841145273298,"[75, 0, 179]",179,l,0.0514363178081112,colour,0.5
169,20,0,1,11,24,524,709.1031329679972,709.9280683181423,"[61, 0, 193]",193,l,0.3016019301576307,colour,0.5
169,20,0,1,11,25,525,710.4470194111054,711.5360857671039,"[50, 0, 204]",204,l,0.5658475452655694,colour,0.5
169,20,0,1,11,26,526,712.0565689219075,712.6562710953876,"[44, 0, 210]",210,l,0.07702490131487139,colour,0.5
169,20,0,1,11,27,527,713.1666910851345,713.8400984300533,"[42, 0, 212]",212,a,0.15076276200124994,colour,0.5
169,20,0,1,11,28,528,714.353538432697,714.9121187273122,"[53, 0, 201]",201,a,0.03524529925198294,colour,0.5
169,20,0,1,11,29,529,715.4318007988768,716.0320555386279,"[87, 0, 167]",167,l,0.0769878797873389,colour,0.5
169,20,0,1,11,30,530,716.5412475158228,717.1761083423771,"[70, 0, 184]",184,l,0.10897173838748131,colour,0.5
169,20,0,1,11,31,531,717.6844996301807,718.4800674422295,"[83, 0, 171]",171,l,0.27225487207761034,colour,0.5
169,20,0,1,11,32,532,718.9972415009979,719.5282474394044,"[0, 0, 254]",254,a,0.007887558473157696,colour,0.5
169,20,0,1,11,33,533,720.0596960609837,720.656082443049,"[45, 0, 209]",209,a,0.0730706851609284,colour,0.5
169,20,0,1,11,34,534,721.169809559593,721.7041391663515,"[40, 0, 214]",214,a,0.011704716147505678,colour,0.5
169,20,0,1,11,35,535,722.2160557717871,723.1520360668655,"[63, 0, 191]",191,l,0.41258622278110124,colour,0.5
169,20,0,1,11,36,536,723.6693515164225,724.2480987073213,"[26, 0, 228]",228,a,0.05535942013375461,colour,0.5
169,20,0,1,11,37,537,724.7632023164479,725.3760912494472,"[28, 0, 226]",226,a,0.08968902689230163,colour,0.5
169,20,0,1,11,38,538,725.8882098979957,726.4481351774884,"[59, 0, 195]",195,l,0.036576105674612336,colour,0.5
169,20,0,1,11,39,539,726.9664710826328,727.5680924687913,"[98, 0, 156]",156,a,0.07832301848975476,colour,0.5
169,20,0,1,11,40,540,728.075948519574,728.6161007490155,"[6, 0, 248]",248,a,0.017326477260212414,colour,0.5
169,20,0,1,11,41,541,729.1236578705139,729.8721007994318,"[11, 0, 243]",243,a,0.22517764434451237,colour,0.5
169,20,0,1,11,42,542,730.3893473259086,731.0481035910198,"[49, 0, 205]",205,a,0.13558589747117367,colour,0.5
169,20,0,1,11,43,543,731.5613683320844,732.3601274801476,"[93, 0, 161]",161,l,0.2756435250485083,colour,0.5
169,20,0,1,11,44,544,732.8737506212929,733.4241113450553,"[85, 0, 169]",169,l,0.027093469951068982,colour,0.5
169,20,0,1,11,45,545,733.9363662643882,734.6721127723577,"[3, 0, 251]",251,a,0.2124449895345606,colour,0.5
169,20,0,1,11,46,546,735.1877524062002,735.7361305080412,"[76, 0, 178]",178,l,0.025043106463272125,colour,0.5
169,20,0,1,11,47,547,736.2503172431461,736.7840950713289,"[8, 0, 246]",246,a,0.019390625355299562,colour,0.5
169,20,0,1,11,48,548,737.3054064847529,737.8640746070887,"[36, 0, 218]",218,a,0.04770816939708311,colour,0.5
169,20,0,1,11,49,549,738.3587529568031,739.0640842956927,"[62, 0, 192]",192,a,0.18189079273724928,colour,0.5
169,20,0,1,11,50,550,739.577619609132,740.2962082060258,"[27, 0, 227]",227,l,0.20827691485465039,colour,0.5
169,20,0,1,12,1,551,747.3198574906855,748.2560969365877,"[50, 0, 204]",204,a,0.412000967291533,colour,0.5
169,20,0,1,12,2,552,748.7739747985761,749.3841079894919,"[84, 0, 170]",170,l,0.0868864171061432,colour,0.5
169,20,0,1,12,3,553,749.8990150693426,750.48808575765,"[28, 0, 226]",226,a,0.06570339754398447,colour,0.5
169,20,0,1,12,4,554,751.0084708447539,751.9521358674974,"[1, 0, 253]",253,a,0.420377682778053,colour,0.5
169,20,0,1,12,5,555,752.4617374447698,753.4480863405479,"[6, 0, 248]",248,a,0.46160432475153357,colour,0.5
169,20,0,1,12,6,556,753.9632179127657,754.576092273448,"[70, 0, 184]",184,l,0.08954724224167876,colour,0.5
169,20,0,1,12,7,557,755.0883038697066,755.8401043377526,"[42, 0, 212]",212,a,0.22860962040431332,colour,0.5
169,20,0,1,12,8,558,756.3540236512636,757.0641114710888,"[19, 0, 235]",235,a,0.1867201352288248,colour,0.5
169,20,0,1,12,9,559,757.5756204456702,758.2241284379852,"[52, 0, 202]",202,l,0.1251635446533328,colour,0.5
169,20,0,1,12,10,560,758.731960464138,759.3441168431455,"[92, 0, 162]",162,l,0.0887879067013273,colour,0.5
169,20,0,1,12,11,561,759.8570149133884,760.4401641236036,"[29, 0, 225]",225,a,0.059780737923574634,colour,0.5
169,20,0,1,12,12,562,760.9508074241603,761.6161401336431,"[51, 0, 203]",203,a,0.14183860023331363,colour,0.5
169,20,0,1,12,13,563,762.1242840860214,763.0560651925771,"[10, 0, 244]",244,a,0.40850518812658265,colour,0.5
169,20,0,1,12,14,564,763.5774923967983,764.2321140641725,"[73, 0, 181]",181,l,0.13232366913871374,colour,0.5
169,20,0,1,12,15,565,764.7491487013758,765.4080814095942,"[97, 0, 157]",157,l,0.1358296882826835,colour,0.5
169,20,0,1,12,16,566,765.9208487228752,766.4801048576192,"[72, 0, 182]",182,l,0.03591680707177147,colour,0.5
169,20,0,1,12,17,567,766.9991099075269,767.7041210494353,"[3, 0, 251]",251,a,0.18169426347594708,colour,0.5
169,20,0,1,12,18,568,768.2179895567824,768.8641065086267,"[98, 0, 156]",156,l,0.12318643656908534,colour,0.5
169,20,0,1,12,19,569,769.3742897967895,770.0401010294445,"[64, 0, 190]",190,l,0.14247348037315533,colour,0.5
169,20,0,1,12,20,570,770.5463135598984,771.1680738792493,"[61, 0, 193]",193,l,0.11093742492084857,colour,0.5
169,20,0,1,12,21,571,771.6745400466752,772.2161534456391,"[32, 0, 222]",222,a,0.018309517443412915,colour,0.5
169,20,0,1,12,22,572,772.7371663236263,773.7360749757208,"[17, 0, 237]",237,a,0.47597222912008874,colour,0.5
169,20,0,1,12,23,573,774.2528673974884,774.8321104407805,"[14, 0, 240]",240,a,0.05591789407480974,colour,0.5
169,20,0,1,12,24,574,775.3466961421218,776.0161063416308,"[67, 0, 187]",187,l,0.1430272281577345,colour,0.5
169,20,0,1,12,25,575,776.537414210441,777.5120887162338,"[21, 0, 233]",233,a,0.45151871045527514,colour,0.5
169,20,0,1,12,26,576,778.0218777643167,778.6721127723577,"[24, 0, 230]",230,a,0.12708984655910172,colour,0.5
169,20,0,1,12,27,577,779.1781906074029,779.7126868111227,"[58, 0, 196]",196,l,0.011172236045240425,colour,0.5
169,20,0,1,12,28,578,780.2251134474063,780.792067306742,"[74, 0, 180]",180,l,0.04394299941486679,colour,0.5
169,20,0,1,12,29,579,781.3033671489684,782.0481165879464,"[20, 0, 234]",234,a,0.22149951438768767,colour,0.5
169,20,0,1,12,30,580,782.5691247397626,783.3120790276153,"[37, 0, 217]",217,a,0.21822350143338554,colour,0.5
169,20,0,1,12,31,581,783.8206266723719,784.5521038871811,"[4, 0, 250]",250,a,0.20818002868327312,colour,0.5
169,20,0,1,12,32,582,785.070746598547,786.1920728993719,"[12, 0, 242]",242,a,0.5981386039493373,colour,0.5
169,20,0,1,12,33,583,786.7114954262652,787.4080932249781,"[81, 0, 173]",173,l,0.17328800950781442,colour,0.5
169,20,0,1,12,34,584,787.9146680939739,788.8242220946122,"[83, 0, 171]",171,l,0.38614653756667394,colour,0.5
169,20,0,1,12,35,585,789.3367015063122,789.9601112536911,"[9, 0, 245]",245,a,0.10023780436313245,colour,0.5
169,20,0,1,12,36,586,790.4774440324836,791.1840829408757,"[82, 0, 172]",172,l,0.1833610207249876,colour,0.5
169,20,0,1,12,37,587,791.7029678676627,792.3521489432023,"[25, 0, 229]",229,a,0.13282739846908953,colour,0.5
169,20,0,1,12,38,588,792.8682741894445,793.6240879505931,"[49, 0, 205]",205,a,0.23258313503174577,colour,0.5
169,20,0,1,12,39,589,794.1215527624008,794.9841059414903,"[33, 0, 221]",221,a,0.3393166452879086,colour,0.5
169,20,0,1,12,40,590,795.4965948054887,796.096139440473,"[99, 0, 155]",155,l,0.07631637195299845,colour,0.5
169,20,0,1,12,41,591,796.6060694855114,797.136096716029,"[54, 0, 200]",200,a,0.00696123213856481,colour,0.5
169,20,0,1,12,42,592,797.6530258024432,798.2640935904637,"[30, 0, 224]",224,a,0.09738163147994783,colour,0.5
169,20,0,1,12,43,593,798.7844333852408,799.3520985308714,"[22, 0, 232]",232,a,0.057434595917584375,colour,0.5
169,20,0,1,12,44,594,799.872523396436,800.512155276243,"[79, 0, 175]",175,l,0.1165264968003612,colour,0.5
169,20,0,1,12,45,595,801.0288508118392,801.6001330412546,"[76, 0, 178]",178,l,0.04803309253475163,colour,0.5
169,20,0,1,12,46,596,802.1070477995381,802.7441188911471,"[68, 0, 186]",186,l,0.11367386853089556,colour,0.5
169,20,0,1,12,47,597,803.2633216518589,803.9201004150382,"[7, 0, 247]",247,a,0.13346109705162235,colour,0.5
169,20,0,1,12,48,598,804.4353643195791,805.0402896817832,"[85, 0, 169]",169,l,0.0809495790163055,colour,0.5
169,20,0,1,12,49,599,805.5604534272861,806.1921051947575,"[75, 0, 179]",179,l,0.10837703057040926,colour,0.5
169,20,0,1,12,50,600,806.7023329875374,807.368101290951,"[31, 0, 223]",223,a,0.1423821080388734,colour,0.5
169,20,0,1,13,1,601,811.7017626981979,812.2801050151611,"[51, 0, 203]",203,a,0.05416567220527213,colour,0.5
169,20,0,1,13,2,602,812.7990100281168,813.7440661157598,"[18, 0, 236]",236,a,0.42171636612329166,colour,0.5
169,20,0,1,13,3,603,814.2522183389083,815.1041459405096,"[8, 0, 246]",246,a,0.3285760646976996,colour,0.5
169,20,0,1,13,4,604,815.6117526866292,816.2241091395263,"[7, 0, 247]",247,a,0.08898325444897637,colour,0.5
169,20,0,1,13,5,605,816.737561745249,817.5121182547009,"[5, 0, 249]",249,a,0.2519394957635086,colour,0.5
169,20,0,1,13,6,606,818.0337597112666,819.0001587200386,"[82, 0, 172]",172,l,0.44306007494742516,colour,0.5
169,20,0,1,13,7,607,819.519696250034,820.1761611177644,"[3, 0, 251]",251,a,0.1331905246770475,colour,0.5
169,20,0,1,13,8,608,820.6916621177515,821.4082137419318,"[38, 0, 216]",216,a,0.19324183497519698,colour,0.5
169,20,0,1,13,9,609,821.9261136592977,822.5121426731639,"[43, 0, 211]",211,a,0.05972323637979571,colour,0.5
169,20,0,1,13,10,610,823.0228934937477,824.1521053838078,"[11, 0, 243]",243,a,0.6063790486514335,colour,0.5
169,20,0,1,13,11,611,824.6636734353087,825.2961243167811,"[1, 0, 253]",253,a,0.10926475998712704,colour,0.5
169,20,0,1,13,12,612,825.8043505830137,826.4161706173472,"[85, 0, 169]",169,l,0.08840823895297945,colour,0.5
169,20,0,1,13,13,613,826.9294613522652,827.6161220167123,"[30, 0, 224]",224,a,0.1632161798333982,colour,0.5
169,20,0,1,13,14,614,828.1341318171908,829.0561140295176,"[42, 0, 212]",212,a,0.39866690928465687,colour,0.5
169,20,0,1,13,15,615,829.5716969495115,830.5600981779862,"[90, 0, 164]",164,l,0.4622651987156132,colour,0.5
169,20,0,1,13,16,616,831.0749249132205,831.7521655635064,"[31, 0, 223]",223,a,0.1533649040502496,colour,0.5
169,20,0,1,13,17,617,832.2641593627923,833.2401091426727,"[52, 0, 202]",202,a,0.4520945136464434,colour,0.5
169,20,0,1,13,18,618,833.747765907261,834.7121240048582,"[84, 0, 170]",170,l,0.44102388992905617,colour,0.5
169,20,0,1,13,19,619,835.2322680580546,835.7601807281608,"[88, 0, 166]",166,a,0.00502862868597731,colour,0.5
169,20,0,1,13,20,620,836.2797202273941,837.344207033937,"[0, 0, 254]",254,a,0.541647663587355,colour,0.5
169,20,0,1,13,21,621,837.8574438119249,838.5521105825756,"[26, 0, 228]",228,l,0.17134555989468936,colour,0.5
169,20,0,1,13,22,622,839.060698793488,839.7361336588074,"[44, 0, 210]",210,a,0.15209474995208438,colour,0.5
169,20,0,1,13,23,623,840.2501746708003,840.8641360470938,"[64, 0, 190]",190,l,0.09066931015695445,colour,0.5
169,20,0,1,13,24,624,841.3752673231356,842.0241589216894,"[72, 0, 182]",182,l,0.1255585724284174,colour,0.5
169,20,0,1,13,25,625,842.5315730769944,843.1201187682746,"[95, 0, 159]",159,l,0.06519730514264666,colour,0.5
169,20,0,1,13,26,626,843.6410737508559,844.248143605786,"[80, 0, 174]",174,l,0.08369665648206137,colour,0.5
169,20,0,1,13,27,627,844.766151043179,845.6481393522554,"[87, 0, 167]",167,l,0.35862456292670686,colour,0.5
169,20,0,1,13,28,628,846.1568788001314,846.8401551439165,"[66, 0, 188]",188,l,0.15989802533295006,colour,0.5
169,20,0,1,13,29,629,847.3601353570702,847.9840842799458,"[16, 0, 238]",238,a,0.1005891151871765,colour,0.5
169,20,0,1,13,30,630,848.5007904493832,849.0561553833686,"[25, 0, 229]",229,a,0.03206892938760575,colour,0.5
169,20,0,1,13,31,631,849.5633533170912,850.5361164871138,"[39, 0, 215]",215,a,0.44940730080998037,colour,0.5
169,20,0,1,13,32,632,851.0479306925117,851.9041378272814,"[93, 0, 161]",161,l,0.33290010248310864,colour,0.5
169,20,0,1,13,33,633,852.4230318125337,853.328165283092,"[58, 0, 196]",196,a,0.3819816136820009,colour,0.5
169,20,0,1,13,34,634,853.8451278464345,854.5201026993454,"[73, 0, 181]",181,l,0.15179503297258634,colour,0.5
169,20,0,1,13,35,635,855.03397829592,855.7121539371583,"[63, 0, 191]",191,l,0.15493123049964197,colour,0.5
169,20,0,1,13,36,636,856.2218370406044,856.784156117501,"[17, 0, 237]",237,a,0.03933184774359688,colour,0.5
169,20,0,1,13,37,637,857.2997063482471,857.8401323008293,"[55, 0, 199]",199,a,0.0170031294983346,colour,0.5
169,20,0,1,13,38,638,858.3466768436629,858.9840893999499,"[92, 0, 162]",162,a,0.11417720402823761,colour,0.5
169,20,0,1,13,39,639,859.5030054405943,860.1921599393827,"[36, 0, 218]",218,a,0.165798235728289,colour,0.5
169,20,0,1,13,40,640,860.7062635729235,861.3601199970726,"[56, 0, 198]",198,a,0.13073134882142767,colour,0.5
169,20,0,1,13,41,641,861.8656495981559,862.4961296730908,"[57, 0, 197]",197,a,0.11092876030306797,colour,0.5
169,20,0,1,13,42,642,863.002555668194,863.912119908855,"[97, 0, 157]",157,l,0.3861867099039955,colour,0.5
169,20,0,1,13,43,643,864.4269285271585,865.2562493550795,"[49, 0, 205]",205,a,0.30589209716708865,colour,0.5
169,20,0,1,13,44,644,865.7738928785548,866.4161489558028,"[15, 0, 239]",239,a,0.11929090350167826,colour,0.5
169,20,0,1,13,45,645,866.9299938323675,867.5361172748089,"[61, 0, 193]",193,l,0.0828719424753217,colour,0.5
169,20,0,1,13,46,646,868.0552735616511,869.0241266262892,"[75, 0, 179]",179,l,0.4456527646834729,colour,0.5
169,20,0,1,13,47,647,869.5396768570499,870.1761122808384,"[99, 0, 155]",155,l,0.11323315461049788,colour,0.5
169,20,0,1,13,48,648,870.6960310539871,871.4000922387931,"[40, 0, 214]",214,a,0.18055368478235323,colour,0.5
169,20,0,1,13,49,649,871.9148910109361,872.4642442760378,"[27, 0, 227]",227,a,0.025911931254086085,colour,0.5
169,20,0,1,13,50,650,872.9775212263485,873.6081253628363,"[19, 0, 235]",235,a,0.10724235957604833,colour,0.5
169,20,0,1,14,1,651,877.9614282754774,878.8961258133932,"[74, 0, 180]",180,l,0.41056382238457445,colour,0.5
169,20,0,1,14,2,652,879.416907897481,880.024169161683,"[81, 0, 173]",173,l,0.08425670581345912,colour,0.5
169,20,0,1,14,3,653,880.5419997621211,882.048136280253,"[67, 0, 187]",187,l,0.9828810797043843,colour,0.5
169,20,0,1,14,4,654,882.5577276175318,883.6161550997931,"[88, 0, 166]",166,l,0.5351421115337871,colour,0.5
169,20,0,1,14,5,655,884.1360199160263,884.6881458585849,"[91, 0, 163]",163,l,0.029152891889680177,colour,0.5
169,20,0,1,14,6,656,885.1985619098705,886.1441398437746,"[76, 0, 178]",178,l,0.4222342739230953,colour,0.5
169,20,0,1,14,7,657,886.6518013345049,887.2561422289,"[22, 0, 232]",232,a,0.08098069285915699,colour,0.5
169,20,0,1,14,8,658,887.7769223437645,888.520110576268,"[75, 0, 179]",179,l,0.2182695814408362,colour,0.5
169,20,0,1,14,9,659,889.0286314394907,889.9601077090774,"[13, 0, 241]",241,a,0.40815781576384325,colour,0.5
169,20,0,1,14,10,660,890.4662635256682,891.1361077437323,"[94, 0, 160]",160,l,0.14649622577417176,colour,0.5
169,20,0,1,14,11,661,891.6538008918287,892.4160855465598,"[8, 0, 246]",246,a,0.23890673012647312,colour,0.5
169,20,0,1,14,12,662,892.9351941780042,893.5281466147717,"[17, 0, 237]",237,a,0.06968872756988276,colour,0.5
169,20,0,1,14,13,663,894.0447094241972,894.6401202491397,"[93, 0, 161]",161,l,0.07213805729406886,colour,0.5
169,20,0,1,14,14,664,895.1541013965034,896.10412349127,"[10, 0, 244]",244,a,0.4267410563334124,colour,0.5
169,20,0,1,14,15,665,896.6229245288268,897.2486496982019,"[12, 0, 242]",242,a,0.10229171245009638,colour,0.5
169,20,0,1,14,16,666,897.7641510920221,898.5132891595422,"[23, 0, 231]",231,a,0.22617328762135003,colour,0.5
169,20,0,1,14,17,667,899.0306873168156,899.6242068921565,"[6, 0, 248]",248,a,0.07056621697847731,colour,0.5
169,20,0,1,14,18,668,900.1423096403305,900.6803441585944,"[32, 0, 222]",222,a,0.009839066551649012,colour,0.5
169,20,0,1,14,19,669,901.1923769486602,901.7361954926746,"[26, 0, 228]",228,a,0.020657628687331453,colour,0.5
169,20,0,1,14,20,670,902.2550827825471,902.9842016461189,"[53, 0, 201]",201,l,0.21861774151329882,colour,0.5
169,20,0,1,14,21,671,903.4927622878022,904.4721058406576,"[65, 0, 189]",189,l,0.4561759421339957,colour,0.5
169,20,0,1,14,22,672,904.9928847739793,905.7362226680561,"[39, 0, 215]",215,a,0.22004464641213417,colour,0.5
169,20,0,1,14,23,673,906.2429716170736,906.8481624316482,"[46, 0, 208]",208,a,0.08187590536545031,colour,0.5
169,20,0,1,14,24,674,907.3680942017236,908.0881081281259,"[30, 0, 224]",224,a,0.19674273412965704,colour,0.5
169,20,0,1,14,25,675,908.6024827278743,909.2401103242155,"[64, 0, 190]",190,l,0.11427093943348154,colour,0.5
169,20,0,1,14,26,676,909.7588928509795,910.4401243451284,"[97, 0, 157]",157,a,0.158003624950652,colour,0.5
169,20,0,1,14,27,677,910.9464562109933,911.5681062534131,"[42, 0, 212]",212,a,0.09844816707482096,colour,0.5
169,20,0,1,14,28,678,912.0886083128426,912.7841639944236,"[57, 0, 197]",197,a,0.17230457547702827,colour,0.5
169,20,0,1,14,29,679,913.2918829867122,913.8561685378372,"[21, 0, 233]",233,a,0.04092613729881123,colour,0.5
169,20,0,1,14,30,680,914.3700539805723,914.9601376413775,"[41, 0, 213]",213,a,0.06673724390566349,colour,0.5
169,20,0,1,14,31,681,915.4794703713414,916.104123097437,"[85, 0, 169]",169,l,0.10115901069366373,colour,0.5
169,20,0,1,14,32,682,916.6201999006007,917.1921264624543,"[70, 0, 184]",184,l,0.0484706557035679,colour,0.5
169,20,0,1,14,33,683,917.6984551775386,918.576140716541,"[80, 0, 174]",174,l,0.35425483899598476,colour,0.5
169,20,0,1,14,34,684,919.0892475252767,919.7361789511342,"[0, 0, 254]",254,a,0.12376145206508227,colour,0.5
169,20,0,1,14,35,685,920.2454902637255,920.8001332775748,"[86, 0, 168]",168,l,0.03134228310955223,colour,0.5
169,20,0,1,14,36,686,921.3081224483758,921.8481801547168,"[77, 0, 177]",177,l,0.01674555406498257,colour,0.5
169,20,0,1,14,37,687,922.3550504083832,922.8961384164722,"[27, 0, 227]",227,a,0.01776325273385737,colour,0.5
169,20,0,1,14,38,688,923.4176916514843,924.3521741493605,"[51, 0, 203]",203,a,0.4098753791768104,colour,0.5
169,20,0,1,14,39,689,924.867552663156,925.5123683470592,"[19, 0, 235]",235,a,0.12157836240658071,colour,0.5
169,20,0,1,14,40,690,926.0286176548689,926.6802681462723,"[50, 0, 204]",204,l,0.1283552745153429,colour,0.5
169,20,0,1,14,41,691,927.2005957318179,927.8481738531846,"[73, 0, 181]",181,l,0.124187987530604,colour,0.5
169,20,0,1,14,42,692,928.3570204272255,928.976120315303,"[16, 0, 238]",238,a,0.09605752045172267,colour,0.5
169,20,0,1,14,43,693,929.4976967872353,930.0961177789286,"[1, 0, 253]",253,a,0.07512538094306365,colour,0.5
169,20,0,1,14,44,694,930.6071049072489,931.2801227382442,"[38, 0, 216]",216,a,0.14977105718571693,colour,0.5
169,20,0,1,14,45,695,931.7953945197078,932.3361690261954,"[56, 0, 198]",198,l,0.017428089573513716,colour,0.5
169,20,0,1,14,46,696,932.8421692735428,933.5601064487564,"[83, 0, 171]",171,a,0.19465653062798083,colour,0.5
169,20,0,1,14,47,697,934.0766838304844,934.7361691049737,"[15, 0, 239]",239,a,0.1362428329885006,colour,0.5
169,20,0,1,14,48,698,935.2486004674138,935.8961510195513,"[28, 0, 226]",226,a,0.12316201809153426,colour,0.5
169,20,0,1,14,49,699,936.4061247815116,937.0321130401717,"[60, 0, 194]",194,a,0.10318298646598123,colour,0.5
169,20,0,1,14,50,700,937.5467369445978,938.3921306372213,"[5, 0, 249]",249,l,0.32219181729306,colour,0.5
169,20,0,1,15,1,701,946.2199166463834,946.8881260087364,"[54, 0, 200]",200,l,0.14469753002049401,colour,0.5
169,20,0,1,15,2,702,947.4083724619559,948.0081301677565,"[26, 0, 228]",228,a,0.07671612587000709,colour,0.5
169,20,0,1,15,3,703,948.5178396589035,949.1761398500676,"[86, 0, 168]",168,l,0.13490651271422394,colour,0.5
169,20,0,1,15,4,704,949.6897409358353,950.2961302244657,"[18, 0, 236]",236,a,0.0832823302334873,colour,0.5
169,20,0,1,15,5,705,950.8148450096924,951.392141271077,"[36, 0, 218]",218,a,0.05437047225132119,colour,0.5
169,20,0,1,15,6,706,951.9086887204903,952.4401263143664,"[87, 0, 167]",167,l,0.008018709268071689,colour,0.5
169,20,0,1,15,7,707,952.9556875728158,953.608126544379,"[84, 0, 170]",170,l,0.12924654853122775,colour,0.5
169,20,0,1,15,8,708,954.1292244931392,954.6961358170811,"[52, 0, 202]",202,l,0.04359050703351386,colour,0.5
169,20,0,1,15,9,709,955.2074860716239,955.7921819159965,"[3, 0, 251]",251,a,0.072698894306086,colour,0.5
169,20,0,1,15,10,710,956.3056534263451,956.8401291500631,"[53, 0, 201]",201,l,0.011321897618472576,colour,0.5
169,20,0,1,15,11,711,957.3525530294282,958.3201008876495,"[97, 0, 157]",157,l,0.4443325921165524,colour,0.5
169,20,0,1,15,12,712,958.8251039163297,959.4241408835223,"[27, 0, 227]",227,a,0.07589731956250034,colour,0.5
169,20,0,1,15,13,713,959.9351654272323,960.4801749622566,"[24, 0, 230]",230,a,0.022405912110116333,colour,0.5
169,20,0,1,15,14,714,960.9969961347961,961.960132521388,"[2, 0, 252]",252,a,0.4397076558234403,colour,0.5
169,20,0,1,15,15,715,962.4814742609742,963.0482587664301,"[31, 0, 223]",223,a,0.043461325476528145,colour,0.5
169,20,0,1,15,16,716,963.5596893656038,964.1201104975044,"[95, 0, 159]",159,l,0.03711843192286324,colour,0.5
169,20,0,1,15,17,717,964.6379540948546,965.1841396547243,"[91, 0, 163]",163,l,0.022970687597990036,colour,0.5
169,20,0,1,15,18,718,965.7004874240956,966.3921133079857,"[47, 0, 207]",207,l,0.16830467313411646,colour,0.5
169,20,0,1,15,19,719,966.9037908487517,967.6001448566531,"[62, 0, 192]",192,l,0.17317852025735192,colour,0.5
169,20,0,1,15,20,720,968.1069702118402,968.6481531368627,"[32, 0, 222]",222,a,0.017978292758925818,colour,0.5
169,20,0,1,15,21,721,969.1695519841596,969.6966836571955,"[74, 0, 180]",180,l,0.003938856156310067,colour,0.5
169,20,0,1,15,22,722,970.2165598949505,971.2641699966334,"[68, 0, 186]",186,l,0.5244275248114718,colour,0.5
169,20,0,1,15,23,723,971.7797135320143,972.3441388985375,"[56, 0, 198]",198,l,0.041726432827999815,colour,0.5
169,20,0,1,15,24,724,972.8572839103581,973.4881483792124,"[58, 0, 196]",196,l,0.10772088276280556,colour,0.5
169,20,0,1,15,25,725,973.9980323442287,974.608138359763,"[70, 0, 184]",184,l,0.08685924172459636,colour,0.5
169,20,0,1,15,26,726,975.1253549539251,975.6721553077514,"[96, 0, 158]",158,l,0.023976177035365254,colour,0.5
169,20,0,1,15,27,727,976.1875862031011,977.0721163957496,"[37, 0, 217]",217,a,0.36129641576553695,colour,0.5
169,20,0,1,15,28,728,977.5783336523455,978.1361620945099,"[7, 0, 247]",247,a,0.03453125603846274,colour,0.5
169,20,0,1,15,29,729,978.6565038585104,979.2001888886589,"[98, 0, 156]",156,l,0.03025093518954236,colour,0.5
169,20,0,1,15,30,730,979.709116595026,980.5681346103374,"[42, 0, 212]",212,a,0.33561921685759444,colour,0.5
169,20,0,1,15,31,731,981.0842645827506,981.8721567255998,"[1, 0, 253]",253,a,0.2646201628813287,colour,0.5
169,20,0,1,15,32,732,982.3719149040116,983.2401185949857,"[28, 0, 226]",226,a,0.3452542710729176,colour,0.5
169,20,0,1,15,33,733,983.747034928645,984.3361383062002,"[93, 0, 161]",161,l,0.06582864065421745,colour,0.5
169,20,0,1,15,34,734,984.8565635655978,985.448235214426,"[99, 0, 155]",155,l,0.06869781044952106,colour,0.5
169,20,0,1,15,35,735,985.9658448671253,986.8641435301688,"[0, 0, 254]",254,a,0.3749002584372647,colour,0.5
169,20,0,1,15,36,736,987.3665865583462,988.2321172149386,"[9, 0, 245]",245,a,0.3369823186658323,colour,0.5
169,20,0,1,15,37,737,988.7470794332767,989.3123779568996,"[29, 0, 225]",225,a,0.04203323904948775,colour,0.5
169,20,0,1,15,38,738,989.82537606408,990.5281789101718,"[64, 0, 190]",190,l,0.1795190507400548,colour,0.5
169,20,0,1,15,39,739,991.0441986056248,991.6081517505372,"[6, 0, 248]",248,a,0.040586247996543534,colour,0.5
169,20,0,1,15,40,740,992.122425525653,992.7761535559257,"[44, 0, 210]",210,l,0.13060807494912297,colour,0.5
169,20,0,1,15,41,741,993.294321288733,993.9041756365186,"[83, 0, 171]",171,l,0.0864724847197067,colour,0.5
169,20,0,1,15,42,742,994.4194816826057,995.0161303662608,"[66, 0, 188]",188,l,0.07337237137835473,colour,0.5
169,20,0,1,15,43,743,995.5289658149413,996.544150556394,"[51, 0, 203]",203,a,0.48946618869376834,colour,0.5
169,20,0,1,15,44,744,997.053523309005,997.6802130077995,"[20, 0, 234]",234,a,0.10321291878062766,colour,0.5
169,20,0,1,15,45,745,998.1942937982676,998.8801896133373,"[48, 0, 206]",206,a,0.1709615598228993,colour,0.5
169,20,0,1,15,46,746,999.3890188581427,1000.0241388355207,"[15, 0, 239]",239,a,0.1119003789499402,colour,0.5
169,20,0,1,15,47,747,1000.5454652151093,1001.1121528343938,"[10, 0, 244]",244,a,0.04340776239405386,colour,0.5
169,20,0,1,15,48,748,1001.6236818951293,1002.2961660644796,"[16, 0, 238]",238,a,0.15556256602576468,colour,0.5
169,20,0,1,15,49,749,1002.8047822384833,1003.7681525697262,"[60, 0, 194]",194,l,0.4400491205014987,colour,0.5
169,20,0,1,15,50,750,1004.289365521603,1004.9201508273545,"[88, 0, 166]",166,l,0.10759800272353459,colour,0.5
169,20,0,1,16,1,751,1009.351469952293,1010.0721223034343,"[35, 0, 219]",219,a,0.19661670333880465,colour,0.5
169,20,0,1,16,2,752,1010.5866749216802,1011.1601776561583,"[58, 0, 196]",196,l,0.04868175728188362,colour,0.5
169,20,0,1,16,3,753,1011.6663602542976,1012.2081607302243,"[46, 0, 208]",208,l,0.018497775949072093,colour,0.5
169,20,0,1,16,4,754,1012.7289888943196,1013.3681839986675,"[26, 0, 228]",228,a,0.11592588129860815,colour,0.5
169,20,0,1,16,5,755,1013.8852824389469,1014.4241775112314,"[10, 0, 244]",244,a,0.015879092359682545,colour,0.5
169,20,0,1,16,6,756,1014.9322816851345,1015.5281962394074,"[12, 0, 242]",242,a,0.07261500507593155,colour,0.5
169,20,0,1,16,7,757,1016.041679958973,1016.8881512148946,"[38, 0, 216]",216,a,0.32316855594399385,colour,0.5
169,20,0,1,16,8,758,1017.4026565716049,1017.9761833306984,"[19, 0, 235]",235,a,0.05022012065455783,colour,0.5
169,20,0,1,16,9,759,1018.4977609841735,1019.0961288066319,"[44, 0, 210]",210,a,0.07494539322215132,colour,0.5
169,20,0,1,16,10,760,1019.6072396026575,1020.2401398626826,"[24, 0, 230]",230,a,0.10968814468651544,colour,0.5
169,20,0,1,16,11,761,1020.7497701907268,1021.3681481586536,"[94, 0, 160]",160,l,0.09498862178588752,colour,0.5
169,20,0,1,16,12,762,1021.8760963694513,1022.7681348466576,"[90, 0, 164]",164,l,0.36877594955149107,colour,0.5
169,20,0,1,16,13,763,1023.2801353413233,1023.9761947522347,"[27, 0, 227]",227,a,0.1820640850783093,colour,0.5
169,20,0,1,16,14,764,1024.4905815612292,1025.048154003336,"[67, 0, 187]",187,l,0.034397742158034816,colour,0.5
169,20,0,1,16,15,765,1025.5688155704702,1026.1041553928226,"[57, 0, 197]",197,l,0.012093442375771701,colour,0.5
169,20,0,1,16,16,766,1026.6157911858754,1027.6161279244116,"[76, 0, 178]",178,l,0.47703640162944794,colour,0.5
169,20,0,1,16,17,767,1028.1314595705044,1028.9361362581985,"[75, 0, 179]",179,l,0.28134208617848344,colour,0.5
169,20,0,1,16,18,768,1029.4441963213176,1030.0881128542824,"[91, 0, 163]",163,l,0.12103406692040153,colour,0.5
169,20,0,1,16,19,769,1030.6004370905575,1031.1921607270779,"[11, 0, 243]",243,a,0.06842133040481713,colour,0.5
169,20,0,1,16,20,770,1031.7121125833073,1032.3761329971458,"[71, 0, 183]",183,l,0.14072795386891812,colour,0.5
169,20,0,1,16,21,771,1032.884176912572,1033.408306689642,"[83, 0, 171]",171,l,0.0009483817266300321,colour,0.5
169,20,0,1,16,22,772,1033.9311261402909,1034.5442600456445,"[25, 0, 229]",229,a,0.08993833155545872,colour,0.5
169,20,0,1,16,23,773,1035.0436712455266,1035.680135420087,"[72, 0, 182]",182,l,0.1131173638132168,colour,0.5
169,20,0,1,16,24,774,1036.2000305624679,1036.8001596652612,"[79, 0, 175]",175,l,0.07682167665916495,colour,0.5
169,20,0,1,16,25,775,1037.3095351748052,1037.9761258291546,"[47, 0, 207]",207,a,0.14332852054212708,colour,0.5
169,20,0,1,16,26,776,1038.4970906578965,1039.1521510699677,"[18, 0, 236]",236,a,0.13178370594687294,colour,0.5
169,20,0,1,16,27,777,1039.6690915779182,1040.2961668521748,"[43, 0, 211]",211,a,0.10374539889744483,colour,0.5
169,20,0,1,16,28,778,1040.8097447009932,1041.5361527209752,"[81, 0, 173]",173,l,0.20295132612227462,colour,0.5
169,20,0,1,16,29,779,1042.0442620148679,1042.7841695082752,"[60, 0, 194]",194,l,0.21655910726985894,colour,0.5
169,20,0,1,16,30,780,1043.2943461010436,1043.8961746503337,"[98, 0, 156]",156,l,0.078447867766954,colour,0.5
169,20,0,1,16,31,781,1044.4079128434096,1045.1041502728185,"[3, 0, 251]",251,a,0.1731363787112059,colour,0.5
169,20,0,1,16,32,782,1045.6111859419034,1046.528160793241,"[30, 0, 224]",224,a,0.3931203727988759,colour,0.5
169,20,0,1,16,33,783,1047.0454482797213,1047.6321680998808,"[15, 0, 239]",239,a,0.06339860941807274,colour,0.5
169,20,0,1,16,34,784,1048.1393680028268,1048.7521557173459,"[42, 0, 212]",212,a,0.08956063301593531,colour,0.5
169,20,0,1,16,35,785,1049.2643145382026,1049.9121411765518,"[95, 0, 159]",159,l,0.1354078789736377,colour,0.5
169,20,0,1,16,36,786,1050.4226903478557,1051.2161715625698,"[28, 0, 226]",226,a,0.2701946624292759,colour,0.5
169,20,0,1,16,37,787,1051.7352317509358,1052.2721623182151,"[4, 0, 250]",250,a,0.01357587959500961,colour,0.5
169,20,0,1,16,38,788,1052.769813025443,1053.5121320393082,"[66, 0, 188]",188,l,0.21898756311566103,colour,0.5
169,20,0,1,16,39,789,1054.019925468543,1054.624175778299,"[80, 0, 174]",174,l,0.0809669082518667,colour,0.5
169,20,0,1,16,40,790,1055.1453320163128,1055.7601504019985,"[34, 0, 220]",220,a,0.09156294725835323,colour,0.5
169,20,0,1,16,41,791,1056.270477837883,1056.8401835008408,"[39, 0, 215]",215,a,0.046449830682831816,colour,0.5
169,20,0,1,16,42,792,1057.348655527123,1058.1761406377627,"[96, 0, 158]",158,l,0.30487164156511426,colour,0.5
169,20,0,1,16,43,793,1058.6924840748252,1059.2561638904444,"[40, 0, 214]",214,a,0.04034678947937209,colour,0.5
169,20,0,1,16,44,794,1059.7706286809844,1060.416152106569,"[23, 0, 231]",231,a,0.12205885480216239,colour,0.5
169,20,0,1,16,45,795,1060.9280698935327,1061.5201531116618,"[63, 0, 191]",191,l,0.06866315197839867,colour,0.5
169,20,0,1,16,46,796,1062.0376288566476,1062.9761392199143,"[87, 0, 167]",167,l,0.41565270953287836,colour,0.5
169,20,0,1,16,47,797,1063.4908753705095,1064.032126430946,"[86, 0, 168]",168,l,0.017953480462892912,colour,0.5
169,20,0,1,16,48,798,1064.5534614751523,1065.2561965796776,"[52, 0, 202]",202,a,0.17940837993228342,colour,0.5
169,20,0,1,16,49,799,1065.7722812597785,1066.39216568954,"[74, 0, 180]",180,l,0.09691925601509865,colour,0.5
169,20,0,1,16,50,800,1066.9129631336255,1067.4561723975203,"[64, 0, 190]",190,l,0.01977383773191832,colour,0.5
