id,age,condition,counterbalance,block,trialinblock,trial,tstart,tend,trialstim,trialintensity,response,RT,trialtype,colourfreq
024,76,0,1,Practice,1,NA,5.5138953030109406e-06,3.480946128256619,"[46, 0, 208]",208,a,2.8003287826431915,colour,0.5
024,76,0,1,Practice,2,NA,4.000910177943297,6.952973221661523,"[36, 0, 218]",218,a,2.428956891177222,colour,0.5
024,76,0,1,Practice,3,NA,7.469496633391827,8.976949379779398,"[21, 0, 233]",233,l,0.984145732363686,colour,0.5
024,76,0,1,Practice,4,NA,9.485184698016383,13.440973524120636,"[10, 0, 244]",244,a,3.4325507351895794,colour,0.5
024,76,0,1,Practice,5,NA,13.955068481969647,14.528935859911144,"[56, 0, 198]",198,a,0.05058675166219473,colour,0.5
024,76,0,1,Practice,6,NA,15.049039331031963,17.808992605190724,"[4, 0, 250]",250,a,2.236802616971545,colour,0.5
024,76,0,1,Practice,7,NA,18.31577896431554,19.896962030092254,"[91, 0, 163]",163,l,1.0576673136092722,colour,0.5
024,76,0,1,Practice,8,NA,20.409577308804728,21.464918962330557,"[52, 0, 202]",202,a,0.5322240794776008,colour,0.5
024,76,0,1,Practice,9,NA,21.97209286573343,22.865105408942327,"[94, 0, 160]",160,l,0.36972246458753943,colour,0.5
024,76,0,1,Practice,10,NA,23.38056425517425,24.305036422912963,"[99, 0, 155]",155,l,0.40107929531950504,colour,0.5
024,76,0,1,1,1,1,4.784773444058374,5.999966916977428,"[37, 0, 217]",217,a,0.6911030993796885,colour,0.5
024,76,0,1,1,2,2,6.521357476711273,7.424029878806323,"[30, 0, 224]",224,a,0.37929843447636813,colour,0.5
024,76,0,1,1,3,3,7.943212144309655,8.855968183605,"[72, 0, 182]",182,a,0.3894415422109887,colour,0.5
024,76,0,1,1,4,4,9.366618565050885,10.223964815377258,"[1, 0, 253]",253,a,0.33401403028983623,colour,0.5
024,76,0,1,1,5,5,10.741622897330672,11.831973514636047,"[89, 0, 165]",165,l,0.5670755049213767,colour,0.5
024,76,0,1,1,6,6,12.344158319756389,13.71994955628179,"[82, 0, 172]",172,l,0.8523440134013072,colour,0.5
024,76,0,1,1,7,7,14.23483338742517,15.127999924472533,"[32, 0, 222]",222,a,0.3698244708357379,colour,0.5
024,76,0,1,1,8,8,15.641109085874632,16.47197549964767,"[59, 0, 195]",195,a,0.30750504904426634,colour,0.5
024,76,0,1,1,9,9,16.98483141826,17.799964475096203,"[73, 0, 181]",181,a,0.29174845525994897,colour,0.5
024,76,0,1,1,10,10,18.312860565958545,19.112250813748688,"[33, 0, 221]",221,a,0.27591072930954397,colour,0.5
024,76,0,1,1,11,11,19.62538636289537,20.4399806385627,"[26, 0, 228]",228,a,0.29118289262987673,colour,0.5
024,76,0,1,1,12,12,20.95498419890646,21.791960344533436,"[63, 0, 191]",191,a,0.3137073346879333,colour,0.5
024,76,0,1,1,13,13,22.30059856711887,23.05594187474344,"[22, 0, 232]",232,a,0.23199336451943964,colour,0.5
024,76,0,1,1,14,14,23.566231493256055,24.59202721947804,"[99, 0, 155]",155,l,0.5028262382838875,colour,0.5
024,76,0,1,1,15,15,25.113001877907664,25.975969097344205,"[27, 0, 227]",227,a,0.33986067306250334,colour,0.5
024,76,0,1,1,16,16,26.48802826553583,27.287927756085992,"[23, 0, 231]",231,a,0.2743810317479074,colour,0.5
024,76,0,1,1,17,17,27.802785593434237,28.552114873891696,"[34, 0, 220]",220,a,0.22602226654998958,colour,0.5
024,76,0,1,1,18,18,29.06834053818602,29.759950911044143,"[8, 0, 246]",246,a,0.16912058927118778,colour,0.5
024,76,0,1,1,19,19,30.27059774787631,30.991974995587952,"[13, 0, 241]",241,a,0.19806432607583702,colour,0.5
024,76,0,1,1,20,20,31.504929769434966,33.64795215881895,"[74, 0, 180]",180,a,1.6195893447147682,colour,0.5
024,76,0,1,1,21,21,34.162451596348546,36.03192318114452,"[35, 0, 219]",219,a,1.3461283369688317,colour,0.5
024,76,0,1,1,22,22,36.553847795934416,37.479901254992,"[12, 0, 242]",242,a,0.40276259277015924,colour,0.5
024,76,0,1,1,23,23,37.991342085180804,39.167942596250214,"[85, 0, 169]",169,l,0.6533372140256688,colour,0.5
024,76,0,1,1,24,24,39.678764300537296,40.67195785534568,"[93, 0, 161]",161,l,0.46975814702454954,colour,0.5
024,76,0,1,1,25,25,41.17882810358424,42.079977503512055,"[67, 0, 187]",187,a,0.37812201655469835,colour,0.5
024,76,0,1,1,26,26,42.60064693132881,43.77621674758848,"[53, 0, 201]",201,a,0.6520954178413376,colour,0.5
024,76,0,1,1,27,27,44.28935977991205,45.103922941721976,"[51, 0, 203]",203,a,0.2913231017300859,colour,0.5
024,76,0,1,1,28,28,45.617344029131345,46.51993411744479,"[75, 0, 179]",179,a,0.379178311326541,colour,0.5
024,76,0,1,1,29,29,47.039312518318184,48.07993299898226,"[88, 0, 166]",166,l,0.5174308328423649,colour,0.5
024,76,0,1,1,30,30,48.586195936775766,49.5760024166666,"[0, 0, 254]",254,a,0.46488194074481726,colour,0.5
024,76,0,1,1,31,31,50.087794557446614,50.880014052498154,"[3, 0, 251]",251,a,0.268885699682869,colour,0.5
024,76,0,1,1,32,32,51.40029672358651,52.18395046365913,"[57, 0, 197]",197,a,0.26028056000359356,colour,0.5
024,76,0,1,1,33,33,52.69711830816232,53.32001477712765,"[25, 0, 229]",229,a,0.09951147355604917,colour,0.5
024,76,0,1,1,34,34,53.839197436580434,54.56801600905601,"[64, 0, 190]",190,a,0.2056025369092822,colour,0.5
024,76,0,1,1,35,35,55.08918089501094,55.74391862517223,"[71, 0, 183]",183,a,0.13175524526741356,colour,0.5
024,76,0,1,1,36,36,56.26113717502449,56.88792444777209,"[38, 0, 216]",216,a,0.10376461560372263,colour,0.5
024,76,0,1,1,37,37,57.40174410736654,58.47991937189363,"[81, 0, 173]",173,l,0.5549151182640344,colour,0.5
024,76,0,1,1,38,38,58.995445959619246,60.23195713071618,"[70, 0, 184]",184,a,0.713151381816715,colour,0.5
024,76,0,1,1,39,39,60.745514488895424,61.81593295803759,"[47, 0, 207]",207,a,0.5470838861074299,colour,0.5
024,76,0,1,1,40,40,62.32559124159161,66.23992227064446,"[36, 0, 218]",218,a,3.3909621813800186,colour,0.5
024,76,0,1,1,41,41,66.7474848999409,67.87196974956896,"[48, 0, 206]",206,a,0.6011498726438731,colour,0.5
024,76,0,1,1,42,42,68.38812688458711,70.61592539621051,"[28, 0, 226]",226,a,1.7045367900282145,colour,0.5
024,76,0,1,1,43,43,71.12519731686916,72.7679369248217,"[24, 0, 230]",230,a,1.1194530740613118,colour,0.5
024,76,0,1,1,44,44,73.28134698455688,74.38390603789594,"[94, 0, 160]",160,l,0.5789038796210662,colour,0.5
024,76,0,1,1,45,45,74.89242098666728,75.95189684082288,"[68, 0, 186]",186,a,0.5360845571849495,colour,0.5
024,76,0,1,1,46,46,76.47052890365012,77.08797612041235,"[9, 0, 245]",245,a,0.09415162436198443,colour,0.5
024,76,0,1,1,47,47,77.5955387497088,79.50410190527327,"[5, 0, 249]",249,a,1.38522542163264,colour,0.5
024,76,0,1,1,48,48,80.01734182366636,82.11193022318184,"[58, 0, 196]",196,a,1.5712778409942985,colour,0.5
024,76,0,1,1,49,49,82.62670889752917,84.96795000054408,"[61, 0, 193]",193,a,1.8178438984323293,colour,0.5
024,76,0,1,1,50,50,85.48812397010624,86.54397368489299,"[87, 0, 167]",167,l,0.5325879930751398,colour,0.5
024,76,0,1,2,1,51,91.72165175830014,93.16788745776284,"[58, 0, 196]",196,a,0.9221725013339892,colour,0.5
024,76,0,1,2,2,52,93.67796479340177,95.9919100109255,"[23, 0, 231]",231,a,1.7908658465603366,colour,0.5
024,76,0,1,2,3,53,96.50397351151332,97.25591162731871,"[72, 0, 182]",182,a,0.228546031168662,colour,0.5
024,76,0,1,2,4,54,97.76971277606208,99.23994078137912,"[76, 0, 178]",178,l,0.94692099140957,colour,0.5
024,76,0,1,2,5,55,99.75718532502651,100.57595554902218,"[37, 0, 217]",217,a,0.29545218241401017,colour,0.5
024,76,0,1,2,6,56,101.08530781429727,104.03992179804482,"[41, 0, 213]",213,a,2.4331088149920106,colour,0.5
024,76,0,1,2,7,57,104.54108009883203,105.83204795152415,"[38, 0, 216]",216,a,0.7722255130065605,colour,0.5
024,76,0,1,2,8,58,106.34885808313265,107.1679169961717,"[62, 0, 192]",192,a,0.295671948348172,colour,0.5
024,76,0,1,2,9,59,107.67693291709293,109.33592890924774,"[73, 0, 181]",181,a,1.1355282891308889,colour,0.5
024,76,0,1,2,10,60,109.84883051400539,110.39194837154355,"[57, 0, 197]",197,a,0.019734831410460174,colour,0.5
024,76,0,1,2,11,61,110.91138309240341,111.63988422509283,"[5, 0, 249]",249,a,0.20474986056797206,colour,0.5
024,76,0,1,2,12,62,112.15384173067287,115.1999165834859,"[92, 0, 162]",162,l,2.5227619311772287,colour,0.5
024,76,0,1,2,13,63,115.70928263338283,116.68789837521035,"[85, 0, 169]",169,l,0.4553240879904479,colour,0.5
024,76,0,1,2,14,64,117.20517363888212,118.7839467615122,"[75, 0, 179]",179,a,1.0554365703137591,colour,0.5
024,76,0,1,2,15,65,119.30405417119619,120.13593355671037,"[68, 0, 186]",186,a,0.3086314485408366,colour,0.5
024,76,0,1,2,16,66,120.64774223894347,122.84793530218303,"[21, 0, 233]",233,a,1.6768041293835267,colour,0.5
024,76,0,1,2,17,67,123.36795882263687,124.79993139207363,"[4, 0, 250]",250,a,0.9090365583542734,colour,0.5
024,76,0,1,2,18,68,125.32100805651862,126.43190561560914,"[95, 0, 159]",159,l,0.5876957019791007,colour,0.5
024,76,0,1,2,19,69,126.94595803809352,128.14392784121446,"[74, 0, 180]",180,a,0.674541090731509,colour,0.5
024,76,0,1,2,20,70,128.66468470275868,129.64784503274132,"[65, 0, 189]",189,a,0.45840593229513615,colour,0.5
024,76,0,1,2,21,71,130.16603913891595,130.69645861629397,"[11, 0, 243]",243,a,0.007092771236784756,colour,0.5
024,76,0,1,2,22,72,131.22849483124446,133.31993403867818,"[22, 0, 232]",232,a,1.5681022612843663,colour,0.5
024,76,0,1,2,23,73,133.83782252052333,135.70388536877,"[0, 0, 254]",254,a,1.3430547633906826,colour,0.5
024,76,0,1,2,24,74,136.21430535032414,138.07188318215776,"[42, 0, 212]",212,a,1.3342467932961881,colour,0.5
024,76,0,1,2,25,75,138.58936442725826,140.33588598005008,"[51, 0, 203]",203,a,1.2233354495838284,colour,0.5
024,76,0,1,2,26,76,140.85637896484695,141.6719968460966,"[45, 0, 209]",209,a,0.2925062148133293,colour,0.5
024,76,0,1,2,27,77,142.18464008788578,143.1039497232996,"[44, 0, 210]",210,a,0.39638110739178956,colour,0.5
024,76,0,1,2,28,78,143.6219193371944,144.43988690327387,"[32, 0, 222]",222,a,0.29461998597253114,colour,0.5
024,76,0,1,2,29,79,144.95017691561952,146.81590460112784,"[27, 0, 227]",227,a,1.342788917478174,colour,0.5
024,76,0,1,2,30,80,147.32655773940496,148.80790047044866,"[80, 0, 174]",174,l,0.9579569478519261,colour,0.5
024,76,0,1,2,31,81,149.3265604963526,150.63189112208784,"[55, 0, 199]",199,a,0.7819090026896447,colour,0.5
024,76,0,1,2,32,82,151.13908629328944,151.73587865452282,"[53, 0, 201]",201,a,0.07354206114541739,colour,0.5
024,76,0,1,2,33,83,152.24841989018023,153.43191231100354,"[91, 0, 163]",163,l,0.6601893453625962,colour,0.5
024,76,0,1,2,34,84,153.9515191424871,154.7438839667011,"[82, 0, 172]",172,l,0.269053871743381,colour,0.5
024,76,0,1,2,35,85,155.26400082872715,155.8958931323141,"[81, 0, 173]",173,l,0.10857189889065921,colour,0.5
024,76,0,1,2,36,86,156.40462902875151,157.50383960397448,"[34, 0, 220]",220,a,0.5762032781494781,colour,0.5
024,76,0,1,2,37,87,158.01399964711163,159.56786004605237,"[29, 0, 225]",225,a,1.030687292572111,colour,0.5
024,76,0,1,2,38,88,160.07770816341508,160.62386139144655,"[24, 0, 230]",230,a,0.02280052797868848,colour,0.5
024,76,0,1,2,39,89,161.14013589266688,163.20785730495118,"[10, 0, 244]",244,a,1.544444330735132,colour,0.5
024,76,0,1,2,40,90,163.71925796277355,164.9758733927738,"[83, 0, 171]",171,l,0.7333225944312289,colour,0.5
024,76,0,1,2,41,91,165.4848369320389,166.89586832001805,"[77, 0, 177]",177,l,0.8876353648956865,colour,0.5
024,76,0,1,2,42,92,167.406657335232,168.39186487626284,"[39, 0, 215]",215,a,0.46207500086165965,colour,0.5
024,76,0,1,2,43,93,168.90850604791194,170.66391630936414,"[28, 0, 226]",226,a,1.2319256230257452,colour,0.5
024,76,0,1,2,44,94,171.17418466019444,172.4878533979645,"[87, 0, 167]",167,l,0.7907382404664531,colour,0.5
024,76,0,1,2,45,95,173.00228115567006,174.00823177362327,"[97, 0, 157]",157,l,0.48263848409987986,colour,0.5
024,76,0,1,2,46,96,174.5178479156457,175.56788958457764,"[14, 0, 240]",240,a,0.5266657319152728,colour,0.5
024,76,0,1,2,47,97,176.08032093720976,178.56786044000182,"[12, 0, 242]",242,a,1.9641395412618294,colour,0.5
024,76,0,1,2,48,98,179.08154658565763,180.7838668108452,"[3, 0, 251]",251,a,1.17895925429184,colour,0.5
024,76,0,1,2,49,99,181.3003220872488,182.40782508836128,"[35, 0, 219]",219,a,0.5841833840822801,colour,0.5
024,76,0,1,2,50,100,182.92698648013175,184.05590091471095,"[84, 0, 170]",170,l,0.605482965358533,colour,0.5
024,76,0,1,3,1,101,188.48851624072995,189.74394343746826,"[43, 0, 211]",211,a,0.7314549770671874,colour,0.5
024,76,0,1,3,2,102,190.25482697563712,191.82386501482688,"[22, 0, 232]",232,a,1.0459980528103188,colour,0.5
024,76,0,1,3,3,103,192.33424521796405,193.5518671447644,"[75, 0, 179]",179,l,0.6942463837331161,colour,0.5
024,76,0,1,3,4,104,194.06855124572758,195.19186479749624,"[30, 0, 224]",224,a,0.5989719046046957,colour,0.5
024,76,0,1,3,5,105,195.71009868208785,196.39182903629262,"[9, 0, 245]",245,a,0.15830282343085855,colour,0.5
024,76,0,1,3,6,106,196.91306638985407,198.73589598375838,"[18, 0, 236]",236,a,1.2994701984571293,colour,0.5
024,76,0,1,3,7,107,199.2570140020689,200.3519304752117,"[85, 0, 169]",169,l,0.5717366714961827,colour,0.5
024,76,0,1,3,8,108,200.86781388742384,201.9518350069411,"[49, 0, 205]",205,a,0.5606408503372222,colour,0.5
024,76,0,1,3,9,109,202.4615374011919,203.02386115514673,"[39, 0, 215]",215,a,0.038835570914670825,colour,0.5
024,76,0,1,3,10,110,203.53971463500056,204.15181499964092,"[7, 0, 247]",247,a,0.09405001217965037,colour,0.5
024,76,0,1,3,11,111,204.6597525703255,206.02383594901767,"[58, 0, 196]",196,a,0.8407468263758346,colour,0.5
024,76,0,1,3,12,112,206.53470412723254,207.48782582872082,"[38, 0, 216]",216,a,0.42971465073060244,colour,0.5
024,76,0,1,3,13,113,208.0033118503634,209.11190816783346,"[89, 0, 165]",165,l,0.5849962821230292,colour,0.5
024,76,0,1,3,14,114,209.6307127351174,210.6799092106521,"[12, 0, 242]",242,a,0.5258323539746925,colour,0.5
024,76,0,1,3,15,115,211.1932125382591,213.00783044460695,"[10, 0, 244]",244,a,1.2912943509873003,colour,0.5
024,76,0,1,3,16,116,213.51994987134822,214.58389154437464,"[19, 0, 235]",235,a,0.5403979576658458,colour,0.5
024,76,0,1,3,17,117,215.09814207127783,216.21583898633253,"[25, 0, 229]",229,a,0.5943670580163598,colour,0.5
024,76,0,1,3,18,118,216.72307984367944,217.93583934870549,"[87, 0, 167]",167,l,0.689552134135738,colour,0.5
024,76,0,1,3,19,119,218.45745243132114,219.88788033707533,"[73, 0, 181]",181,l,0.9056451511569321,colour,0.5
024,76,0,1,3,20,120,220.39629406749737,221.66381863562856,"[8, 0, 246]",246,a,0.7439430436352268,colour,0.5
024,76,0,1,3,21,121,222.17749572289176,222.99190016486682,"[59, 0, 195]",195,a,0.2913790278835222,colour,0.5
024,76,0,1,3,22,122,223.50561663671397,225.0639038637746,"[40, 0, 214]",214,a,1.0334154632873833,colour,0.5
024,76,0,1,3,23,123,225.5700840940699,226.8078287905082,"[74, 0, 180]",180,l,0.7143825441598892,colour,0.5
024,76,0,1,3,24,124,227.32013883860782,228.34385584609117,"[93, 0, 161]",161,l,0.49898702825885266,colour,0.5
024,76,0,1,3,25,125,228.85283238242846,229.93585313332733,"[65, 0, 189]",189,a,0.5596550540067255,colour,0.5
024,76,0,1,3,26,126,230.4463778778445,231.01582275994588,"[4, 0, 250]",250,a,0.04591888980939984,colour,0.5
024,76,0,1,3,27,127,231.52462442859542,232.63992676045746,"[77, 0, 177]",177,l,0.5919094595592469,colour,0.5
024,76,0,1,3,28,128,233.1495818932308,234.75184004823677,"[67, 0, 187]",187,a,1.0791354610119015,colour,0.5
024,76,0,1,3,29,129,235.26024235703517,236.4718345028814,"[17, 0, 237]",237,a,0.6882284181192517,colour,0.5
024,76,0,1,3,30,130,236.99462557863444,238.19985908200033,"[70, 0, 184]",184,a,0.6817914003040642,colour,0.5
024,76,0,1,3,31,131,238.71333924634382,239.48789514566306,"[24, 0, 230]",230,a,0.25106456549838185,colour,0.5
024,76,0,1,3,32,132,239.99601467314642,241.5998198549496,"[20, 0, 234]",234,a,1.0804461801890284,colour,0.5
024,76,0,1,3,33,133,242.121041060891,243.47980200580787,"[84, 0, 170]",170,l,0.8355074940482154,colour,0.5
024,76,0,1,3,34,134,243.99593196553178,244.95982102071866,"[78, 0, 176]",176,l,0.44050248444546014,colour,0.5
024,76,0,1,3,35,135,245.48035851016175,246.71185720409267,"[36, 0, 218]",218,a,0.7059211583109573,colour,0.5
024,76,0,1,3,36,136,247.23253214580473,248.36783712427132,"[72, 0, 182]",182,l,0.6118794169742614,colour,0.5
024,76,0,1,3,37,137,248.88876097649336,249.42383768199943,"[96, 0, 158]",158,l,0.01175984542351216,colour,0.5
024,76,0,1,3,38,138,249.93562942883,251.64780289120972,"[97, 0, 157]",157,l,1.1887026085751131,colour,0.5
024,76,0,1,3,39,139,252.15441241348162,253.20787030190695,"[32, 0, 222]",222,a,0.5300508376676589,colour,0.5
024,76,0,1,3,40,140,253.7168854350457,255.39986073609907,"[42, 0, 212]",212,a,1.157930638990365,colour,0.5
024,76,0,1,3,41,141,255.92153919721022,256.99986491084564,"[48, 0, 206]",206,a,0.5549324474995956,colour,0.5
024,76,0,1,3,42,142,257.51534660020843,258.4957980578765,"[61, 0, 193]",193,a,0.4570956068346277,colour,0.5
024,76,0,1,3,43,143,259.0153430555947,260.319987601717,"[3, 0, 251]",251,a,0.7816088920226321,colour,0.5
024,76,0,1,3,44,144,260.8304402725771,262.39184833469335,"[54, 0, 200]",200,a,1.0378927037818357,colour,0.5
024,76,0,1,3,45,145,262.90856276173145,264.1918321083067,"[88, 0, 166]",166,l,0.7600225911010057,colour,0.5
024,76,0,1,3,46,146,264.7053835587576,266.2318070754409,"[81, 0, 173]",173,l,1.0031078382162377,colour,0.5
024,76,0,1,3,47,147,266.752271309495,267.3438180369558,"[99, 0, 155]",155,l,0.06817197205964476,colour,0.5
024,76,0,1,3,48,148,267.86161042028107,269.00782611232717,"[34, 0, 220]",220,a,0.6228050966747105,colour,0.5
024,76,0,1,3,49,149,269.51912003802136,270.5918023334816,"[98, 0, 156]",156,l,0.5493477123090997,colour,0.5
024,76,0,1,3,50,150,271.11270413035527,273.49580239027273,"[90, 0, 164]",164,l,1.8596427660668269,colour,0.5
024,76,0,1,4,1,151,278.0811535274843,279.35978967056144,"[54, 0, 200]",200,a,0.7521535494597629,colour,0.5
024,76,0,1,4,2,152,279.88114793482237,281.1198039908195,"[67, 0, 187]",187,a,0.7153829127782956,colour,0.5
024,76,0,1,4,3,153,281.62983524636365,283.4637957137311,"[43, 0, 211]",211,a,1.3108960625249892,colour,0.5
024,76,0,1,4,4,154,283.9754275592277,284.9438635655679,"[32, 0, 222]",222,a,0.4450002048397437,colour,0.5
024,76,0,1,4,5,155,285.4598635560833,287.33584659546614,"[57, 0, 197]",197,a,1.3526579085737467,colour,0.5
024,76,0,1,4,6,156,287.85191787208896,288.4077541960869,"[3, 0, 251]",251,a,0.03237374091986567,colour,0.5
024,76,0,1,4,7,157,288.9143763213651,289.60782595479395,"[27, 0, 227]",227,a,0.1708011298906058,colour,0.5
024,76,0,1,4,8,158,290.1174365829211,291.56787737528794,"[41, 0, 213]",213,a,0.9272806829540059,colour,0.5
024,76,0,1,4,9,159,292.08608014613856,293.39985167770647,"[73, 0, 181]",181,l,0.7902211209293455,colour,0.5
024,76,0,1,4,10,160,293.91592137899715,294.79993926896714,"[25, 0, 229]",229,a,0.360949152847752,colour,0.5
024,76,0,1,4,11,161,295.30651334510185,297.2638870072551,"[30, 0, 224]",224,a,1.4341914973920211,colour,0.5
024,76,0,1,4,12,162,297.7752967235865,299.07193871447816,"[36, 0, 218]",218,a,0.7736059429589659,colour,0.5
024,76,0,1,4,13,163,299.58885518449824,300.6879834459396,"[74, 0, 180]",180,l,0.5762028842000291,colour,0.5
024,76,0,1,4,14,164,301.1983061474748,302.0558571978472,"[26, 0, 228]",228,a,0.3343586456030607,colour,0.5
024,76,0,1,4,15,165,302.5747610143153,303.86381871439517,"[46, 0, 208]",208,a,0.7659712398890406,colour,0.5
024,76,0,1,4,16,166,304.37165506661404,305.41582488664426,"[50, 0, 204]",204,a,0.5216627072077245,colour,0.5
024,76,0,1,4,17,167,305.9340544389561,307.0078320200555,"[95, 0, 159]",159,l,0.5503547764383256,colour,0.5
024,76,0,1,4,18,168,307.52782324515283,308.6399661450414,"[9, 0, 245]",245,a,0.5887775968294591,colour,0.5
024,76,0,1,4,19,169,309.15289138047956,310.4879364995286,"[5, 0, 249]",249,a,0.8117648866027594,colour,0.5
024,76,0,1,4,20,170,310.99655502976384,312.07179180998355,"[21, 0, 233]",233,a,0.5519774216227233,colour,0.5
024,76,0,1,4,21,171,312.57864354748745,313.6078306809068,"[14, 0, 240]",240,a,0.5063700638711452,colour,0.5
024,76,0,1,4,22,172,314.1255344490055,315.19982599886134,"[24, 0, 230]",230,a,0.5511133235413581,colour,0.5
024,76,0,1,4,23,173,315.71919455367606,316.9437973994063,"[93, 0, 161]",161,l,0.7011914626928046,colour,0.5
024,76,0,1,4,24,174,317.4535998305073,319.31190470198635,"[72, 0, 182]",182,l,1.335019912919961,colour,0.5
024,76,0,1,4,25,175,319.8198974110419,320.91216133197304,"[34, 0, 220]",220,a,0.5687784948386252,colour,0.5
024,76,0,1,4,26,176,321.4240605987143,324.7038156581111,"[6, 0, 248]",248,a,2.756487430073321,colour,0.5
024,76,0,1,4,27,177,325.2209463802865,326.4238175958162,"[76, 0, 178]",178,l,0.6793983924435452,colour,0.5
024,76,0,1,4,28,178,326.94110270566307,328.19182816974353,"[82, 0, 172]",172,l,0.72731565637514,colour,0.5
024,76,0,1,4,29,179,328.70658793952316,329.4718636474572,"[80, 0, 174]",174,l,0.24226250301580876,colour,0.5
024,76,0,1,4,30,180,329.9879711578833,330.831770683988,"[96, 0, 158]",158,l,0.32099072728306055,colour,0.5
024,76,0,1,4,31,181,331.3472704902524,332.1037917910144,"[75, 0, 179]",179,l,0.23336591746192425,colour,0.5
024,76,0,1,4,32,182,332.6128998717759,334.1678138085408,"[99, 0, 155]",155,l,1.0314218152780086,colour,0.5
024,76,0,1,4,33,183,334.67659420950804,336.56786752922926,"[78, 0, 176]",176,l,1.3679958442226052,colour,0.5
024,76,0,1,4,34,184,337.082926227944,338.57594530901406,"[66, 0, 188]",188,a,0.9700795253738761,colour,0.5
024,76,0,1,4,35,185,339.0842089841608,340.0798286298523,"[45, 0, 209]",209,a,0.4724414193769917,colour,0.5
024,76,0,1,4,36,186,340.5999978733016,341.52778661751654,"[40, 0, 214]",214,a,0.4046341486973688,colour,0.5
024,76,0,1,4,37,187,342.03715266729705,343.1197799661895,"[1, 0, 253]",253,a,0.5602210105862468,colour,0.5
024,76,0,1,4,38,188,343.6310179657303,344.72783553309273,"[12, 0, 242]",242,a,0.5730154891498387,colour,0.5
024,76,0,1,4,39,189,345.24177728488576,346.57576413988136,"[77, 0, 177]",177,l,0.8111252808012068,colour,0.5
024,76,0,1,4,40,190,347.0853535004426,349.9038007707568,"[44, 0, 210]",210,a,2.2934439621167257,colour,0.5
024,76,0,1,4,41,191,350.4150241978932,351.567837990704,"[87, 0, 167]",167,l,0.6294366742949933,colour,0.5
024,76,0,1,4,42,192,352.0868705948815,353.2317850200925,"[91, 0, 163]",163,l,0.6213628329569474,colour,0.5
024,76,0,1,4,43,193,353.743131721043,354.43974118027836,"[84, 0, 170]",170,l,0.173135454650037,colour,0.5
024,76,0,1,4,44,194,354.94631171179935,356.33576664479915,"[69, 0, 185]",185,l,0.8660923868883401,colour,0.5
024,76,0,1,4,45,195,356.8540631508222,358.11977445241064,"[83, 0, 171]",171,l,0.7423830198822543,colour,0.5
024,76,0,1,4,46,196,358.6352514155442,359.7277886654483,"[85, 0, 169]",169,l,0.5691042053513229,colour,0.5
024,76,0,1,4,47,197,360.2446515724296,361.35987198434304,"[13, 0, 241]",241,a,0.5917251396458596,colour,0.5
024,76,0,1,4,48,198,361.86960785556585,362.9357448257506,"[22, 0, 232]",232,a,0.551159797469154,colour,0.5
024,76,0,1,4,49,199,363.4547510421835,365.75977840658743,"[70, 0, 184]",184,l,1.7815714767202735,colour,0.5
024,76,0,1,4,50,200,366.2672276083613,367.2157677002251,"[37, 0, 217]",217,a,0.42502473352942616,colour,0.5
024,76,0,1,5,1,201,371.9090180476196,373.3997496715747,"[77, 0, 177]",177,l,0.9665979273850098,colour,0.5
024,76,0,1,5,2,202,373.9098167672055,374.91977673664223,"[20, 0, 234]",234,a,0.48657339869532734,colour,0.5
024,76,0,1,5,3,203,375.4409817949636,376.0078056323109,"[56, 0, 198]",198,a,0.04338488506618887,colour,0.5
024,76,0,1,5,4,204,376.5191302780295,377.09574276197236,"[32, 0, 222]",222,a,0.053315316210500896,colour,0.5
024,76,0,1,5,5,205,377.6128443395719,379.12771674920805,"[38, 0, 216]",216,a,0.9913637466961518,colour,0.5
024,76,0,1,5,6,206,379.6453287510667,380.7758004524512,"[1, 0, 253]",253,a,0.6071115182712674,colour,0.5
024,76,0,1,5,7,207,381.28595576959196,384.2078832987463,"[68, 0, 186]",186,l,2.3988209827803075,colour,0.5
024,76,0,1,5,8,208,384.7249565194361,386.01576919690706,"[91, 0, 163]",163,l,0.7677569371880963,colour,0.5
024,76,0,1,5,9,209,386.5092081177281,387.5757932844572,"[54, 0, 200]",200,a,0.5465907908510417,colour,0.5
024,76,0,1,5,10,210,388.08394274429884,389.3677977396874,"[23, 0, 231]",231,a,0.761279747239314,colour,0.5
024,76,0,1,5,11,211,389.88201360823587,391.5038352715783,"[30, 0, 224]",224,a,1.098468175623566,colour,0.5
024,76,0,1,5,12,212,392.02263550669886,392.8637828743085,"[37, 0, 217]",217,a,0.3177568584214896,colour,0.5
024,76,0,1,5,13,213,393.38210694969166,394.81573367200326,"[35, 0, 219]",219,a,0.910626120516099,colour,0.5
024,76,0,1,5,14,214,395.33364735986106,396.2477357798489,"[41, 0, 213]",213,a,0.38827812136150897,colour,0.5
024,76,0,1,5,15,215,396.7580533614382,397.55977084476035,"[31, 0, 223]",223,a,0.2783813248388469,colour,0.5
024,76,0,1,5,16,216,398.0704220138723,398.6077440348454,"[52, 0, 202]",202,a,0.014317874563857913,colour,0.5
024,76,0,1,5,17,217,399.11731409688946,399.67172194167506,"[53, 0, 201]",201,a,0.031555329100228846,colour,0.5
024,76,0,1,5,18,218,400.17967172164936,401.5517529294593,"[6, 0, 248]",248,a,0.8489033754449338,colour,0.5
024,76,0,1,5,19,219,402.0727173478808,403.5600362968398,"[81, 0, 173]",173,l,0.9645743470173329,colour,0.5
024,76,0,1,5,20,220,404.0727697293041,405.7117130565457,"[9, 0, 245]",245,a,1.1157044486608356,colour,0.5
024,76,0,1,5,21,221,406.22909150773194,407.3517150414409,"[83, 0, 171]",171,l,0.5992440520785749,colour,0.5
024,76,0,1,5,22,222,407.8710001008585,408.9197739796946,"[17, 0, 237]",237,a,0.5254160587210208,colour,0.5
024,76,0,1,5,23,223,409.4336641377304,410.12772226310335,"[0, 0, 254]",254,a,0.17065343772992492,colour,0.5
024,76,0,1,5,24,224,410.6366854085354,411.7836880047107,"[85, 0, 169]",169,l,0.6236735269194469,colour,0.5
024,76,0,1,5,25,225,412.2928689470282,413.5998064641608,"[8, 0, 246]",246,a,0.7834662694949657,colour,0.5
024,76,0,1,5,26,226,414.1210190054262,415.49573149799835,"[67, 0, 187]",187,l,0.851623275433667,colour,0.5
024,76,0,1,5,27,227,416.0116208178224,417.06372545158956,"[42, 0, 212]",212,a,0.5288429121719673,colour,0.5
024,76,0,1,5,28,228,417.57408478087746,418.71175677340943,"[89, 0, 165]",165,l,0.6142826648429036,colour,0.5
024,76,0,1,5,29,229,419.2303533900995,420.31176488660276,"[51, 0, 203]",203,a,0.5587885929271579,colour,0.5
024,76,0,1,5,30,230,420.82421790086664,421.87967495108023,"[65, 0, 189]",189,a,0.5322047809604555,colour,0.5
024,76,0,1,5,31,231,422.3867452731356,422.9117942675948,"[61, 0, 193]",193,a,0.0017140174750238657,colour,0.5
024,76,0,1,5,32,232,423.43347824236844,424.527720451355,"[4, 0, 250]",250,a,0.5711403887253255,colour,0.5
024,76,0,1,5,33,233,425.17990763532,426.4237128328532,"[79, 0, 175]",175,l,0.7171831824816763,colour,0.5
024,76,0,1,5,34,234,426.933529048576,428.33575798012316,"[87, 0, 167]",167,l,0.8788100654492155,colour,0.5
024,76,0,1,5,35,235,428.85538726090454,430.039721724228,"[48, 0, 206]",206,a,0.6610562001587823,colour,0.5
024,76,0,1,5,36,236,430.55854716547765,431.8717090234859,"[78, 0, 176]",176,l,0.789679582696408,colour,0.5
024,76,0,1,5,37,237,432.3865719808964,433.1357181229396,"[75, 0, 179]",179,l,0.22566189744975418,colour,0.5
024,76,0,1,5,38,238,433.65223641472403,434.21576139878016,"[86, 0, 168]",168,l,0.04009902861434966,colour,0.5
024,76,0,1,5,39,239,434.73033684853,435.85568658378907,"[5, 0, 249]",249,a,0.6018973921891302,colour,0.5
024,76,0,1,5,40,240,436.3752201598836,436.99173159874044,"[19, 0, 235]",235,a,0.0975930499844253,colour,0.5
024,76,0,1,5,41,241,437.5121907128487,438.67969850311056,"[76, 0, 178]",178,l,0.6449884681496769,colour,0.5
024,76,0,1,5,42,242,439.19917694083415,440.24768654908985,"[34, 0, 220]",220,a,0.5254826188320294,colour,0.5
024,76,0,1,5,43,243,440.7616011254722,441.29645648947917,"[44, 0, 210]",210,a,0.01141207932960242,colour,0.5
024,76,0,1,5,44,244,441.80831046402454,442.35967978753615,"[14, 0, 240]",240,a,0.027791343512944877,colour,0.5
024,76,0,1,5,45,245,442.8709611101076,444.29574165912345,"[46, 0, 208]",208,a,0.9013762550894171,colour,0.5
024,76,0,1,5,46,246,444.80855622387026,445.98375818808563,"[99, 0, 155]",155,l,0.6521036885678768,colour,0.5
024,76,0,1,5,47,247,446.4958764332114,448.3437947999919,"[33, 0, 221]",221,a,1.32450186368078,colour,0.5
024,76,0,1,5,48,248,448.85528171015903,449.6557404618943,"[72, 0, 182]",182,l,0.27705445792526007,colour,0.5
024,76,0,1,5,49,249,450.1678390147863,450.79168701544404,"[93, 0, 161]",161,l,0.10098524496424943,colour,0.5
024,76,0,1,5,50,250,451.30830613174476,452.03169790131506,"[66, 0, 188]",188,a,0.2001867616781965,colour,0.5
024,76,0,1,6,1,251,456.4638122553006,457.90379683231004,"[85, 0, 169]",169,l,0.916171864955686,colour,0.5
024,76,0,1,6,2,252,458.4177657593973,458.9757280636113,"[80, 0, 174]",174,l,0.03525157296098769,colour,0.5
024,76,0,1,6,3,253,459.49590282095596,460.103721292573,"[8, 0, 246]",246,a,0.084470497793518,colour,0.5
024,76,0,1,6,4,254,460.620878796326,461.2876867223531,"[74, 0, 180]",180,l,0.14367262891028076,colour,0.5
024,76,0,1,6,5,255,461.8084234978305,462.4556801246945,"[15, 0, 239]",239,a,0.12409336667042226,colour,0.5
024,76,0,1,6,6,256,462.9646058548242,463.7757311356254,"[86, 0, 168]",168,l,0.28807347908150405,colour,0.5
024,76,0,1,6,7,257,464.2926523317583,465.8957218093565,"[11, 0, 243]",243,a,1.079505282221362,colour,0.5
024,76,0,1,6,8,258,466.40211432252545,466.9917635002639,"[66, 0, 188]",188,l,0.06691560347098857,colour,0.5
024,76,0,1,6,9,259,467.51147115638014,468.2716757041635,"[57, 0, 197]",197,l,0.2374048074707389,colour,0.5
024,76,0,1,6,10,260,468.7926393348025,469.3197650788352,"[38, 0, 216]",216,a,0.003702545538544655,colour,0.5
024,76,0,1,6,11,261,469.83972637169063,470.38367485033814,"[32, 0, 222]",222,a,0.020877378527075052,colour,0.5
024,76,0,1,6,12,262,470.9021103840787,471.4317764341831,"[20, 0, 234]",234,a,0.006756426766514778,colour,0.5
024,76,0,1,6,13,263,471.9492167192511,472.6237231515115,"[69, 0, 185]",185,l,0.151281732134521,colour,0.5
024,76,0,1,6,14,264,473.13657355622854,473.7996529430384,"[13, 0, 241]",241,a,0.13974637899082154,colour,0.5
024,76,0,1,6,15,265,474.3083065255778,474.9036818292225,"[26, 0, 228]",228,a,0.07254090486094356,colour,0.5
024,76,0,1,6,16,266,475.4177314947592,476.99168945720885,"[35, 0, 219]",219,a,1.050860868417658,colour,0.5
024,76,0,1,6,17,267,477.5114628855372,478.56770093238447,"[34, 0, 220]",220,a,0.5327860976103693,colour,0.5
024,76,0,1,6,18,268,479.0739563871175,480.28775485779624,"[55, 0, 199]",199,a,0.6907285519409925,colour,0.5
024,76,0,1,6,19,269,480.8083065255778,481.55187226482667,"[53, 0, 201]",201,a,0.22026778373401612,colour,0.5
024,76,0,1,6,20,270,482.05829274095595,483.463721670676,"[23, 0, 231]",231,a,0.8818269252078608,colour,0.5
024,76,0,1,6,21,271,483.9802198763937,484.5360105141299,"[99, 0, 155]",155,l,0.03268527297768742,colour,0.5
024,76,0,1,6,22,272,485.0426038886653,486.39983474230394,"[29, 0, 225]",225,a,0.8332877785433084,colour,0.5
024,76,0,1,6,23,273,486.91246301785577,487.55964520783164,"[30, 0, 224]",224,l,0.1241067573428154,colour,0.5
024,76,0,1,6,24,274,488.0698308510473,489.0797124452656,"[72, 0, 182]",182,l,0.4865434664534405,colour,0.5
024,76,0,1,6,25,275,489.6010604695184,491.0636777962791,"[39, 0, 215]",215,a,0.9394099557539448,colour,0.5
024,76,0,1,6,26,276,491.56976232188754,492.11965236009564,"[81, 0, 173]",173,l,0.027232476160861552,colour,0.5
024,76,0,1,6,27,277,492.6322227404453,493.93577436415944,"[83, 0, 171]",171,l,0.7802465790882707,colour,0.5
024,76,0,1,6,28,278,494.4447343588108,495.4157216990134,"[84, 0, 170]",170,l,0.448123796726577,colour,0.5
024,76,0,1,6,29,279,495.9290797711583,496.5676670615794,"[46, 0, 208]",208,a,0.11539646098390222,colour,0.5
024,76,0,1,6,30,280,497.0855216726195,497.7836608294165,"[77, 0, 177]",177,l,0.17521023494191468,colour,0.5
024,76,0,1,6,31,281,498.30422037420794,498.911682809121,"[22, 0, 232]",232,a,0.08412194414995611,colour,0.5
024,76,0,1,6,32,282,499.4293353771791,500.99987475702073,"[59, 0, 195]",195,a,1.047274901298806,colour,0.5
024,76,0,1,6,33,283,501.50725582346786,502.2236576155992,"[79, 0, 175]",175,l,0.19315149204339832,colour,0.5
024,76,0,1,6,34,284,502.7416477096267,503.4319875355577,"[6, 0, 248]",248,a,0.16696467669680715,colour,0.5
024,76,0,1,6,35,285,503.944720574189,504.57567985681817,"[73, 0, 181]",181,l,0.1074848840944469,colour,0.5
024,76,0,1,6,36,286,505.0854035188677,505.71964668878354,"[40, 0, 214]",214,a,0.11083257454447448,colour,0.5
024,76,0,1,6,37,287,506.22593877115287,507.54375864495523,"[54, 0, 200]",200,l,0.7946747305104509,colour,0.5
024,76,0,1,6,38,288,508.06602236104663,508.62368022231385,"[24, 0, 230]",230,a,0.03468601021450013,colour,0.5
024,76,0,1,6,39,289,509.14424252405297,509.7916941046715,"[19, 0, 235]",235,a,0.12411896674893796,colour,0.5
024,76,0,1,6,40,290,510.30040282569826,510.83167537336703,"[43, 0, 211]",211,a,0.007942296913824975,colour,0.5
024,76,0,1,6,41,291,511.3629053856712,513.0876665575197,"[42, 0, 212]",212,a,1.2013872041134164,colour,0.5
024,76,0,1,6,42,292,513.5971172841964,514.2316499309381,"[76, 0, 178]",178,l,0.11095230374485254,colour,0.5
024,76,0,1,6,43,293,514.7378033795394,515.319713878911,"[14, 0, 240]",240,a,0.05841955938376486,colour,0.5
024,76,0,1,6,44,294,515.8316694656387,516.3917199409334,"[91, 0, 163]",163,l,0.036661935271695256,colour,0.5
024,76,0,1,6,45,295,516.9024305808125,517.4556820939761,"[3, 0, 251]",251,a,0.029937016195617616,colour,0.5
024,76,0,1,6,46,296,517.9647988392971,518.6876278030686,"[58, 0, 196]",196,l,0.19939434377010912,colour,0.5
024,76,0,1,6,47,297,519.199254922336,519.759667342063,"[33, 0, 221]",221,a,0.03711800882592797,colour,0.5
024,76,0,1,6,48,298,520.2772891900968,520.8396605993621,"[90, 0, 164]",164,l,0.039009650819934905,colour,0.5
024,76,0,1,6,49,299,521.3555034453748,522.0156388338655,"[61, 0, 193]",193,a,0.1368181345751509,colour,0.5
024,76,0,1,6,50,300,522.5273262115661,523.3436892493628,"[65, 0, 189]",189,l,0.29287446092348546,colour,0.5
024,76,0,1,7,1,301,529.2453612828394,530.7439706128789,"[92, 0, 162]",162,l,0.9745331350713968,colour,0.5
024,76,0,1,7,2,302,531.2615566209424,531.8157120104879,"[15, 0, 239]",239,a,0.031055144732818007,colour,0.5
024,76,0,1,7,3,303,532.3240875378251,532.8717011465924,"[37, 0, 217]",217,a,0.024481856264173985,colour,0.5
024,76,0,1,7,4,304,533.3866003378062,535.575701912283,"[33, 0, 221]",221,a,1.66613681265153,colour,0.5
024,76,0,1,7,5,305,536.0897665439406,536.6957658412866,"[79, 0, 175]",175,l,0.08340317534748465,colour,0.5
024,76,0,1,7,6,306,537.2146247593919,537.7596893974114,"[8, 0, 246]",246,a,0.02178637485485524,colour,0.5
024,76,0,1,7,7,307,538.2771544947755,538.8237251995597,"[84, 0, 170]",170,l,0.023970250389538705,colour,0.5
024,76,0,1,7,8,308,539.3395641071256,540.7276839024853,"[83, 0, 171]",171,l,0.8645355139160529,colour,0.5
024,76,0,1,7,9,309,541.2459977377439,541.7916271508439,"[24, 0, 230]",230,a,0.02199393161572516,colour,0.5
024,76,0,1,7,10,310,542.3084357070038,542.9116540583782,"[7, 0, 247]",247,a,0.08001413114834577,colour,0.5
024,76,0,1,7,11,311,543.417759851669,544.9277127319947,"[51, 0, 203]",203,a,0.9971198048442602,colour,0.5
024,76,0,1,7,12,312,545.4383839871734,546.8797438741894,"[45, 0, 209]",209,a,0.9176590271526948,colour,0.5
024,76,0,1,7,13,313,547.3781393459067,547.9037109737983,"[98, 0, 156]",156,l,0.0080986536340788,colour,0.5
024,76,0,1,7,14,314,548.4175219687168,550.063707728521,"[85, 0, 169]",169,a,1.130853338050656,colour,0.5
024,76,0,1,7,15,315,550.5733671935741,551.9916465280112,"[42, 0, 212]",212,a,0.8993637025123462,colour,0.5
024,76,0,1,7,16,316,552.5000350523042,553.8956272862852,"[96, 0, 158]",158,l,0.8721131093334407,colour,0.5
024,76,0,1,7,17,317,554.412265701103,554.9676353175892,"[31, 0, 223]",223,a,0.032115771784447134,colour,0.5
024,76,0,1,7,18,318,555.4745217135642,556.6957426044391,"[61, 0, 193]",193,a,0.697807538555935,colour,0.5
024,76,0,1,7,19,319,557.2088600366842,557.791751606157,"[58, 0, 196]",196,a,0.05998903536237776,colour,0.5
024,76,0,1,7,20,320,558.3025512550958,559.0476360580651,"[3, 0, 251]",251,a,0.23461362137459219,colour,0.5
024,76,0,1,7,21,321,559.5560560900485,561.2156456080265,"[55, 0, 199]",199,a,1.136390023981221,colour,0.5
024,76,0,1,7,22,322,561.7279241484357,562.9276587751228,"[52, 0, 202]",202,a,0.6763145789736882,colour,0.5
024,76,0,1,7,23,323,563.4467114653671,564.5768393392209,"[41, 0, 213]",213,a,0.6068133768858388,colour,0.5
024,76,0,1,7,24,324,565.0873278499348,565.6316579653649,"[32, 0, 222]",222,a,0.021104233688674867,colour,0.5
024,76,0,1,7,25,325,566.1497855115449,567.175615502405,"[30, 0, 224]",224,a,0.5027970937080681,colour,0.5
024,76,0,1,7,26,326,567.6968662468717,569.4556616139598,"[60, 0, 194]",194,a,1.2356718854280189,colour,0.5
024,76,0,1,7,27,327,569.9626480466686,570.5196576376911,"[66, 0, 188]",188,a,0.03417243517469615,colour,0.5
024,76,0,1,7,28,328,571.041321920231,572.0476179411635,"[18, 0, 236]",236,a,0.48370423121377826,colour,0.5
024,76,0,1,7,29,329,572.5562408037949,573.1276171061909,"[69, 0, 185]",185,l,0.04803226701915264,colour,0.5
024,76,0,1,7,30,330,573.6344109483762,574.1756470100954,"[65, 0, 189]",189,l,0.016608482459560037,colour,0.5
024,76,0,1,7,31,331,574.6824932338204,576.111610026448,"[67, 0, 187]",187,l,0.9057270711055025,colour,0.5
024,76,0,1,7,32,332,576.6199831906706,577.191593043739,"[89, 0, 165]",165,l,0.04823903611395508,colour,0.5
024,76,0,1,7,33,333,577.6981261599576,578.2396320061525,"[5, 0, 249]",249,a,0.01812045695260167,colour,0.5
024,76,0,1,7,34,334,578.7606322645443,579.3196181743406,"[35, 0, 219]",219,a,0.0355973697733134,colour,0.5
024,76,0,1,7,35,335,579.8386649568565,580.519607619266,"[78, 0, 176]",176,l,0.15758562996052206,colour,0.5
024,76,0,1,7,36,336,581.026193904574,581.6316626914777,"[9, 0, 245]",245,l,0.081961699295789,colour,0.5
024,76,0,1,7,37,337,582.1512840952491,582.9276524735615,"[80, 0, 174]",174,l,0.25302276748698205,colour,0.5
024,76,0,1,7,38,338,583.4480788983637,584.1196263663005,"[12, 0, 242]",242,a,0.14707467006519437,colour,0.5
024,76,0,1,7,39,339,584.6370776790427,585.255641055177,"[76, 0, 178]",178,l,0.09521225141361356,colour,0.5
024,76,0,1,7,40,340,585.7621367559768,586.3996047362452,"[29, 0, 225]",225,a,0.11423343396745622,colour,0.5
024,76,0,1,7,41,341,586.9182950883405,587.5435951988911,"[99, 0, 155]",155,l,0.10249761329032481,colour,0.5
024,76,0,1,7,42,342,588.0589362852043,588.6076443918282,"[25, 0, 229]",229,a,0.02560156024992466,colour,0.5
024,76,0,1,7,43,343,589.1182270317804,589.6876431630226,"[43, 0, 211]",211,a,0.04591101291589439,colour,0.5
024,76,0,1,7,44,344,590.1963601547759,590.8076673137257,"[47, 0, 207]",207,a,0.08781700662802905,colour,0.5
024,76,0,1,7,45,345,591.3214322286658,592.9756941929227,"[2, 0, 252]",252,a,1.130982125760056,colour,0.5
024,76,0,1,7,46,346,593.4933463670313,594.0555917456513,"[95, 0, 159]",159,l,0.0503425671486184,colour,0.5
024,76,0,1,7,47,347,594.5756467737956,595.2155766850337,"[19, 0, 235]",235,a,0.11651104502379894,colour,0.5
024,76,0,1,7,48,348,595.7320055738091,596.2796499024844,"[23, 0, 231]",231,a,0.02431525941938162,colour,0.5
024,76,0,1,7,49,349,596.7943789522396,597.3756596919848,"[53, 0, 201]",201,a,0.05781973199918866,colour,0.5
024,76,0,1,7,50,350,597.8881639060564,598.4155976376496,"[62, 0, 192]",192,a,0.003990053082816303,colour,0.5
024,76,0,1,8,1,351,603.101442106301,603.7357187530724,"[87, 0, 167]",167,l,0.1101677626138553,colour,0.5
024,76,0,1,8,2,352,604.2490594959818,605.7196514148964,"[69, 0, 185]",185,a,0.9470769542967901,colour,0.5
024,76,0,1,8,3,353,606.2335230620811,606.983595923637,"[77, 0, 177]",177,a,0.2267737245419994,colour,0.5
024,76,0,1,8,4,354,607.4990331083536,608.1836381438188,"[60, 0, 194]",194,a,0.1613232276868075,colour,0.5
024,76,0,1,8,5,355,608.7020988836884,609.3035803745734,"[31, 0, 223]",223,a,0.07826860609930009,colour,0.5
024,76,0,1,8,6,356,609.8100524445763,611.1755993547849,"[68, 0, 186]",186,a,0.8421658532461151,colour,0.5
024,76,0,1,8,7,357,611.6850296014454,612.463576735463,"[40, 0, 214]",214,a,0.25511605851352215,colour,0.5
024,76,0,1,8,8,358,612.9818893892225,614.5676284646615,"[90, 0, 164]",164,l,1.062319421558641,colour,0.5
024,76,0,1,8,9,359,615.0778700340306,615.6075766503345,"[29, 0, 225]",225,a,0.006223159376531839,colour,0.5
024,76,0,1,8,10,360,616.1192762373248,617.5195772930747,"[1, 0, 253]",253,a,0.8770157033577561,colour,0.5
024,76,0,1,8,11,361,618.0411470526597,618.6476150266826,"[85, 0, 169]",169,l,0.08331810461822897,colour,0.5
024,76,0,1,8,12,362,619.1566116490867,620.3915710671572,"[71, 0, 183]",183,l,0.7116882441332564,colour,0.5
024,76,0,1,8,13,363,620.9066813597456,621.5996804335155,"[57, 0, 197]",197,a,0.16980430588591844,colour,0.5
024,76,0,1,8,14,364,622.109766433714,622.8635894960025,"[59, 0, 195]",195,a,0.23043727921321988,colour,0.5
024,76,0,1,8,15,365,623.3753450090298,624.1676353963558,"[13, 0, 241]",241,a,0.26881992735434324,colour,0.5
024,76,0,1,8,16,366,624.6878495382844,625.2316093647387,"[92, 0, 162]",162,l,0.020480775623582304,colour,0.5
024,76,0,1,8,17,367,625.750413932139,626.3676114506088,"[25, 0, 229]",229,a,0.09385978465434164,colour,0.5
024,76,0,1,8,18,368,626.8753666705452,627.4556186847622,"[4, 0, 250]",250,a,0.05680045881308615,colour,0.5
024,76,0,1,8,19,369,627.9691240552347,629.0875881821848,"[82, 0, 172]",172,l,0.5956943188793957,colour,0.5
024,76,0,1,8,20,370,629.5954012975562,630.3675842751982,"[55, 0, 199]",199,l,0.2488038899609819,colour,0.5
024,76,0,1,8,21,371,630.8765805037692,631.4315712404205,"[63, 0, 191]",191,l,0.03205393790267408,colour,0.5
024,76,0,1,8,22,372,631.9391169344308,632.7035998305073,"[49, 0, 205]",205,l,0.24119124212302268,colour,0.5
024,76,0,1,8,23,373,633.2203831806546,633.8476162869483,"[17, 0, 237]",237,a,0.10391860932577401,colour,0.5
024,76,0,1,8,24,374,634.3609972021077,634.9435662118485,"[16, 0, 238]",238,a,0.059145417413674295,colour,0.5
024,76,0,1,8,25,375,635.4547270175535,636.0396342905005,"[98, 0, 156]",156,l,0.06149628374259919,colour,0.5
024,76,0,1,8,26,376,636.5484308390878,637.2075623143464,"[27, 0, 227]",227,a,0.13575435674283653,colour,0.5
024,76,0,1,8,27,377,637.7203682144172,638.2715894519351,"[50, 0, 204]",204,a,0.027866962016560137,colour,0.5
024,76,0,1,8,28,378,638.7828467498766,639.4315802989295,"[47, 0, 207]",207,a,0.1253678520442918,colour,0.5
024,76,0,1,8,29,379,639.9358385610394,640.5276062360499,"[80, 0, 174]",174,l,0.06836219958495349,colour,0.5
024,76,0,1,8,30,380,641.045313942479,641.6716301755514,"[30, 0, 224]",224,a,0.1029076068662107,colour,0.5
024,76,0,1,8,31,381,642.1858302903129,642.719629359548,"[7, 0, 247]",247,a,0.010644867550581694,colour,0.5
024,76,0,1,8,32,382,643.2327050440945,643.9276107258629,"[96, 0, 158]",158,l,0.18265195365529507,colour,0.5
024,76,0,1,8,33,383,644.4403733030194,645.2236020832788,"[15, 0, 239]",239,a,0.26007654785644263,colour,0.5
024,76,0,1,8,34,384,645.7371755891945,646.4155633730115,"[83, 0, 171]",171,l,0.15491062845103443,colour,0.5
024,76,0,1,8,35,385,646.9247017799644,647.5355776775395,"[39, 0, 215]",215,a,0.08750153600703925,colour,0.5
024,76,0,1,8,36,386,648.04967105994,648.663623681874,"[99, 0, 155]",155,l,0.09058928804006428,colour,0.5
024,76,0,1,8,37,387,649.1746824814472,649.9035837616539,"[52, 0, 202]",202,a,0.20612280745990574,colour,0.5
024,76,0,1,8,38,388,650.4247155644698,651.007573263254,"[33, 0, 221]",221,a,0.059521934017539024,colour,0.5
024,76,0,1,8,39,389,651.5184331707424,653.1915694130585,"[35, 0, 219]",219,a,1.149663419346325,colour,0.5
024,76,0,1,8,40,390,653.7059562107315,654.7356502239127,"[38, 0, 216]",216,a,0.5064307162538171,colour,0.5
024,76,0,1,8,41,391,655.2527982753236,656.6796220970573,"[88, 0, 166]",166,l,0.9035112939309329,colour,0.5
024,76,0,1,8,42,392,657.1902216722956,657.879574520397,"[28, 0, 226]",226,a,0.16611239418853074,colour,0.5
024,76,0,1,8,43,393,658.3934221429517,659.8475568162976,"[41, 0, 213]",213,a,0.9307260471396148,colour,0.5
024,76,0,1,8,44,394,660.3621807091404,661.455583238625,"[75, 0, 179]",179,l,0.5700230478541926,colour,0.5
024,76,0,1,8,45,395,661.9715162753128,662.7916090339422,"[72, 0, 182]",182,l,0.2966687724692747,colour,0.5
024,76,0,1,8,46,396,663.2996805122821,663.8715365190292,"[19, 0, 235]",235,a,0.04631943115964532,colour,0.5
024,76,0,1,8,47,397,664.3798943232978,664.9919312786078,"[89, 0, 165]",165,l,0.08906549809034914,colour,0.5
024,76,0,1,8,48,398,665.5049632462906,666.1355393169215,"[6, 0, 248]",248,a,0.10730056429747492,colour,0.5
024,76,0,1,8,49,399,666.6455087387003,667.2875591162592,"[8, 0, 246]",246,a,0.11855549912434071,colour,0.5
024,76,0,1,8,50,400,667.801755292574,668.3676358689554,"[21, 0, 233]",233,a,0.04261097789276391,colour,0.5
024,76,0,1,9,1,401,673.6693950999761,675.2315770693822,"[57, 0, 197]",197,l,1.0462075788527727,colour,0.5
024,76,0,1,9,2,402,675.740083747427,676.407577359234,"[19, 0, 235]",235,a,0.14432208088692278,colour,0.5
024,76,0,1,9,3,403,676.9275744920596,677.5515768803889,"[36, 0, 218]",218,a,0.10055674065370113,colour,0.5
024,76,0,1,9,4,404,678.068128649029,679.1355574338231,"[35, 0, 219]",219,a,0.5441568231908605,colour,0.5
024,76,0,1,9,5,405,679.6462487751851,681.5918665303616,"[28, 0, 226]",226,a,1.422213461366482,colour,0.5
024,76,0,1,9,6,406,682.0994925689884,682.8636328190332,"[77, 0, 177]",177,l,0.24090373457875103,colour,0.5
024,76,0,1,9,7,407,683.3807852027239,684.5596369371051,"[21, 0, 233]",233,a,0.6555258157895878,colour,0.5
024,76,0,1,9,8,408,685.0681605505524,685.7915523201227,"[86, 0, 168]",168,l,0.20047584467101842,colour,0.5
024,76,0,1,9,9,409,686.3025772490073,686.927595759742,"[45, 0, 209]",209,a,0.10170361993368715,colour,0.5
024,76,0,1,9,10,410,687.4431562182726,688.6235333178192,"[11, 0, 243]",243,a,0.6570255811093375,colour,0.5
024,76,0,1,9,11,411,689.1318391344976,689.6640750293154,"[31, 0, 223]",223,a,0.009248289978131652,colour,0.5
024,76,0,1,9,12,412,690.1794035125058,690.9195372783579,"[73, 0, 181]",181,l,0.21786138520110399,colour,0.5
024,76,0,1,9,13,413,691.4286981344922,692.7675604081014,"[80, 0, 174]",174,l,0.8154217458795756,colour,0.5
024,76,0,1,9,14,414,693.2880270052701,693.8156178812496,"[40, 0, 214]",214,a,0.004204305121675134,colour,0.5
024,76,0,1,9,15,415,694.3349525652593,695.0315372121986,"[9, 0, 245]",245,a,0.17329496226739138,colour,0.5
024,76,0,1,9,16,416,695.5380852944218,697.3595840829657,"[27, 0, 227]",227,a,1.2982000453630462,colour,0.5
024,76,0,1,9,17,417,697.8661467375932,698.4396442942088,"[38, 0, 216]",216,a,0.050116499653086066,colour,0.5
024,76,0,1,9,18,418,698.9619615733391,699.551529224962,"[6, 0, 248]",248,a,0.06614051479846239,colour,0.5
024,76,0,1,9,19,419,700.0606928380439,700.7275452687172,"[88, 0, 166]",166,l,0.14349342905916274,colour,0.5
024,76,0,1,9,20,420,701.2482761364663,701.9356065858155,"[32, 0, 222]",222,a,0.16398641397245228,colour,0.5
024,76,0,1,9,21,421,702.4513942933409,703.7995627522469,"[84, 0, 170]",170,l,0.8247625896474347,colour,0.5
024,76,0,1,9,22,422,704.3107846041676,705.1115698540816,"[66, 0, 188]",188,l,0.2773876514984295,colour,0.5
024,76,0,1,9,23,423,705.62323950883,706.2876327654812,"[85, 0, 169]",169,l,0.14112050738185644,colour,0.5
024,76,0,1,9,24,424,706.7951071733842,708.815550533589,"[93, 0, 161]",161,l,1.4970355216646567,colour,0.5
024,76,0,1,9,25,425,709.326355696423,710.4635074185207,"[99, 0, 155]",155,l,0.6137899635359645,colour,0.5
024,76,0,1,9,26,426,710.9826156410854,711.7435405331198,"[65, 0, 189]",189,a,0.23755013663321733,colour,0.5
024,76,0,1,9,27,427,712.2638822810259,713.5435455742991,"[96, 0, 158]",158,l,0.7567422483116388,colour,0.5
024,76,0,1,9,28,428,714.0619318772806,714.7435082377633,"[67, 0, 187]",187,a,0.1583418141817674,colour,0.5
024,76,0,1,9,29,429,715.2650590926642,715.8395081809722,"[68, 0, 186]",186,l,0.05113734817132354,colour,0.5
024,76,0,1,9,30,430,716.3587440096308,716.8875774695771,"[7, 0, 247]",247,a,0.005494150682352483,colour,0.5
024,76,0,1,9,31,431,717.4056750835152,719.2155428142287,"[60, 0, 194]",194,l,1.286628458299674,colour,0.5
024,76,0,1,9,32,432,719.7337617326993,720.8875967679778,"[95, 0, 159]",159,l,0.6304846983402967,colour,0.5
024,76,0,1,9,33,433,721.405581741943,722.1435044568498,"[12, 0, 242]",242,a,0.21458379947580397,colour,0.5
024,76,0,1,9,34,434,722.6556010404602,723.1995203745319,"[33, 0, 221]",221,a,0.020547729451209307,colour,0.5
024,76,0,1,9,35,435,723.7181536188582,725.8475296408869,"[56, 0, 198]",198,l,1.6062556910328567,colour,0.5
024,76,0,1,9,36,436,726.358650668175,727.0715712562669,"[91, 0, 163]",163,l,0.18986760475672781,colour,0.5
024,76,0,1,9,37,437,727.5931126588257,729.5918606227497,"[41, 0, 213]",213,l,1.4668255704455078,colour,0.5
024,76,0,1,9,38,438,730.1100665442646,730.7115444904193,"[3, 0, 251]",251,a,0.08082781685516238,colour,0.5
024,76,0,1,9,39,439,731.2322536966531,733.5837706336752,"[25, 0, 229]",229,a,1.8284875844838098,colour,0.5
024,76,0,1,9,40,440,734.0949026886374,735.5675733262906,"[2, 0, 252]",252,a,0.949348657624796,colour,0.5
024,76,0,1,9,41,441,736.0792839409551,736.839586556307,"[69, 0, 185]",185,l,0.2368683893000707,colour,0.5
024,76,0,1,9,42,442,737.3512487278786,737.9035160201602,"[83, 0, 171]",171,l,0.0289791829418391,colour,0.5
024,76,0,1,9,43,443,738.4136043833569,740.2875441501383,"[81, 0, 173]",173,l,1.3559445528080687,colour,0.5
024,76,0,1,9,44,444,740.798919208115,742.1275312477956,"[50, 0, 204]",204,a,0.8056417640764266,colour,0.5
024,76,0,1,9,45,445,742.643273269292,743.3115856867516,"[14, 0, 240]",240,a,0.14558041864074767,colour,0.5
024,76,0,1,9,46,446,743.8302606787765,744.9674970776541,"[20, 0, 234]",234,a,0.6143574954476207,colour,0.5
024,76,0,1,9,47,447,745.4863229127368,746.1035334281623,"[72, 0, 182]",182,l,0.09385978465434164,colour,0.5
024,76,0,1,9,48,448,746.6113784450572,747.1595202011522,"[46, 0, 208]",208,a,0.02477448375429958,colour,0.5
024,76,0,1,9,49,449,747.6738652511267,748.2475231030257,"[8, 0, 246]",246,a,0.05052806856110692,colour,0.5
024,76,0,1,9,50,450,748.7695327885449,749.3515252077486,"[79, 0, 175]",175,l,0.05869288835674524,colour,0.5
024,76,0,1,10,1,451,768.3480550313834,774.9115555968601,"[62, 0, 192]",192,a,6.039323545992374,colour,0.5
024,76,0,1,10,2,452,775.4280821594875,776.9194939553272,"[95, 0, 159]",159,l,0.9680311327101663,colour,0.5
024,76,0,1,10,3,453,777.4281884978991,778.1675314210588,"[48, 0, 206]",206,a,0.21612649387679994,colour,0.5
024,76,0,1,10,4,454,778.6781160301762,779.4234627406113,"[34, 0, 220]",220,a,0.2220381210790947,colour,0.5
024,76,0,1,10,5,455,779.9437627409352,780.5835154214874,"[70, 0, 184]",184,l,0.11650238046422601,colour,0.5
024,76,0,1,10,6,456,781.0999580948846,781.6475697343703,"[74, 0, 180]",180,l,0.024236884084530175,colour,0.5
024,76,0,1,10,7,457,782.162507522502,782.9115032154368,"[54, 0, 200]",200,a,0.2256307837087661,colour,0.5
024,76,0,1,10,8,458,783.4281711686635,784.1515113443602,"[73, 0, 181]",181,l,0.200070183374919,colour,0.5
024,76,0,1,10,9,459,784.6623866118025,786.89553709561,"[84, 0, 170]",170,l,1.7097391007700935,colour,0.5
024,76,0,1,10,10,460,787.4125291840173,788.1034715942806,"[39, 0, 215]",215,a,0.16756174713373184,colour,0.5
024,76,0,1,10,11,461,788.6155441533774,789.3594868030632,"[27, 0, 227]",227,a,0.21940762421581894,colour,0.5
024,76,0,1,10,12,462,789.8667343556881,790.6314653747249,"[56, 0, 198]",198,a,0.24133145133964717,colour,0.5
024,76,0,1,10,13,463,791.1515463966643,791.7914873355767,"[75, 0, 179]",179,l,0.11744879221078008,colour,0.5
024,76,0,1,10,14,464,792.3078236704459,793.7275200625882,"[94, 0, 160]",160,l,0.8964902027510107,colour,0.5
024,76,0,1,10,15,465,794.2453380458755,794.9196042321855,"[29, 0, 225]",225,a,0.1509264832129702,colour,0.5
024,76,0,1,10,16,466,795.4327169382013,795.991466146661,"[91, 0, 163]",163,l,0.03533388685900718,colour,0.5
024,76,0,1,10,17,467,796.5108583320398,797.1195503540803,"[44, 0, 210]",210,a,0.0852077774470672,colour,0.5
024,76,0,1,10,18,468,797.6359162274748,798.2795325363986,"[40, 0, 214]",214,l,0.12035419349558651,colour,0.5
024,76,0,1,10,19,469,798.792067076778,800.3514944877243,"[67, 0, 187]",187,l,1.0361085816984996,colour,0.5
024,76,0,1,10,20,470,800.8702683351003,801.4875111458823,"[15, 0, 239]",239,a,0.0937632923014462,colour,0.5
024,76,0,1,10,21,471,801.9953006304568,802.6874903507996,"[96, 0, 158]",158,l,0.16889215866103768,colour,0.5
024,76,0,1,10,22,472,803.1983431690605,803.8955867202021,"[6, 0, 248]",248,a,0.17422837705817074,colour,0.5
024,76,0,1,10,23,473,804.4027043037349,805.3835007704329,"[76, 0, 178]",178,l,0.4573874467751011,colour,0.5
024,76,0,1,10,24,474,805.9035869124345,807.3275065142661,"[90, 0, 164]",164,l,0.9017334734089673,colour,0.5
024,76,0,1,10,25,475,807.8402427036781,808.5755116846412,"[7, 0, 247]",247,a,0.2125799113418907,colour,0.5
024,76,0,1,10,26,476,809.0902096205391,810.167517636437,"[19, 0, 235]",235,a,0.5541305772494525,colour,0.5
024,76,0,1,10,27,477,810.6839563713875,811.3035016054055,"[2, 0, 252]",252,a,0.09603145101573318,colour,0.5
024,76,0,1,10,28,478,811.8246550697368,813.3354732295265,"[41, 0, 213]",213,a,0.9874036258552223,colour,0.5
024,76,0,1,10,29,479,813.8558157652151,814.5435455742991,"[87, 0, 167]",167,l,0.1643491459544748,colour,0.5
024,76,0,1,10,30,480,815.0589965436375,815.6475197159452,"[5, 0, 249]",249,a,0.06517992459703237,colour,0.5
024,76,0,1,10,31,481,816.1683415621519,816.8316001488129,"[46, 0, 208]",208,a,0.1398818619782105,colour,0.5
024,76,0,1,10,32,482,817.3402068637079,817.9114587107906,"[18, 0, 236]",236,a,0.04799721471499652,colour,0.5
024,76,0,1,10,33,483,818.4183332914254,819.047496636631,"[88, 0, 166]",166,l,0.10401037556584924,colour,0.5
024,76,0,1,10,34,484,819.5606451827334,820.255478790612,"[61, 0, 193]",193,a,0.1716333262156695,colour,0.5
024,76,0,1,10,35,485,820.7637511304347,821.8314780564979,"[55, 0, 199]",199,a,0.5489648941438645,colour,0.5
024,76,0,1,10,36,486,822.3529347822769,822.9114977015415,"[38, 0, 216]",216,a,0.035227548447437584,colour,0.5
024,76,0,1,10,37,487,823.4310167054646,824.0074448694941,"[10, 0, 244]",244,a,0.06336508260574192,colour,0.5
024,76,0,1,10,38,488,824.5144604468951,825.1355137169594,"[80, 0, 174]",174,l,0.09773444081656635,colour,0.5
024,76,0,1,10,39,489,825.6550858899718,826.9594425347168,"[26, 0, 228]",228,a,0.7809807078447193,colour,0.5
024,76,0,1,10,40,490,827.4675805730512,828.4954774673097,"[65, 0, 189]",189,l,0.5046119356993586,colour,0.5
024,76,0,1,10,41,491,829.0144383915467,830.1994837467792,"[51, 0, 203]",203,a,0.6616304275812581,colour,0.5
024,76,0,1,10,42,492,830.7175380376866,831.2635175797623,"[81, 0, 173]",173,l,0.022641414310783148,colour,0.5
024,76,0,1,10,43,493,831.7800059391884,833.1835235346807,"[83, 0, 171]",171,l,0.8804390121949837,colour,0.5
024,76,0,1,10,44,494,833.7018802992534,834.3514539216412,"[14, 0, 240]",240,a,0.12490153848193586,colour,0.5
024,76,0,1,10,45,495,834.8593497446273,835.4555005308939,"[43, 0, 211]",211,a,0.07274216006044298,colour,0.5
024,76,0,1,10,46,496,835.968716424657,838.3435703078285,"[1, 0, 253]",253,a,1.85146455548238,colour,0.5
024,76,0,1,10,47,497,838.8594584461534,839.5996213565813,"[31, 0, 223]",223,a,0.21681375498883426,colour,0.5
024,76,0,1,10,48,498,840.1093040585984,841.3354822880356,"[47, 0, 207]",207,a,0.7030748339602724,colour,0.5
024,76,0,1,10,49,499,841.843740449287,842.9914555128198,"[16, 0, 238]",238,a,0.6244576742174104,colour,0.5
024,76,0,1,10,50,500,843.4999740062049,844.0394814782776,"[69, 0, 185]",185,a,0.016147682792507112,colour,0.5
024,76,0,1,11,1,501,852.3352503128117,859.255478790612,"[83, 0, 171]",171,a,6.396218055160716,colour,0.5
024,76,0,1,11,2,502,859.7671547468053,861.8634402283933,"[91, 0, 163]",163,l,1.5730485721724108,colour,0.5
024,76,0,1,11,3,503,862.3764930699253,863.6314208700787,"[99, 0, 155]",155,l,0.7315215370617807,colour,0.5
024,76,0,1,11,4,504,864.1432618476683,865.3514480139129,"[95, 0, 159]",159,l,0.685505761182867,colour,0.5
024,76,0,1,11,5,505,865.8621409307234,866.863419748377,"[54, 0, 200]",200,a,0.4779442345025018,colour,0.5
024,76,0,1,11,6,506,867.3776848476846,868.6394632038428,"[13, 0, 241]",241,a,0.7385004868265241,colour,0.5
024,76,0,1,11,7,507,869.1588892600266,871.3914560641861,"[57, 0, 197]",197,a,1.7091825964162126,colour,0.5
024,76,0,1,11,8,508,871.9088577523362,872.5355445944006,"[76, 0, 178]",178,a,0.10328412358649075,colour,0.5
024,76,0,1,11,9,509,873.0494548385032,874.4314365452155,"[74, 0, 180]",180,l,0.858507702127099,colour,0.5
024,76,0,1,11,10,510,874.9413976961514,875.9994368003681,"[58, 0, 196]",196,a,0.5347029456170276,colour,0.5
024,76,0,1,11,11,511,876.5195138838608,877.4154400991974,"[9, 0, 245]",245,a,0.37258533062413335,colour,0.5
024,76,0,1,11,12,512,877.9258222716162,879.9274311321788,"[21, 0, 233]",233,a,1.4783912496641278,colour,0.5
024,76,0,1,11,13,513,880.4414607115323,880.9674990469357,"[59, 0, 195]",195,a,0.0027360476087778807,colour,0.5
024,76,0,1,11,14,514,881.489155058749,883.0794056393206,"[69, 0, 185]",185,a,1.067045966628939,colour,0.5
024,76,0,1,11,15,515,883.5985603356967,885.0553952165646,"[94, 0, 160]",160,l,0.9335077808937058,colour,0.5
024,76,0,1,11,16,516,885.5672810926335,886.6474960852647,"[19, 0, 235]",235,a,0.5568146372679621,colour,0.5
024,76,0,1,11,17,517,887.1609786126064,888.09544501442,"[15, 0, 239]",239,a,0.411021935637109,colour,0.5
024,76,0,1,11,18,518,888.6141381233465,890.2474356692983,"[11, 0, 243]",243,a,1.1087262865621597,colour,0.5
024,76,0,1,11,19,519,890.755932895001,892.1034597789403,"[41, 0, 213]",213,a,0.824174577719532,colour,0.5
024,76,0,1,11,20,520,892.6153677103575,894.1594213459175,"[78, 0, 176]",176,l,1.020622166339308,colour,0.5
024,76,0,1,11,21,521,894.6777942581102,895.4074375439668,"[72, 0, 182]",182,l,0.2062204813119024,colour,0.5
024,76,0,1,11,22,522,895.9278285226319,897.2874063041527,"[68, 0, 186]",186,l,0.8361151984427124,colour,0.5
024,76,0,1,11,23,523,897.8028560918756,898.4874434043886,"[44, 0, 210]",210,a,0.1612350062932819,colour,0.5
024,76,0,1,11,24,524,899.00598212576,899.5834189292509,"[51, 0, 203]",203,a,0.054197137244045734,colour,0.5
024,76,0,1,11,25,525,900.0997332087718,900.6794590448262,"[35, 0, 219]",219,a,0.05639716051518917,colour,0.5
024,76,0,1,11,26,526,901.193405128899,901.9674608438509,"[63, 0, 191]",191,l,0.2506088857771829,colour,0.5
024,76,0,1,11,27,527,902.4747209995985,903.0634454272222,"[12, 0, 242]",242,a,0.06554029358085245,colour,0.5
024,76,0,1,11,28,528,903.5840656242799,905.1434363214066,"[49, 0, 205]",205,a,1.034710822510533,colour,0.5
024,76,0,1,11,29,529,905.6633759527467,906.5114620978711,"[27, 0, 227]",227,a,0.3245471559930593,colour,0.5
024,76,0,1,11,30,530,907.0228288850049,907.6154110333882,"[28, 0, 226]",226,a,0.06924126367084682,colour,0.5
024,76,0,1,11,31,531,908.1321967465337,908.6640053185401,"[5, 0, 249]",249,a,0.009130923892371356,colour,0.5
024,76,0,1,11,32,532,909.17900966655,909.887430564966,"[66, 0, 188]",188,l,0.18548961344640702,colour,0.5
024,76,0,1,11,33,533,910.3978383373469,911.0074212386971,"[7, 0, 247]",247,a,0.08629006589762866,colour,0.5
024,76,0,1,11,34,534,911.5228198266122,912.0634217964252,"[38, 0, 216]",216,a,0.02414708724245429,colour,0.5
024,76,0,1,11,35,535,912.57837612601,913.151420759852,"[3, 0, 251]",251,a,0.049766764510422945,colour,0.5
024,76,0,1,11,36,536,913.6720724646002,914.2074681852246,"[93, 0, 161]",161,l,0.012054836028255522,colour,0.5
024,76,0,1,11,37,537,914.7189787260722,915.9674372131703,"[97, 0, 157]",157,l,0.7250904270913452,colour,0.5
024,76,0,1,11,38,538,916.4845120091923,917.0794903162168,"[18, 0, 236]",236,a,0.0715716500999406,colour,0.5
024,76,0,1,11,39,539,917.5938814461697,918.2955801823409,"[64, 0, 190]",190,l,0.17875445436220616,colour,0.5
024,76,0,1,11,40,540,918.8126447384711,919.3834401181666,"[39, 0, 215]",215,a,0.04728356597479433,colour,0.5
024,76,0,1,11,41,541,919.8907254799269,920.511436104076,"[84, 0, 170]",170,l,0.09712713037151843,colour,0.5
024,76,0,1,11,42,542,921.0314568675822,921.6234781794483,"[25, 0, 229]",229,a,0.06922393455170095,colour,0.5
024,76,0,1,11,43,543,922.1353073416976,922.9434567226563,"[17, 0, 237]",237,l,0.28540596063248813,colour,0.5
024,76,0,1,11,44,544,923.4633065571543,924.2634837089572,"[32, 0, 222]",222,a,0.28182787040714175,colour,0.5
024,76,0,1,11,45,545,924.7806475142715,925.3754702521255,"[40, 0, 214]",214,a,0.0714672808535397,colour,0.5
024,76,0,1,11,46,546,925.8900795726804,926.5515906648943,"[85, 0, 169]",169,l,0.1382178629282862,colour,0.5
024,76,0,1,11,47,547,927.0619590526912,927.7594062221469,"[1, 0, 253]",253,a,0.17465727520175278,colour,0.5
024,76,0,1,11,48,548,928.2806967450306,928.9434220641851,"[2, 0, 252]",252,a,0.14008311717770994,colour,0.5
024,76,0,1,11,49,549,929.4553867094219,930.1354278584477,"[56, 0, 198]",198,l,0.15690033801365644,colour,0.5
024,76,0,1,11,50,550,930.6428617002675,931.2553972644964,"[87, 0, 167]",167,a,0.08892804582137614,colour,0.5
024,76,0,1,12,1,551,935.8766785713378,936.535431954544,"[83, 0, 171]",171,l,0.13485244964249432,colour,0.5
024,76,0,1,12,2,552,937.0492004140979,938.1513896459946,"[96, 0, 158]",158,l,0.5787282242672518,colour,0.5
024,76,0,1,12,3,553,938.6586462571286,939.4953912150813,"[68, 0, 186]",186,l,0.3119752003112808,colour,0.5
024,76,0,1,12,4,554,940.0036391363246,940.6474720606348,"[39, 0, 215]",215,a,0.12089139933232218,colour,0.5
024,76,0,1,12,5,555,941.1599250747822,941.7674060205463,"[81, 0, 173]",173,l,0.08484031911939383,colour,0.5
024,76,0,1,12,6,556,942.2766830611508,942.9914066758938,"[57, 0, 197]",197,l,0.19140163459815085,colour,0.5
024,76,0,1,12,7,557,943.5110016920371,944.2074087144574,"[11, 0, 243]",243,a,0.17943462636321783,colour,0.5
024,76,0,1,12,8,558,944.7233259973582,945.7354328209767,"[40, 0, 214]",214,l,0.48879862821195275,colour,0.5
024,76,0,1,12,9,559,946.2545489204349,946.8714207282756,"[48, 0, 206]",206,a,0.09380110143683851,colour,0.5
024,76,0,1,12,10,560,947.3795378927607,947.9514218625845,"[27, 0, 227]",227,a,0.048785300459712744,colour,0.5
024,76,0,1,12,11,561,948.4576099696569,949.0394594229292,"[14, 0, 240]",240,a,0.058497147052548826,colour,0.5
024,76,0,1,12,12,562,949.5513921666425,950.1513758613728,"[94, 0, 160]",160,l,0.07657979475334287,colour,0.5
024,76,0,1,12,13,563,950.6607907480793,951.303411414614,"[5, 0, 249]",249,a,0.1192451233509928,colour,0.5
024,76,0,1,12,14,564,951.8171617572661,952.37540487363,"[88, 0, 166]",166,l,0.035037320805713534,colour,0.5
024,76,0,1,12,15,565,952.8953169357264,954.1753681672271,"[49, 0, 205]",205,l,0.7569218421122059,colour,0.5
024,76,0,1,12,16,566,954.6934319103602,955.4154089854565,"[87, 0, 167]",167,l,0.19866179034579545,colour,0.5
024,76,0,1,12,17,567,955.927789138048,957.2314022018109,"[89, 0, 165]",165,l,0.780478160479106,colour,0.5
024,76,0,1,12,18,568,957.7402082027402,958.4153727515368,"[9, 0, 245]",245,a,0.15192567021586,colour,0.5
024,76,0,1,12,19,569,958.9277544796932,960.6474389776122,"[42, 0, 212]",212,l,1.1963900871342048,colour,0.5
024,76,0,1,12,20,570,961.1620589320082,961.8953795572743,"[7, 0, 247]",247,a,0.21061343874316663,colour,0.5
024,76,0,1,12,21,571,962.4120530242799,963.0473753320985,"[74, 0, 180]",180,l,0.11187587236054242,colour,0.5
024,76,0,1,12,22,572,963.5683818919351,964.2393897909205,"[13, 0, 241]",241,a,0.14592739683575928,colour,0.5
024,76,0,1,12,23,573,964.7576567586511,965.327406871249,"[17, 0, 237]",237,a,0.04654943710193038,colour,0.5
024,76,0,1,12,24,574,965.8357103248127,966.5274152207421,"[65, 0, 189]",189,l,0.168544786516577,colour,0.5
024,76,0,1,12,25,575,967.0388454170898,967.8394353195326,"[45, 0, 209]",209,l,0.2772383838891983,colour,0.5
024,76,0,1,12,26,576,968.3513408878352,969.6714379787445,"[20, 0, 234]",234,a,0.7966892523691058,colour,0.5
024,76,0,1,12,27,577,970.1795555370627,971.1194782801904,"[35, 0, 219]",219,a,0.4169780674856156,colour,0.5
024,76,0,1,12,28,578,971.6326059524436,972.3194696943974,"[12, 0, 242]",242,a,0.16341297421604395,colour,0.5
024,76,0,1,12,29,579,972.8328017726308,973.4554331833497,"[41, 0, 213]",213,a,0.09928107366431504,colour,0.5
024,76,0,1,12,30,580,973.973419732647,974.6713989879936,"[60, 0, 194]",194,l,0.17473289370536804,colour,0.5
024,76,0,1,12,31,581,975.1921653018799,975.8233675875235,"[29, 0, 225]",225,l,0.10786297637969255,colour,0.5
024,76,0,1,12,32,582,976.332781686564,977.6633665004047,"[51, 0, 203]",203,l,0.8072844953276217,colour,0.5
024,76,0,1,12,33,583,978.1765426157508,978.7593841667986,"[0, 0, 254]",254,a,0.05998115835245699,colour,0.5
024,76,0,1,12,34,584,979.271506350371,979.9914791435003,"[54, 0, 200]",200,l,0.19667523144744337,colour,0.5
024,76,0,1,12,35,585,980.5058690919541,981.3914300703909,"[72, 0, 182]",182,l,0.3622110353317112,colour,0.5
024,76,0,1,12,36,586,981.9121558180777,982.5993866244098,"[16, 0, 238]",238,a,0.16419357690028846,colour,0.5
024,76,0,1,12,37,587,983.1152629472781,984.0394011336612,"[64, 0, 190]",190,l,0.4010147046064958,colour,0.5
024,76,0,1,12,38,588,984.5527753534261,986.1273949771421,"[75, 0, 179]",179,l,1.0513405727688223,colour,0.5
024,76,0,1,12,39,589,986.6465780304279,988.1193735172274,"[99, 0, 155]",155,l,0.9495814205147326,colour,0.5
024,76,0,1,12,40,590,988.6308139535831,989.3514169001719,"[38, 0, 216]",216,a,0.19561421067919582,colour,0.5
024,76,0,1,12,41,591,989.8668253341457,990.5753506016918,"[50, 0, 204]",204,l,0.1850867090979591,colour,0.5
024,76,0,1,12,42,592,991.0856926017441,992.4393591496628,"[56, 0, 198]",198,l,0.830480050877668,colour,0.5
024,76,0,1,12,43,593,992.9449970540591,993.69540074619,"[84, 0, 170]",170,l,0.22697616135701537,colour,0.5
024,76,0,1,12,44,594,994.2105835063849,994.8713659837376,"[4, 0, 250]",250,a,0.13744631875306368,colour,0.5
024,76,0,1,12,45,595,995.3825169432675,996.7273916688282,"[6, 0, 248]",248,a,0.8214735824149102,colour,0.5
024,76,0,1,12,46,596,997.2418611741159,998.031421421445,"[76, 0, 178]",178,a,0.26624259958043694,colour,0.5
024,76,0,1,12,47,597,998.5387694048695,1000.8553640239406,"[70, 0, 184]",184,l,1.7933616482187063,colour,0.5
024,76,0,1,12,48,598,1001.3668083987432,1001.9833828529809,"[28, 0, 226]",226,a,0.09348602476529777,colour,0.5
024,76,0,1,12,49,599,1002.4918729894562,1003.1113402419724,"[79, 0, 175]",175,l,0.1061446265084669,colour,0.5
024,76,0,1,12,50,600,1003.6223927401006,1004.1593772351043,"[71, 0, 183]",183,l,0.013606194988824427,colour,0.5
024,76,0,1,13,1,601,1008.7934904359281,1010.1674282334279,"[71, 0, 183]",183,l,0.8485028340946883,colour,0.5
024,76,0,1,13,2,602,1010.6861315823626,1011.3353936726926,"[1, 0, 253]",253,a,0.12592396256513894,colour,0.5
024,76,0,1,13,3,603,1011.8423982224194,1012.4633616955252,"[34, 0, 220]",220,l,0.09761510544922203,colour,0.5
024,76,0,1,13,4,604,1012.9829673455097,1013.7433810255025,"[7, 0, 247]",247,a,0.2370030846213922,colour,0.5
024,76,0,1,13,5,605,1014.2642698254203,1014.9593436794821,"[67, 0, 187]",187,l,0.17164908011909574,colour,0.5
024,76,0,1,13,6,606,1015.4674147638725,1016.0634489718359,"[65, 0, 189]",189,l,0.0726421233266592,colour,0.5
024,76,0,1,13,7,607,1016.5767286685295,1017.1353522400605,"[83, 0, 171]",171,l,0.03527008381206542,colour,0.5
024,76,0,1,13,8,608,1017.6548621854745,1018.223354748101,"[35, 0, 219]",219,a,0.045042188838124275,colour,0.5
024,76,0,1,13,9,609,1018.7329858562443,1019.3833763151197,"[63, 0, 191]",191,l,0.1258207749342546,colour,0.5
024,76,0,1,13,10,610,1019.89042891399,1020.5753234262811,"[61, 0, 193]",193,l,0.16173834132496268,colour,0.5
024,76,0,1,13,11,611,1021.0938062214991,1021.879347665119,"[92, 0, 162]",162,l,0.26240772183518857,colour,0.5
024,76,0,1,13,12,612,1022.3904887785902,1022.9273952922085,"[99, 0, 155]",155,l,0.014094957849010825,colour,0.5
024,76,0,1,13,13,613,1023.4372327756137,1024.1833368517691,"[79, 0, 175]",175,l,0.2226753638824448,colour,0.5
024,76,0,1,13,14,614,1024.7029421078041,1026.1193298003636,"[81, 0, 173]",173,l,0.8930590170202777,colour,0.5
024,76,0,1,13,15,615,1026.6404336401029,1027.7193690274144,"[90, 0, 164]",164,l,0.5603596443543211,colour,0.5
024,76,0,1,13,16,616,1028.2293719260488,1028.7833689895924,"[28, 0, 226]",226,a,0.03088697255589068,colour,0.5
024,76,0,1,13,17,617,1029.2980523532024,1029.9193387799896,"[41, 0, 213]",213,a,0.0978277821559459,colour,0.5
024,76,0,1,13,18,618,1030.4387435684912,1031.127394977142,"[66, 0, 188]",188,l,0.16522939165588468,colour,0.5
024,76,0,1,13,19,619,1031.6418971716193,1032.4554012818262,"[29, 0, 225]",225,a,0.2950488842325285,colour,0.5
024,76,0,1,13,20,620,1032.9652190728812,1033.6714671233203,"[18, 0, 236]",236,a,0.19139060692396015,colour,0.5
024,76,0,1,13,21,621,1034.1912484285422,1035.9833521329565,"[32, 0, 222]",222,a,1.2689601364545524,colour,0.5
024,76,0,1,13,22,622,1036.5037876162678,1037.2234260342084,"[72, 0, 182]",182,l,0.19622703490313143,colour,0.5
024,76,0,1,13,23,623,1037.738063711673,1039.1033613174222,"[47, 0, 207]",207,a,0.8425431576324627,colour,0.5
024,76,0,1,13,24,624,1039.613177139312,1040.535343733034,"[56, 0, 198]",198,l,0.3988855736097321,colour,0.5
024,76,0,1,13,25,625,1041.0506946655223,1041.7433692101622,"[74, 0, 180]",180,l,0.16937698307447135,colour,0.5
024,76,0,1,13,26,626,1042.2537171178265,1042.9273960798746,"[10, 0, 244]",244,a,0.1503128712065518,colour,0.5
024,76,0,1,13,27,627,1043.4412244040286,1044.0713373117615,"[6, 0, 248]",248,a,0.10690514300949872,colour,0.5
024,76,0,1,13,28,628,1044.581853391719,1045.2313222510274,"[24, 0, 230]",230,a,0.1262055622646585,colour,0.5
024,76,0,1,13,29,629,1045.7380176316947,1046.279375785729,"[25, 0, 229]",229,a,0.0179180201375857,colour,0.5
024,76,0,1,13,30,630,1046.800511133275,1048.287824174622,"[22, 0, 232]",232,a,0.9644743101671338,colour,0.5
024,76,0,1,13,31,631,1048.8006777301198,1049.407350503956,"[9, 0, 245]",245,a,0.08158400095999241,colour,0.5
024,76,0,1,13,32,632,1049.927432707511,1050.5913856445113,"[84, 0, 170]",170,l,0.1407199661480263,colour,0.5
024,76,0,1,13,33,633,1051.0991641014116,1051.7513142639073,"[23, 0, 231]",231,a,0.12878052704036236,colour,0.5
024,76,0,1,13,34,634,1052.2710191629594,1052.799331564689,"[8, 0, 246]",246,a,0.004825794021598995,colour,0.5
024,76,0,1,13,35,635,1053.3179585075704,1054.7913490956416,"[31, 0, 223]",223,a,0.9500347372377291,colour,0.5
024,76,0,1,13,36,636,1055.3023885968141,1056.4873681798344,"[46, 0, 208]",208,a,0.6616674491669983,colour,0.5
024,76,0,1,13,37,637,1057.005502421409,1058.0873388777254,"[4, 0, 250]",250,a,0.5587102177087218,colour,0.5
024,76,0,1,13,38,638,1058.5990349199856,1059.4873004383408,"[17, 0, 237]",237,a,0.3648659506579861,colour,0.5
024,76,0,1,13,39,639,1060.0054027783917,1060.6473649345571,"[78, 0, 176]",176,l,0.11858661309815943,colour,0.5
024,76,0,1,13,40,640,1061.1615843477193,1064.6553324374836,"[64, 0, 190]",190,l,2.971208681585267,colour,0.5
024,76,0,1,13,41,641,1065.16532864084,1065.9113228339702,"[93, 0, 161]",161,l,0.22257217625156045,colour,0.5
024,76,0,1,13,42,642,1066.4309225762263,1066.9994056865107,"[70, 0, 184]",184,l,0.04495278571266681,colour,0.5
024,76,0,1,13,43,643,1067.5090580623364,1068.159355573589,"[54, 0, 200]",200,a,0.12691133422777057,colour,0.5
024,76,0,1,13,44,644,1068.6809367546812,1069.367316066171,"[26, 0, 228]",228,a,0.164375533699058,colour,0.5
024,76,0,1,13,45,645,1069.8826677863253,1070.4154058346758,"[48, 0, 206]",206,a,0.009352659108117223,colour,0.5
024,76,0,1,13,46,646,1070.929582712357,1072.0633733533323,"[76, 0, 178]",178,l,0.6104505439288914,colour,0.5
024,76,0,1,13,47,647,1072.5701857062522,1073.1833699347917,"[16, 0, 238]",238,a,0.08981222996953875,colour,0.5
024,76,0,1,13,48,648,1073.6952333616791,1074.2793344319798,"[97, 0, 157]",157,l,0.060758216422982514,colour,0.5
024,76,0,1,13,49,649,1074.7888623524923,1075.503337844275,"[73, 0, 181]",181,a,0.19098258262965828,colour,0.5
024,76,0,1,13,50,650,1076.0232412416954,1076.7833422080148,"[53, 0, 201]",201,a,0.23688886931631714,colour,0.5
024,76,0,1,14,1,651,1082.5849655620987,1083.359297757037,"[47, 0, 207]",207,a,0.2502174029359594,colour,0.5
024,76,0,1,14,2,652,1083.8672309954418,1084.4233319838531,"[27, 0, 227]",227,a,0.03161283058580011,colour,0.5
024,76,0,1,14,3,653,1084.9307449517073,1086.375291839824,"[2, 0, 252]",252,a,0.9209606373915449,colour,0.5
024,76,0,1,14,4,654,1086.883970234776,1087.4713528292486,"[62, 0, 192]",192,l,0.06471203558612615,colour,0.5
024,76,0,1,14,5,655,1087.9776653917506,1088.5114085348323,"[74, 0, 180]",180,l,0.010334516991861165,colour,0.5
024,76,0,1,14,6,656,1089.0245350255864,1089.7193032550858,"[4, 0, 250]",250,a,0.17153250169940293,colour,0.5
024,76,0,1,14,7,657,1090.2278134777443,1090.9353143521585,"[80, 0, 174]",174,l,0.18426987272687256,colour,0.5
024,76,0,1,14,8,658,1091.4464956377633,1092.1033116928302,"[40, 0, 214]",214,a,0.1335720564238727,colour,0.5
024,76,0,1,14,9,659,1092.6182817763183,1093.2313049219083,"[39, 0, 215]",215,a,0.08961136860307306,colour,0.5
024,76,0,1,14,10,660,1093.7432971362723,1094.5593281618785,"[35, 0, 219]",219,a,0.2913191632833332,colour,0.5
024,76,0,1,14,11,661,1095.0753179125022,1095.6633054543054,"[98, 0, 156]",156,l,0.06459545716643333,colour,0.5
024,76,0,1,14,12,662,1096.184651903226,1096.871314389864,"[32, 0, 222]",222,a,0.16350552800577134,colour,0.5
024,76,0,1,14,13,663,1097.3877472170861,1098.8473504410358,"[84, 0, 170]",170,l,0.936540394439362,colour,0.5
024,76,0,1,14,14,664,1099.3565246878425,1100.1753437487641,"[61, 0, 193]",193,l,0.2955699423328042,colour,0.5
024,76,0,1,14,15,665,1100.684716493939,1101.3192830113694,"[90, 0, 164]",164,l,0.11125005118083209,colour,0.5
024,76,0,1,14,16,666,1101.8409224817296,1102.5513397851028,"[10, 0, 244]",244,a,0.1873284800676629,colour,0.5
024,76,0,1,14,17,667,1103.0596066110302,1103.7193249166012,"[82, 0, 172]",172,l,0.1362840795191005,colour,0.5
024,76,0,1,14,18,668,1104.2327117394889,1104.9674742346397,"[11, 0, 243]",243,a,0.21138655813410878,colour,0.5
024,76,0,1,14,19,669,1105.4828216225142,1106.0392979460303,"[21, 0, 233]",233,a,0.03327013412490487,colour,0.5
024,76,0,1,14,20,670,1106.560847225599,1107.207367360592,"[99, 0, 155]",155,l,0.12305991491302848,colour,0.5
024,76,0,1,14,21,671,1107.7171221363824,1108.4233166237827,"[19, 0, 235]",235,a,0.18331519013736397,colour,0.5
024,76,0,1,14,22,672,1108.9359074840322,1109.6313267409569,"[83, 0, 171]",171,l,0.17214926448650658,colour,0.5
024,76,0,1,14,23,673,1110.1395679668058,1110.9673155146884,"[70, 0, 184]",184,l,0.3044905524002388,colour,0.5
024,76,0,1,14,24,674,1111.4833505576244,1112.239284240175,"[54, 0, 200]",200,l,0.2325794071657583,colour,0.5
024,76,0,1,14,25,675,1112.7489606406307,1113.391302464297,"[31, 0, 223]",223,a,0.11892295745201409,colour,0.5
024,76,0,1,14,26,676,1113.9051894714357,1114.567298421869,"[78, 0, 176]",176,l,0.1387121396837756,colour,0.5
024,76,0,1,14,27,677,1115.0770937637426,1115.951274564257,"[52, 0, 202]",202,l,0.3508162851212546,colour,0.5
024,76,0,1,14,28,678,1116.467707785312,1117.0233259185916,"[51, 0, 203]",203,l,0.03219887334853411,colour,0.5
024,76,0,1,14,29,679,1117.530137089896,1118.1593780227704,"[69, 0, 185]",185,l,0.10587523586582392,colour,0.5
024,76,0,1,14,30,680,1118.6708164898446,1119.3593198123854,"[18, 0, 236]",236,a,0.16400098614394665,colour,0.5
024,76,0,1,14,31,681,1119.8751681722933,1120.407369802473,"[23, 0, 231]",231,a,0.00880639476235956,colour,0.5
024,76,0,1,14,32,682,1120.9219747907482,1121.511292744195,"[20, 0, 234]",234,a,0.06590617645997554,colour,0.5
024,76,0,1,14,33,683,1122.0313706153538,1122.6315563530661,"[94, 0, 160]",160,l,0.07686021307017654,colour,0.5
024,76,0,1,14,34,684,1123.140679400065,1124.1112914050464,"[76, 0, 178]",178,l,0.4473955756984651,colour,0.5
024,76,0,1,14,35,685,1124.625136664603,1125.2713484182023,"[73, 0, 181]",181,l,0.12259163218550384,colour,0.5
024,76,0,1,14,36,686,1125.781573839835,1126.4876572627109,"[44, 0, 210]",210,a,0.18275435362011194,colour,0.5
024,76,0,1,14,37,687,1127.0004162951373,1127.7352634671843,"[7, 0, 247]",247,l,0.2114479981828481,colour,0.5
024,76,0,1,14,38,688,1128.2503225598484,1128.935289145913,"[22, 0, 232]",232,a,0.1615516582969576,colour,0.5
024,76,0,1,14,39,689,1129.4535557198105,1130.00728142343,"[56, 0, 198]",198,a,0.030406874371692538,colour,0.5
024,76,0,1,14,40,690,1130.5160145629197,1132.6472641099244,"[29, 0, 225]",225,l,1.6079346562037244,colour,0.5
024,76,0,1,14,41,691,1133.1565947136842,1134.9912664667936,"[45, 0, 209]",209,l,1.3120965049602091,colour,0.5
024,76,0,1,14,42,692,1135.5003272859612,1136.0793568023946,"[34, 0, 220]",220,a,0.05557914252858609,colour,0.5
024,76,0,1,14,43,693,1136.5941189351724,1137.3752784491517,"[57, 0, 197]",197,l,0.25799979839939624,colour,0.5
024,76,0,1,14,44,694,1137.8908534798538,1138.5672842434142,"[16, 0, 238]",238,a,0.1532040941528976,colour,0.5
024,76,0,1,14,45,695,1139.0784174798755,1140.1752775826026,"[92, 0, 162]",162,l,0.5733411996625364,colour,0.5
024,76,0,1,14,46,696,1140.687787704519,1141.3273123481777,"[96, 0, 158]",158,l,0.11612428829539567,colour,0.5
024,76,0,1,14,47,697,1141.8440330767771,1143.2953084287,"[49, 0, 205]",205,l,0.9278088303981349,colour,0.5
024,76,0,1,14,48,698,1143.8128593844594,1144.4553126664832,"[0, 0, 254]",254,a,0.11785484733991325,colour,0.5
024,76,0,1,14,49,699,1144.9703524606302,1145.871300211409,"[55, 0, 199]",199,l,0.37754778924863786,colour,0.5
024,76,0,1,14,50,700,1146.392167349928,1147.0312666400569,"[75, 0, 179]",179,l,0.11573753168340772,colour,0.5
024,76,0,1,15,1,701,1151.7039030918386,1152.7273026596522,"[41, 0, 213]",213,l,0.499307225109078,colour,0.5
024,76,0,1,15,2,702,1153.2358951960923,1153.8632716623833,"[94, 0, 160]",160,l,0.10438413533847779,colour,0.5
024,76,0,1,15,3,703,1154.3776560969418,1155.0152918556705,"[64, 0, 190]",190,a,0.11422595102339983,colour,0.5
024,76,0,1,15,4,704,1155.5218178825453,1156.7033879414666,"[55, 0, 199]",199,l,0.66269184241537,colour,0.5
024,76,0,1,15,5,705,1157.2207289773505,1157.999243028229,"[84, 0, 170]",170,l,0.25540868612006307,colour,0.5
024,76,0,1,15,6,706,1158.5176340573234,1159.111309128115,"[48, 0, 206]",206,a,0.06856936251278967,colour,0.5
024,76,0,1,15,7,707,1159.6287364163436,1160.2473151524318,"[57, 0, 197]",197,a,0.09548518666997552,colour,0.5
024,76,0,1,15,8,708,1160.7537238132209,1161.7032949938439,"[20, 0, 234]",234,a,0.426613901858218,colour,0.5
024,76,0,1,15,9,709,1162.2224760778481,1162.9192761585582,"[6, 0, 248]",248,a,0.17359152832068503,colour,0.5
024,76,0,1,15,10,710,1163.4256277116947,1164.2232637696434,"[54, 0, 200]",200,l,0.2742699671071023,colour,0.5
024,76,0,1,15,11,711,1164.7381007332588,1165.4394505219534,"[87, 0, 167]",167,l,0.17778638110030442,colour,0.5
024,76,0,1,15,12,712,1165.9567982532317,1166.751268183929,"[13, 0, 241]",241,a,0.27106721221935004,colour,0.5
024,76,0,1,15,13,713,1167.2693531947443,1167.9192856107838,"[77, 0, 177]",177,l,0.12654623901471496,colour,0.5
024,76,0,1,15,14,714,1168.4255828132154,1169.7272447642172,"[36, 0, 218]",218,l,0.7763699536444619,colour,0.5
024,76,0,1,15,15,715,1170.2398435014766,1171.1192845080514,"[10, 0, 244]",244,l,0.3564912109868601,colour,0.5
024,76,0,1,15,16,716,1171.6304315291345,1172.415279410081,"[90, 0, 164]",164,l,0.2613770271418616,colour,0.5
024,76,0,1,15,17,717,1172.9273948983755,1173.5592982296366,"[30, 0, 224]",224,a,0.10846871125977486,colour,0.5
024,76,0,1,15,18,718,1174.0679045506986,1174.6632637067232,"[39, 0, 215]",215,a,0.07184300990775228,colour,0.5
024,76,0,1,15,19,719,1175.1773996244883,1175.7353292395128,"[25, 0, 229]",229,a,0.034655684139579535,colour,0.5
024,76,0,1,15,20,720,1176.2555240829242,1176.9432617689017,"[71, 0, 183]",183,l,0.16442988440394402,colour,0.5
024,76,0,1,15,21,721,1177.4586099444423,1178.1752665549284,"[49, 0, 205]",205,l,0.19326098111923784,colour,0.5
024,76,0,1,15,22,722,1178.6930758736562,1179.3032515131636,"[15, 0, 239]",239,l,0.0851199496537447,colour,0.5
024,76,0,1,15,23,723,1179.8195965128252,1180.3753005045,"[24, 0, 230]",230,l,0.03230009169783443,colour,0.5
024,76,0,1,15,24,724,1180.8821459404426,1181.5032949150773,"[51, 0, 203]",203,l,0.09780533309094608,colour,0.5
024,76,0,1,15,25,725,1182.0227174266474,1182.6232190288138,"[46, 0, 208]",208,l,0.07718159130308777,colour,0.5
024,76,0,1,15,26,726,1183.1321353066014,1183.8152807491133,"[33, 0, 221]",221,l,0.159782896284014,colour,0.5
024,76,0,1,15,27,727,1184.335272761993,1184.9192741892766,"[61, 0, 193]",193,l,0.060666844132356346,colour,0.5
024,76,0,1,15,28,728,1185.4290616542567,1186.0312500984874,"[58, 0, 196]",196,l,0.07884559035301208,colour,0.5
024,76,0,1,15,29,729,1186.5491511833388,1187.3192822237033,"[81, 0, 173]",173,l,0.24680472805630416,colour,0.5
024,76,0,1,15,30,730,1187.8302996695274,1188.495271485881,"[29, 0, 225]",225,l,0.14150253788102418,colour,0.5
024,76,0,1,15,31,731,1189.0022587063722,1189.7272754842415,"[40, 0, 214]",214,l,0.20172788086347282,colour,0.5
024,76,0,1,15,32,732,1190.2366218417883,1190.8792610190576,"[22, 0, 232]",232,a,0.11930695723276585,colour,0.5
024,76,0,1,15,33,733,1191.3928353126394,1192.2392519448185,"[18, 0, 236]",236,l,0.32316672592423856,colour,0.5
024,76,0,1,15,34,734,1192.7521992357215,1193.3273044712842,"[1, 0, 253]",253,l,0.05171157559379935,colour,0.5
024,76,0,1,15,35,735,1193.8460149094462,1194.711305032135,"[93, 0, 161]",161,l,0.34079172485508025,colour,0.5
024,76,0,1,15,36,736,1195.2221480042208,1196.3352511004778,"[16, 0, 238]",238,l,0.5897035285597667,colour,0.5
024,76,0,1,15,37,737,1196.8471019242425,1197.5192610347876,"[70, 0, 184]",184,l,0.14873197360429913,colour,0.5
024,76,0,1,15,38,738,1198.034623388783,1198.7992472817423,"[2, 0, 252]",252,a,0.2411747006699443,colour,0.5
024,76,0,1,15,39,739,1199.3158463118598,1199.8872241897043,"[31, 0, 223]",223,a,0.04797515936661512,colour,0.5
024,76,0,1,15,40,740,1200.3940979825566,1201.13539280626,"[62, 0, 192]",192,l,0.21796457283198833,colour,0.5
024,76,0,1,15,41,741,1201.64408971183,1202.2472505617188,"[86, 0, 168]",168,l,0.0725834402255714,colour,0.5
024,76,0,1,15,42,742,1202.760570430779,1203.4232457315084,"[92, 0, 162]",162,l,0.1393186622299254,colour,0.5
024,76,0,1,15,43,743,1203.9204951116117,1204.7992551586358,"[67, 0, 187]",187,l,0.3645989230135456,colour,0.5
024,76,0,1,15,44,744,1205.3175516647752,1206.8793512097327,"[97, 0, 157]",157,l,1.03845117718447,colour,0.5
024,76,0,1,15,45,745,1207.3956182278926,1208.3832817920484,"[52, 0, 202]",202,l,0.4641367841977626,colour,0.5
024,76,0,1,15,46,746,1208.8956674586516,1209.527299823938,"[8, 0, 246]",246,a,0.10815205925609916,colour,0.5
024,76,0,1,15,47,747,1210.0362519416958,1210.5912273185095,"[43, 0, 211]",211,a,0.031609679805114865,colour,0.5
024,76,0,1,15,48,748,1211.0987564709503,1211.8073219107464,"[72, 0, 182]",182,l,0.1853005674201995,colour,0.5
024,76,0,1,15,49,749,1212.3175351232057,1213.7752278004773,"[88, 0, 166]",166,l,0.934447890962474,colour,0.5
024,76,0,1,15,50,750,1214.2873917317484,1215.063288282603,"[60, 0, 194]",194,l,0.25241506309248507,colour,0.5
024,76,0,1,16,1,751,1220.021480750409,1220.8232423444279,"[88, 0, 166]",166,l,0.27760741754900664,colour,0.5
024,76,0,1,16,2,752,1221.334808417596,1222.0073046603939,"[41, 0, 213]",213,a,0.1492636656621471,colour,0.5
024,76,0,1,16,3,753,1222.52221724228,1224.383414124255,"[46, 0, 208]",208,a,1.3377539911307395,colour,0.5
024,76,0,1,16,4,754,1224.8973243683577,1225.8392419412266,"[84, 0, 170]",170,l,0.4186078020138666,colour,0.5
024,76,0,1,16,5,755,1226.3502660823287,1227.1512206860352,"[33, 0, 221]",221,a,0.27755542984232306,colour,0.5
024,76,0,1,16,6,756,1227.662911608466,1228.367281013867,"[73, 0, 181]",181,l,0.18118842225521803,colour,0.5
024,76,0,1,16,7,757,1228.8814606484957,1229.4472277973546,"[94, 0, 160]",160,l,0.04234946414362639,colour,0.5
024,76,0,1,16,8,758,1229.9597335868748,1230.671218212694,"[62, 0, 192]",192,l,0.188072454999201,colour,0.5
024,76,0,1,16,9,759,1231.178583919187,1231.8952625850216,"[29, 0, 225]",225,a,0.19398802076466382,colour,0.5
024,76,0,1,16,10,760,1232.4128560761455,1232.9992520866217,"[21, 0, 233]",233,a,0.06302637502085418,colour,0.5
024,76,0,1,16,11,761,1233.5065689561889,1234.199240350048,"[74, 0, 180]",180,l,0.16992915503215045,colour,0.5
024,76,0,1,16,12,762,1234.7095839254325,1235.4392323313514,"[35, 0, 219]",219,a,0.20616691827308387,colour,0.5
024,76,0,1,16,13,763,1235.959689476178,1236.5512578651542,"[65, 0, 189]",189,l,0.06812943669501692,colour,0.5
024,76,0,1,16,14,764,1237.068963602418,1237.5992310552392,"[58, 0, 196]",196,l,0.006775725167244673,colour,0.5
024,76,0,1,16,15,765,1238.1315532022854,1239.223265345092,"[11, 0, 243]",243,a,0.5691207469208166,colour,0.5
024,76,0,1,16,16,766,1239.742038798635,1240.3352802450536,"[83, 0, 171]",171,l,0.06976271572057158,colour,0.5
024,76,0,1,16,17,767,1240.8514306847937,1241.7112183860736,"[32, 0, 222]",222,a,0.33635032444726676,colour,0.5
024,76,0,1,16,18,768,1242.2264361985726,1243.263228890719,"[25, 0, 229]",229,a,0.5134435367072001,colour,0.5
024,76,0,1,16,19,769,1243.7732404540293,1244.3752205537166,"[50, 0, 204]",204,a,0.07905157166533172,colour,0.5
024,76,0,1,16,20,770,1244.88266227243,1245.7592100868933,"[48, 0, 206]",206,l,0.3530801114393398,colour,0.5
024,76,0,1,16,21,771,1246.2733341893181,1246.8792362067616,"[61, 0, 193]",193,l,0.0826871634926647,colour,0.5
024,76,0,1,16,22,772,1247.3983467924409,1248.3753776983358,"[86, 0, 168]",168,l,0.46258384990505874,colour,0.5
024,76,0,1,16,23,773,1248.8895018007606,1249.5912525246385,"[16, 0, 238]",238,a,0.17841299006249756,colour,0.5
024,76,0,1,16,24,774,1250.1086561819538,1250.7592278099619,"[64, 0, 190]",190,l,0.12765964143909514,colour,0.5
024,76,0,1,16,25,775,1251.2801138530485,1251.9352473983308,"[63, 0, 191]",191,l,0.13179856829810888,colour,0.5
024,76,0,1,16,26,776,1252.452026416082,1253.1192163727246,"[89, 0, 165]",165,l,0.14380417356733233,colour,0.5
024,76,0,1,16,27,777,1253.6395722990856,1254.2632351922803,"[69, 0, 185]",185,l,0.09874859405681491,colour,0.5
024,76,0,1,16,28,778,1254.7818920674035,1256.239209803287,"[82, 0, 172]",172,l,0.9339551897719502,colour,0.5
024,76,0,1,16,29,779,1256.7506848981138,1257.4392027929425,"[4, 0, 250]",250,a,0.165220333263278,colour,0.5
024,76,0,1,16,30,780,1257.953740039724,1258.4952356459107,"[99, 0, 155]",155,l,0.018144875415600836,colour,0.5
024,76,0,1,16,31,781,1259.0161504397402,1260.711231776746,"[92, 0, 162]",162,l,1.1716845262562856,colour,0.5
024,76,0,1,16,32,782,1261.2193733596941,1261.8632192808436,"[52, 0, 202]",202,a,0.12083350401371717,colour,0.5
024,76,0,1,16,33,783,1262.3755565043539,1263.607203284395,"[1, 0, 253]",253,a,0.7089683442609385,colour,0.5
024,76,0,1,16,34,784,1264.1273181771394,1264.7592061484465,"[30, 0, 224]",224,a,0.10840057593304664,colour,0.5
024,76,0,1,16,35,785,1265.278066248051,1266.0951807438396,"[66, 0, 188]",188,l,0.2937125649768859,colour,0.5
024,76,0,1,16,36,786,1266.606195038883,1267.2952233579708,"[13, 0, 241]",241,a,0.16575950826518238,colour,0.5
024,76,0,1,16,37,787,1267.8092820819002,1268.3912063658936,"[90, 0, 164]",164,a,0.05848375626374036,colour,0.5
024,76,0,1,16,38,788,1268.9030504942639,1269.5031901519978,"[44, 0, 210]",210,a,0.0861656105844304,colour,0.5
024,76,0,1,16,39,789,1270.0186907459283,1270.615221593529,"[68, 0, 186]",186,l,0.07310843677259982,colour,0.5
024,76,0,1,16,40,790,1271.1280846012523,1272.4391988543794,"[19, 0, 235]",235,l,0.7877209868747741,colour,0.5
024,76,0,1,16,41,791,1272.9506199923344,1273.7671964945039,"[26, 0, 228]",228,a,0.2931383375544101,colour,0.5
024,76,0,1,16,42,792,1274.2848333086586,1274.9595299685607,"[43, 0, 211]",211,a,0.15126991679426283,colour,0.5
024,76,0,1,16,43,793,1275.4724095178535,1276.0951819253387,"[53, 0, 201]",201,l,0.09931415668688715,colour,0.5
024,76,0,1,16,44,794,1276.6130897055846,1277.6152913041878,"[14, 0, 240]",240,a,0.47887292318046093,colour,0.5
024,76,0,1,16,45,795,1278.1285891178995,1278.7671945252223,"[9, 0, 245]",245,a,0.12340689322445542,colour,0.5
024,76,0,1,16,46,796,1279.2858722741948,1280.071207342553,"[79, 0, 175]",175,l,0.26201742060948163,colour,0.5
024,76,0,1,16,47,797,1280.582684800378,1281.3511928018415,"[23, 0, 231]",231,a,0.24507377529516816,colour,0.5
024,76,0,1,16,48,798,1281.8638931511668,1282.487183859921,"[10, 0, 244]",244,a,0.09986711642704904,colour,0.5
024,76,0,1,16,49,799,1283.0046036649728,1283.6632814297918,"[47, 0, 207]",207,a,0.135382566251792,colour,0.5
024,76,0,1,16,50,800,1284.1764603019692,1284.8712041130057,"[49, 0, 205]",205,l,0.1716742862481624,colour,0.5
