id,age,condition,counterbalance,block,trialinblock,trial,tstart,tend,trialstim,trialintensity,response,RT,trialtype,colourfreq
070,71,1,1,Practice,1,NA,5.907611921429634e-06,0.8961721796076745,"[49, 0, 205]",205,a,0.30940277711488307,colour,0.5
070,71,1,1,Practice,2,NA,1.4070287179201841,10.48816672572866,"[58, 0, 196]",196,a,8.558462570421398,colour,0.5
070,71,1,1,Practice,3,NA,11.000662841368467,11.688180982833728,"[83, 0, 171]",171,a,0.16402114322409034,colour,0.5
070,71,1,1,Practice,4,NA,12.20386842568405,16.888160975417122,"[72, 0, 182]",182,a,4.161344965454191,colour,0.5
070,71,1,1,Practice,5,NA,17.4072740834672,18.01611378020607,"[38, 0, 216]",216,a,0.08585075871087611,colour,0.5
070,71,1,1,Practice,6,NA,18.531939069041982,19.23217368242331,"[29, 0, 225]",225,a,0.17718817410059273,colour,0.5
070,71,1,1,Practice,7,NA,19.75064679211937,21.600126266712323,"[77, 0, 177]",177,l,1.3261360758915544,colour,0.5
070,71,1,1,Practice,8,NA,22.109950930811465,24.152168767293915,"[68, 0, 186]",186,a,1.5187228075228631,colour,0.5
070,71,1,1,Practice,9,NA,24.672465773764998,25.36815659585409,"[10, 0, 244]",244,a,0.172330881934613,colour,0.5
070,71,1,1,Practice,10,NA,25.875596133759245,28.128935448359698,"[23, 0, 231]",231,a,1.729922660626471,colour,0.5
070,71,1,1,1,1,1,6.2273656208999455,10.935955265304074,"[10, 0, 244]",244,a,4.184429016895592,colour,0.5
070,71,1,1,1,2,2,11.446916960412636,12.247925912961364,"[81, 0, 173]",173,l,0.2782433247193694,colour,0.5
070,71,1,1,1,3,3,12.759340923745185,13.407943620113656,"[2, 0, 252]",252,a,0.12522306386381388,colour,0.5
070,71,1,1,1,4,4,13.915661606471986,14.655893951654434,"[69, 0, 185]",185,l,0.21697519836016,colour,0.5
070,71,1,1,1,5,5,15.165623305132613,15.71187234367244,"[32, 0, 222]",222,a,0.022895399946719408,colour,0.5
070,71,1,1,1,6,6,16.228158825077116,19.67989172390662,"[67, 0, 187]",187,l,2.9283914694096893,colour,0.5
070,71,1,1,1,7,7,20.196822142228484,22.231854273937643,"[3, 0, 251]",251,l,1.511839969549328,colour,0.5
070,71,1,1,1,8,8,22.743696213001385,25.575880765682086,"[28, 0, 226]",226,a,2.30885769543238,colour,0.5
070,71,1,1,1,9,9,26.088147269561887,26.67991732386872,"[26, 0, 228]",228,a,0.0690989491995424,colour,0.5
070,71,1,1,1,10,10,27.196731163887307,28.639920380199328,"[92, 0, 162]",162,l,0.9199773618020117,colour,0.5
070,71,1,1,1,11,11,29.14991242834367,33.0318514383398,"[17, 0, 237]",237,a,3.3585778882261366,colour,0.5
070,71,1,1,1,12,12,33.54046542244032,34.95187369850464,"[66, 0, 188]",188,l,0.8879620837979019,colour,0.5
070,71,1,1,1,13,13,35.462491172831506,37.663799211382866,"[34, 0, 220]",220,a,1.6781454146839678,colour,0.5
070,71,1,1,1,14,14,38.181106539443135,38.72028920822777,"[76, 0, 178]",178,l,0.01587471622042358,colour,0.5
070,71,1,1,1,15,15,39.22795245028101,40.77579419850372,"[84, 0, 170]",170,l,1.0247582874726504,colour,0.5
070,71,1,1,1,16,16,41.29037887509912,42.82387363235466,"[23, 0, 231]",231,a,1.0102880229242146,colour,0.5
070,71,1,1,1,17,17,43.337318127043545,44.05583897070028,"[65, 0, 189]",189,l,0.19518020167015493,colour,0.5
070,71,1,1,1,18,18,44.57166504720226,47.823798801749945,"[54, 0, 200]",200,l,2.728674959158525,colour,0.5
070,71,1,1,1,19,19,48.33731261338107,48.87188650644384,"[40, 0, 214]",214,a,0.011991009349003434,colour,0.5
070,71,1,1,1,20,20,49.38401910290122,51.119832505472004,"[21, 0, 233]",233,a,1.2123002565931529,colour,0.5
070,71,1,1,1,21,21,51.63411707198247,53.423759259749204,"[68, 0, 186]",186,l,1.2653173268772662,colour,0.5
070,71,1,1,1,22,22,53.932575286366045,54.55984890507534,"[93, 0, 161]",161,l,0.1055201729759574,colour,0.5
070,71,1,1,1,23,23,55.072400159202516,55.60777631471865,"[39, 0, 215]",215,a,0.011840560473501682,colour,0.5
070,71,1,1,1,24,24,56.1194067588076,57.70383081352338,"[1, 0, 253]",253,l,1.061160606564954,colour,0.5
070,71,1,1,1,25,25,58.21292135026306,59.599791498389095,"[13, 0, 241]",241,a,0.8635365955997258,colour,0.5
070,71,1,1,1,26,26,60.119225196307525,60.87189792795107,"[79, 0, 175]",175,l,0.229553037090227,colour,0.5
070,71,1,1,1,27,27,61.38503364799544,62.01584163331427,"[47, 0, 207]",207,a,0.10740196518599987,colour,0.5
070,71,1,1,1,28,28,62.52546228538267,65.39975439803675,"[53, 0, 201]",201,a,2.3508246527053416,colour,0.5
070,71,1,1,1,29,29,65.91639455244876,98.48774531134404,"[57, 0, 197]",197,a,32.04820388904773,colour,0.5
070,71,1,1,1,30,30,98.99417581781745,100.25570120383054,"[52, 0, 202]",202,a,0.7382343686185777,colour,0.5
070,71,1,1,1,31,31,100.7752912582364,102.51167061622255,"[87, 0, 167]",167,l,1.212965460959822,colour,0.5
070,71,1,1,1,32,32,103.02527895057574,104.17574433772825,"[27, 0, 227]",227,a,0.6270030471496284,colour,0.5
070,71,1,1,1,33,33,104.69717679964378,105.70369926909916,"[83, 0, 171]",171,l,0.4833200671710074,colour,0.5
070,71,1,1,1,34,34,106.21277641528286,107.23164592985995,"[5, 0, 249]",249,a,0.4956454511266202,colour,0.5
070,71,1,1,1,35,35,107.74413495650515,108.87969724321738,"[78, 0, 176]",176,l,0.6122452756389976,colour,0.5
070,71,1,1,1,36,36,109.40031365817413,110.7996391588822,"[60, 0, 194]",194,a,0.8759537450969219,colour,0.5
070,71,1,1,1,37,37,111.30661829188466,112.3516592103988,"[64, 0, 190]",190,a,0.5216766460798681,colour,0.5
070,71,1,1,1,38,38,112.8690728766378,113.76771919149905,"[24, 0, 230]",230,a,0.37536278064362705,colour,0.5
070,71,1,1,1,39,39,114.27522174455225,114.79973210650496,"[33, 0, 221]",221,a,0.001091738697141409,colour,0.5
070,71,1,1,1,40,40,115.32221455965191,117.28764992207289,"[30, 0, 224]",224,a,1.4421435573603958,colour,0.5
070,71,1,1,1,41,41,117.80655901809223,118.41565313888714,"[45, 0, 209]",209,a,0.08569125132635236,colour,0.5
070,71,1,1,1,42,42,118.93153986753896,119.6396671377588,"[25, 0, 229]",229,a,0.18476575473323464,colour,0.5
070,71,1,1,1,43,43,120.15021372004412,120.86364096426405,"[62, 0, 192]",192,l,0.18998971651308239,colour,0.5
070,71,1,1,1,44,44,121.3846606768202,122.76761324703693,"[9, 0, 245]",245,a,0.8595296149142087,colour,0.5
070,71,1,1,1,45,45,123.27521268604323,124.35964048234746,"[37, 0, 217]",217,a,0.5610107483807951,colour,0.5
070,71,1,1,1,46,46,124.86905791051686,125.92764080059715,"[97, 0, 157]",157,l,0.5353773371316493,colour,0.5
070,71,1,1,1,47,47,126.44702999386936,127.44777278602123,"[7, 0, 247]",247,a,0.4774722547736019,colour,0.5
070,71,1,1,1,48,48,127.96267687086947,129.20759459468536,"[85, 0, 169]",169,l,0.721690509468317,colour,0.5
070,71,1,1,1,49,49,129.72831537853926,131.38361935014836,"[61, 0, 193]",193,a,1.1319964127615094,colour,0.5
070,71,1,1,1,50,50,131.90021066763438,132.94359349808656,"[71, 0, 183]",183,l,0.5200134378392249,colour,0.5
070,71,1,1,2,1,51,138.9931120420806,140.15962819429114,"[83, 0, 171]",171,l,0.6423787616658956,colour,0.5
070,71,1,1,2,2,52,140.681376126362,141.6235785635654,"[84, 0, 170]",170,l,0.4188247739803046,colour,0.5
070,71,1,1,2,3,53,142.1345276555512,143.90354180987924,"[40, 0, 214]",214,a,1.2462564033921808,colour,0.5
070,71,1,1,2,4,54,144.4156716496218,145.56760095921345,"[7, 0, 247]",247,a,0.6284476711880416,colour,0.5
070,71,1,1,2,5,55,146.08758249576204,147.24758720607497,"[48, 0, 206]",206,a,0.6365979025140405,colour,0.5
070,71,1,1,2,6,56,147.7594882217236,149.23957166960463,"[20, 0, 234]",234,a,0.956706966040656,colour,0.5
070,71,1,1,2,7,57,149.75945198792033,150.74359578243457,"[16, 0, 238]",238,a,0.46076810033991933,colour,0.5
070,71,1,1,2,8,58,151.25952465250157,151.807566473959,"[73, 0, 181]",181,l,0.024734656559303403,colour,0.5
070,71,1,1,2,9,59,152.3219770709984,154.8475185194984,"[49, 0, 205]",205,a,2.002503279829398,colour,0.5
070,71,1,1,2,10,60,155.36872767144814,156.64754325291142,"[81, 0, 173]",173,l,0.7553244908340275,colour,0.5
070,71,1,1,2,11,61,157.16572609869763,158.23153525940143,"[47, 0, 207]",207,a,0.5425587093923241,colour,0.5
070,71,1,1,2,12,62,158.74374111136422,159.9835018266458,"[28, 0, 226]",226,a,0.7163176739122719,colour,0.5
070,71,1,1,2,13,63,160.4937652342487,161.759519335581,"[88, 0, 166]",166,l,0.7422673429828137,colour,0.5
070,71,1,1,2,14,64,162.27502521593124,163.399483038811,"[80, 0, 174]",174,l,0.60108134127222,colour,0.5
070,71,1,1,2,15,65,163.91565097286366,165.02356690564193,"[15, 0, 239]",239,a,0.5846390940714628,colour,0.5
070,71,1,1,2,16,66,165.54059539129958,166.53553211828694,"[96, 0, 158]",158,l,0.4714586331974715,colour,0.5
070,71,1,1,2,17,67,167.0562725942582,168.1515921780374,"[57, 0, 197]",197,a,0.5720009973738343,colour,0.5
070,71,1,1,2,18,68,168.6656620989088,169.80751172965392,"[9, 0, 245]",245,a,0.6185211981646717,colour,0.5
070,71,1,1,2,19,69,170.3218600989785,171.26350563927554,"[34, 0, 220]",220,a,0.418259606231004,colour,0.5
070,71,1,1,2,20,70,171.77493837289512,172.73553337855265,"[65, 0, 189]",189,l,0.4371574779506773,colour,0.5
070,71,1,1,2,21,71,173.24370625591837,174.61551182717085,"[53, 0, 201]",201,a,0.8484188495203853,colour,0.5
070,71,1,1,2,22,72,175.13433309597895,176.19954361207783,"[26, 0, 228]",228,a,0.542292470112443,colour,0.5
070,71,1,1,2,23,73,176.70011567231268,177.799549756106,"[11, 0, 243]",243,a,0.5759366918355227,colour,0.5
070,71,1,1,2,24,74,178.30950832762755,179.2075024349615,"[6, 0, 248]",248,a,0.37466409942135215,colour,0.5
070,71,1,1,2,25,75,179.71579937357455,180.67162373289466,"[60, 0, 194]",194,l,0.43252231436781585,colour,0.5
070,71,1,1,2,26,76,181.18449990916997,182.6235017636791,"[71, 0, 183]",183,l,0.9155044623184949,colour,0.5
070,71,1,1,2,27,77,183.13762367214076,184.1674924942199,"[66, 0, 188]",188,l,0.5072879074141383,colour,0.5
070,71,1,1,2,28,78,184.68447411223315,185.79957496211864,"[78, 0, 176]",176,l,0.5915632855612785,colour,0.5
070,71,1,1,2,29,79,186.3094653985463,187.65557178622112,"[63, 0, 191]",191,l,0.8229827545583248,colour,0.5
070,71,1,1,2,30,80,188.16883393074386,189.15945214545354,"[74, 0, 180]",180,l,0.4672500037122518,colour,0.5
070,71,1,1,2,31,81,189.66896645957604,190.70344799594022,"[19, 0, 235]",235,a,0.5112992201466113,colour,0.5
070,71,1,1,2,32,82,191.2157062292099,192.1994349109009,"[38, 0, 216]",216,a,0.4602962739299983,colour,0.5
070,71,1,1,2,33,83,192.7157272999175,193.75949806789868,"[89, 0, 165]",165,l,0.5204210677184165,colour,0.5
070,71,1,1,2,34,84,194.27821693685837,195.43950085621327,"[31, 0, 223]",223,a,0.6379216159693897,colour,0.5
070,71,1,1,2,35,85,195.95001711254008,197.1034509104211,"[32, 0, 222]",222,a,0.6299738211091608,colour,0.5
070,71,1,1,2,36,86,197.6219055093825,198.615500011947,"[72, 0, 182]",182,l,0.4701683963648975,colour,0.5
070,71,1,1,2,37,87,199.1218734108843,200.16740466677584,"[4, 0, 250]",250,a,0.5224430686794221,colour,0.5
070,71,1,1,2,38,88,200.68434335570782,201.86345428181812,"[46, 0, 208]",208,a,0.6555875402409583,colour,0.5
070,71,1,1,2,39,89,202.37196507840417,203.51939510111697,"[21, 0, 233]",233,a,0.6241271900944412,colour,0.5
070,71,1,1,2,40,90,204.02815598947927,204.97538231522776,"[77, 0, 177]",177,l,0.42351980204693973,colour,0.5
070,71,1,1,2,41,91,205.48119369731285,206.5353844263591,"[42, 0, 212]",212,a,0.5307776196859777,colour,0.5
070,71,1,1,2,42,92,207.0437254756689,207.99137794203125,"[92, 0, 162]",162,l,0.4242948892060667,colour,0.5
070,71,1,1,2,43,93,208.51243822043762,209.55940976785496,"[82, 0, 172]",172,l,0.5237069178838283,colour,0.5
070,71,1,1,2,44,94,210.07491367892362,211.0634240345098,"[35, 0, 219]",219,a,0.46507834177464247,colour,0.5
070,71,1,1,2,45,95,211.5749603495933,212.59939765324816,"[75, 0, 179]",179,l,0.5010478252079338,colour,0.5
070,71,1,1,2,46,96,213.10621097730473,214.1273537662346,"[52, 0, 202]",202,a,0.4978537408169359,colour,0.5
070,71,1,1,2,47,97,214.63745057722554,215.89542938768864,"[37, 0, 217]",217,a,0.7345751533284783,colour,0.5
070,71,1,1,2,48,98,216.40303512802348,217.32771657640114,"[51, 0, 203]",203,a,0.4012084745336324,colour,0.5
070,71,1,1,2,49,99,217.8405411588028,218.82338053826243,"[58, 0, 196]",196,a,0.45942981471307576,colour,0.5
070,71,1,1,2,50,100,219.34070558915846,220.40739617543295,"[14, 0, 240]",240,a,0.5434165042825043,colour,0.5
070,71,1,1,3,1,101,224.90217319806106,227.60732811898924,"[24, 0, 230]",230,a,2.1807485341560096,colour,0.5
070,71,1,1,3,2,102,228.12177652516402,229.80734867765568,"[62, 0, 192]",192,a,1.1622114246711135,colour,0.5
070,71,1,1,3,3,103,230.3249517835211,231.40734497550875,"[97, 0, 157]",157,l,0.5591352577321231,colour,0.5
070,71,1,1,3,4,104,231.91860599280335,232.8794443947263,"[54, 0, 200]",200,a,0.43748633842915297,colour,0.5
070,71,1,1,3,5,105,233.38731322367676,234.35935573233292,"[20, 0, 234]",234,a,0.44870974379591644,colour,0.5
070,71,1,1,3,6,106,234.8717210914474,235.7673497647047,"[46, 0, 208]",208,a,0.37220256705768406,colour,0.5
070,71,1,1,3,7,107,236.277951879194,237.19932187744416,"[69, 0, 185]",185,l,0.3979588581714779,colour,0.5
070,71,1,1,3,8,108,237.7154397929553,238.67934506689198,"[57, 0, 197]",197,a,0.4405736904591322,colour,0.5
070,71,1,1,3,9,109,239.1998307253234,240.58334610029124,"[65, 0, 189]",189,a,0.8601105364505202,colour,0.5
070,71,1,1,3,10,110,241.09046544204466,242.0713860078249,"[9, 0, 245]",245,a,0.45755432383157313,colour,0.5
070,71,1,1,3,11,111,242.59034945466556,243.16732747317292,"[94, 0, 160]",160,l,0.05380279151722789,colour,0.5
070,71,1,1,3,12,112,243.68417794071138,245.4873227153439,"[68, 0, 186]",186,a,1.2797470253426582,colour,0.5
070,71,1,1,3,13,113,245.99699102295563,247.0313118705526,"[58, 0, 196]",196,a,0.5110589747782797,colour,0.5
070,71,1,1,3,14,114,247.54376820777543,248.48736406909302,"[99, 0, 155]",155,l,0.42022371175698936,colour,0.5
070,71,1,1,3,15,115,248.9969929922372,250.49533588881604,"[29, 0, 225]",225,a,0.97516451892443,colour,0.5
070,71,1,1,3,16,116,251.01262155524455,252.07132496195845,"[36, 0, 218]",218,a,0.5354907645378262,colour,0.5
070,71,1,1,3,17,117,252.59063026634976,253.56727603683248,"[32, 0, 222]",222,a,0.45347172510810196,colour,0.5
070,71,1,1,3,18,118,254.07505073701032,254.9912369453814,"[88, 0, 166]",166,l,0.3927207177039236,colour,0.5
070,71,1,1,3,19,119,255.51242325431667,256.51126062334515,"[56, 0, 198]",198,a,0.47546600736677647,colour,0.5
070,71,1,1,3,20,120,257.0281544139143,257.93531526695006,"[30, 0, 224]",224,a,0.383813122054562,colour,0.5
070,71,1,1,3,21,121,258.44999879878014,259.3112723599188,"[27, 0, 227]",227,a,0.33787856879644096,colour,0.5
070,71,1,1,3,22,122,259.8250122386962,260.6792434549425,"[35, 0, 219]",219,a,0.3308397685177624,colour,0.5
070,71,1,1,3,23,123,261.1999780233018,262.1832943491172,"[82, 0, 172]",172,l,0.45993905630894005,colour,0.5
070,71,1,1,3,24,124,262.70000421395525,263.76734897703864,"[85, 0, 169]",169,l,0.5440167242195457,colour,0.5
070,71,1,1,3,25,125,264.2781365925912,265.19925059145316,"[81, 0, 173]",173,l,0.3983357681427151,colour,0.5
070,71,1,1,3,26,126,265.7156213556882,266.5992570503149,"[77, 0, 177]",177,l,0.36032774206250906,colour,0.5
070,71,1,1,3,27,127,267.10637284768745,268.06324837962165,"[22, 0, 232]",232,a,0.43360381317324936,colour,0.5
070,71,1,1,3,28,128,268.57510016462766,269.66325885569677,"[52, 0, 202]",202,a,0.5647786648478359,colour,0.5
070,71,1,1,3,29,129,270.1844132631086,271.1191940824501,"[14, 0, 240]",240,a,0.41121371649205685,colour,0.5
070,71,1,1,3,30,130,271.63755218940787,272.5832275529392,"[19, 0, 235]",235,a,0.4223189679905772,colour,0.5
070,71,1,1,3,31,131,273.09071474615484,274.0072317845188,"[5, 0, 249]",249,a,0.393239805707708,colour,0.5
070,71,1,1,3,32,132,274.52816603239626,275.39925067010336,"[18, 0, 236]",236,a,0.3477534481789917,colour,0.5
070,71,1,1,3,33,133,275.91882772766985,276.87921793363057,"[66, 0, 188]",188,l,0.43713502842001617,colour,0.5
070,71,1,1,3,34,134,277.38749163551256,278.2712742346339,"[72, 0, 182]",182,l,0.3603923327755183,colour,0.5
070,71,1,1,3,35,135,278.7781269433908,280.00730700884014,"[41, 0, 213]",213,a,0.7058153992984444,colour,0.5
070,71,1,1,3,36,136,280.5281553985551,281.51931042433716,"[23, 0, 231]",231,a,0.46788094379007816,colour,0.5
070,71,1,1,3,37,137,282.0281323585659,283.2872714367695,"[63, 0, 191]",191,a,0.7358705098740757,colour,0.5
070,71,1,1,3,38,138,283.79370312485844,284.71926993713714,"[92, 0, 162]",162,l,0.4021572475321591,colour,0.5
070,71,1,1,3,39,139,285.23126705083996,286.31117035401985,"[15, 0, 239]",239,a,0.5566205566283315,colour,0.5
070,71,1,1,3,40,140,286.8250212969724,288.2072271371726,"[25, 0, 229]",229,a,0.8589297889266163,colour,0.5
070,71,1,1,3,41,141,288.7156036326196,289.68725268985145,"[75, 0, 179]",179,l,0.4483340154401958,colour,0.5
070,71,1,1,3,42,142,290.1999859001953,291.143181221094,"[28, 0, 226]",226,a,0.42046001902781427,colour,0.5
070,71,1,1,3,43,143,291.6529550792184,292.58319683303125,"[86, 0, 168]",168,l,0.4067400295753032,colour,0.5
070,71,1,1,3,44,144,293.0905071897432,294.03122758772224,"[10, 0, 244]",244,a,0.41724230418913066,colour,0.5
070,71,1,1,3,45,145,294.54367604805157,295.5513060099911,"[38, 0, 216]",216,a,0.48426647717133164,colour,0.5
070,71,1,1,3,46,146,296.05925360810943,296.9031975893304,"[12, 0, 242]",242,a,0.3205836471170187,colour,0.5
070,71,1,1,3,47,147,297.4186550267041,298.3591580220964,"[60, 0, 194]",194,a,0.4171324213966727,colour,0.5
070,71,1,1,3,48,148,298.87173842056654,299.7991807232611,"[33, 0, 221]",221,a,0.40397759969346225,colour,0.5
070,71,1,1,3,49,149,300.3092901373748,300.8391367071308,"[4, 0, 250]",250,a,0.006479540374130011,colour,0.5
070,71,1,1,3,50,150,301.35628886008635,301.9191715545021,"[90, 0, 164]",164,l,0.03962121554650366,colour,0.5
070,71,1,1,4,1,151,306.88664545933716,307.83115543518215,"[46, 0, 208]",208,a,0.4204143329989165,colour,0.5
070,71,1,1,4,2,152,308.34057404496707,308.93516915058717,"[28, 0, 226]",226,a,0.0711473380215466,colour,0.5
070,71,1,1,4,3,153,309.4499180603307,310.4871509990189,"[35, 0, 219]",219,a,0.5137674477882683,colour,0.5
070,71,1,1,4,4,154,310.9967897681054,311.8871196489781,"[4, 0, 250]",250,a,0.36707942956127226,colour,0.5
070,71,1,1,4,5,155,312.4029685682617,313.34313994599506,"[50, 0, 204]",204,a,0.41672991146333516,colour,0.5
070,71,1,1,4,6,156,313.8561937464401,314.7511812399607,"[25, 0, 229]",229,a,0.3716732393950224,colour,0.5
070,71,1,1,4,7,157,315.26233434374444,316.3191114538349,"[62, 0, 192]",192,a,0.5334002345334738,colour,0.5
070,71,1,1,4,8,158,316.840641195653,317.6470907249022,"[23, 0, 231]",231,a,0.2832144380081445,colour,0.5
070,71,1,1,4,9,159,318.1687874570489,321.36711054318585,"[6, 0, 248]",248,a,2.675203785300255,colour,0.5
070,71,1,1,4,10,160,321.88740124809556,322.55913210706785,"[27, 0, 227]",227,a,0.14856429677456617,colour,0.5
070,71,1,1,4,11,161,323.0748790204525,324.0310988002457,"[21, 0, 233]",233,a,0.4327531075105071,colour,0.5
070,71,1,1,4,12,162,324.54353544535115,325.39930383930914,"[45, 0, 209]",209,a,0.332288330886513,colour,0.5
070,71,1,1,4,13,163,325.9186166266445,326.5111397129949,"[85, 0, 169]",169,l,0.06916826614178717,colour,0.5
070,71,1,1,4,14,164,327.02799884509295,327.7431089899037,"[82, 0, 172]",172,l,0.19176792749203742,colour,0.5
070,71,1,1,4,15,165,328.2623331621289,328.8871381597128,"[72, 0, 182]",182,l,0.10254073445685208,colour,0.5
070,71,1,1,4,16,166,329.4028102424927,330.01514925342053,"[22, 0, 232]",232,a,0.08875812357291579,colour,0.5
070,71,1,1,4,17,167,330.5278497748077,331.1271131269168,"[20, 0, 234]",234,a,0.07652017334476113,colour,0.5
070,71,1,1,4,18,168,331.6372331746388,332.20707629434764,"[68, 0, 186]",186,l,0.046546194702386856,colour,0.5
070,71,1,1,4,19,169,332.7154646052513,335.11909089493565,"[58, 0, 196]",196,a,1.8803025833331048,colour,0.5
070,71,1,1,4,20,170,335.6373922880739,339.06312037981115,"[99, 0, 155]",155,l,2.9025485324673355,colour,0.5
070,71,1,1,4,21,171,339.57477366691455,340.89506271784194,"[75, 0, 179]",179,l,0.7968924830202013,colour,0.5
070,71,1,1,4,22,172,341.4028358424548,342.89511628076434,"[11, 0, 243]",243,a,0.9687625661026686,colour,0.5
070,71,1,1,4,23,173,343.4027621934656,344.5510637953412,"[47, 0, 207]",207,a,0.6247695514466614,colour,0.5
070,71,1,1,4,24,174,345.0590893747285,346.25503363623284,"[71, 0, 183]",183,l,0.6724992506206036,colour,0.5
070,71,1,1,4,25,175,346.7621856671758,347.831042007776,"[13, 0, 241]",241,a,0.5455732000991702,colour,0.5
070,71,1,1,4,26,176,348.3403838176746,349.3350684836041,"[31, 0, 223]",223,a,0.4714129469357431,colour,0.5
070,71,1,1,4,27,177,349.85602911934257,350.7510040097404,"[18, 0, 236]",236,a,0.37158541195094585,colour,0.5
070,71,1,1,4,28,178,351.262175624026,352.1990426410921,"[77, 0, 177]",177,l,0.4135389782022685,colour,0.5
070,71,1,1,4,29,179,352.715324790217,353.5510862444062,"[49, 0, 205]",205,a,0.31237473245710135,colour,0.5
070,71,1,1,4,30,180,354.05907874088734,355.58302039047703,"[56, 0, 198]",198,a,1.0005954939406365,colour,0.5
070,71,1,1,4,31,181,356.0902937257197,357.0070297420025,"[74, 0, 180]",180,l,0.39333787304349244,colour,0.5
070,71,1,1,4,32,182,357.5277426489629,358.63106949813664,"[87, 0, 167]",167,l,0.5800551304128021,colour,0.5
070,71,1,1,4,33,183,359.13714948273264,360.2870162250474,"[78, 0, 176]",176,l,0.6273118215613067,colour,0.5
070,71,1,1,4,34,184,360.7933715074323,361.84704393614084,"[59, 0, 195]",195,a,0.5302380518987775,colour,0.5
070,71,1,1,4,35,185,362.3558371197432,363.2710213861428,"[39, 0, 215]",215,a,0.391761704813689,colour,0.5
070,71,1,1,4,36,186,363.77780792862177,364.5269994630944,"[12, 0, 242]",242,a,0.22579378494992852,colour,0.5
070,71,1,1,4,37,187,365.0434198519215,365.999026020756,"[64, 0, 190]",190,l,0.4322257488965988,colour,0.5
070,71,1,1,4,38,188,366.51213102112524,367.5029942076653,"[34, 0, 220]",220,a,0.4676556643098593,colour,0.5
070,71,1,1,4,39,189,368.01209419663064,369.2949644140899,"[57, 0, 197]",197,a,0.7596296123228967,colour,0.5
070,71,1,1,4,40,190,369.8089728951454,370.6149750163313,"[61, 0, 193]",193,a,0.282528753625229,colour,0.5
070,71,1,1,4,41,191,371.121450815117,372.1750094227027,"[92, 0, 162]",162,l,0.5300852400250733,colour,0.5
070,71,1,1,4,42,192,372.683935332112,373.66300876415335,"[10, 0, 244]",244,a,0.4556299967225641,colour,0.5
070,71,1,1,4,43,193,374.18389023677446,375.2789841473568,"[86, 0, 168]",168,l,0.5716835581697524,colour,0.5
070,71,1,1,4,44,194,375.7932891936507,377.62297401134856,"[69, 0, 185]",185,l,1.3066198674496263,colour,0.5
070,71,1,1,4,45,195,378.1370399936568,379.3589855178725,"[14, 0, 240]",240,a,0.6991645363159478,colour,0.5
070,71,1,1,4,46,196,379.87142767664045,381.014983050758,"[9, 0, 245]",245,a,0.6202218213584274,colour,0.5
070,71,1,1,4,47,197,381.527657184517,382.35092429537326,"[83, 0, 171]",171,l,0.2999284383840859,colour,0.5
070,71,1,1,4,48,198,382.87146430439316,384.5589934734162,"[66, 0, 188]",188,a,1.1641302381176502,colour,0.5
070,71,1,1,4,49,199,385.0744977784343,386.470965932589,"[97, 0, 157]",157,l,0.8733586994931102,colour,0.5
070,71,1,1,4,50,200,386.98078035679646,387.93495371728204,"[32, 0, 222]",222,a,0.430822872556746,colour,0.5
070,71,1,1,5,1,201,395.26118510356173,396.98297525569797,"[50, 0, 204]",204,a,1.197746102930978,colour,0.4
070,71,1,1,5,2,202,397.4964055721648,398.1829572177958,"[83, 0, 171]",171,l,0.16346070170402527,colour,0.4
070,71,1,1,5,3,203,398.6995312059298,399.7669149597641,"[4, 0, 250]",250,a,0.5447217072360218,colour,0.4
070,71,1,1,5,4,204,400.27760056918487,401.1828839625232,"[90, 0, 164]",164,l,0.38194432691670954,colour,0.4
070,71,1,1,5,5,205,401.69945637555793,402.7589525922667,"[80, 0, 174]",174,l,0.5361768426373601,colour,0.4
070,71,1,1,5,6,206,403.277573000174,404.29497032170184,"[2, 0, 252]",252,a,0.49397554784081876,colour,0.4
070,71,1,1,5,7,207,404.80876021878794,405.8469175118953,"[68, 0, 186]",186,l,0.5147800238337368,colour,0.4
070,71,1,1,5,8,208,406.35572132933885,407.33492079167627,"[56, 0, 198]",198,a,0.45586709142662585,colour,0.4
070,71,1,1,5,9,209,407.8557522459887,408.82293076696806,"[78, 0, 176]",176,l,0.44392255577258766,colour,0.4
070,71,1,1,5,10,210,409.3400781939272,410.30290196905844,"[45, 0, 209]",209,a,0.43954024091362953,colour,0.4
070,71,1,1,5,11,211,410.8244068985805,411.94288772763684,"[65, 0, 189]",189,l,0.5950629934668541,colour,0.4
070,71,1,1,5,12,212,412.4494568677619,413.6308906925842,"[71, 0, 183]",183,l,0.658113663084805,colour,0.4
070,71,1,1,5,13,213,414.1525354371406,415.35086836945266,"[12, 0, 242]",242,a,0.6748804384842515,colour,0.4
070,71,1,1,5,14,214,415.87138199061155,416.99892755947076,"[15, 0, 239]",239,a,0.6042521884664893,colour,0.4
070,71,1,1,5,15,215,417.51196166779846,418.47886410332285,"[51, 0, 203]",203,a,0.4437378426082432,colour,0.4
070,71,1,1,5,16,216,418.9962714680005,419.9268755593803,"[20, 0, 234]",234,a,0.4075253566261381,colour,0.4
070,71,1,1,5,17,217,420.4337038495578,421.4228573543951,"[52, 0, 202]",202,a,0.4657663891557604,colour,0.4
070,71,1,1,5,18,218,421.9337142864242,423.08685742667876,"[98, 0, 156]",156,l,0.6297906830441207,colour,0.4
070,71,1,1,5,19,219,423.60562631418,424.622805445455,"[16, 0, 238]",238,a,0.4938262803480029,colour,0.4
070,71,1,1,5,20,220,425.136886394117,426.1428775663953,"[24, 0, 230]",230,a,0.48355322354473174,colour,0.4
070,71,1,1,5,21,221,426.6524474127218,427.6228464054875,"[7, 0, 247]",247,a,0.44699100335128605,colour,0.4
070,71,1,1,5,22,222,428.13765163510107,429.0948686308693,"[84, 0, 170]",170,l,0.4354836358688772,colour,0.4
070,71,1,1,5,23,223,429.60558377881534,430.52686398033984,"[82, 0, 172]",172,l,0.3979190797545016,colour,0.4
070,71,1,1,5,24,224,431.0431134402752,431.9508646673057,"[77, 0, 177]",177,l,0.38446454191580415,colour,0.4
070,71,1,1,5,25,225,432.46493695117533,433.7588450727053,"[61, 0, 193]",193,a,0.7706048949621618,colour,0.4
070,71,1,1,5,26,226,434.2774505142588,435.40682864468545,"[96, 0, 158]",158,l,0.6060398516710848,colour,0.4
070,71,1,1,5,27,227,435.9180459449999,437.0468742675148,"[91, 0, 163]",163,l,0.6054798036348075,colour,0.4
070,71,1,1,5,28,228,437.55867879115976,438.6068369941786,"[35, 0, 219]",219,a,0.5248270134907216,colour,0.4
070,71,1,1,5,29,229,439.12110935151577,440.07884307182394,"[30, 0, 224]",224,a,0.43436078331433237,colour,0.4
070,71,1,1,5,30,230,440.5899040158838,441.5828049571719,"[9, 0, 245]",245,a,0.4698407172691077,colour,0.4
070,71,1,1,5,31,231,442.0899010619614,443.01480739586987,"[69, 0, 185]",185,l,0.40148692298680544,colour,0.4
070,71,1,1,5,32,232,443.5273842497263,444.5747882393189,"[92, 0, 162]",162,l,0.5241366028785706,colour,0.4
070,71,1,1,5,33,233,445.08994792960584,446.0627923067659,"[89, 0, 165]",165,l,0.4495943197980523,colour,0.4
070,71,1,1,5,34,234,446.5742214960046,447.55881545552984,"[18, 0, 236]",236,a,0.46119778556749225,colour,0.4
070,71,1,1,5,35,235,448.0742279945407,448.99079505121335,"[22, 0, 232]",232,a,0.3931949073448777,colour,0.4
070,71,1,1,5,36,236,449.5117096067406,450.34280045167543,"[25, 0, 229]",229,a,0.3077884060330689,colour,0.4
070,71,1,1,5,37,237,450.8554001485463,452.7347681373358,"[70, 0, 184]",184,l,1.3559592117089778,colour,0.4
070,71,1,1,5,38,238,453.24609650229104,454.398787508253,"[44, 0, 210]",210,a,0.6296599265187979,colour,0.4
070,71,1,1,5,39,239,454.9180553974584,455.8707916168496,"[47, 0, 207]",207,a,0.42944362689740956,colour,0.4
070,71,1,1,5,40,240,456.38672796986066,457.35075691109523,"[94, 0, 160]",160,l,0.440711930161342,colour,0.4
070,71,1,1,5,41,241,457.87110551143996,458.9667992480099,"[11, 0, 243]",243,a,0.5723975992295891,colour,0.4
070,71,1,1,5,42,242,459.48044460383244,460.3987796313595,"[93, 0, 161]",161,l,0.395010533509776,colour,0.4
070,71,1,1,5,43,243,460.9179782036226,461.79871756141074,"[53, 0, 201]",201,a,0.3573644512798637,colour,0.4
070,71,1,1,5,44,244,462.30859303148463,463.1987539527472,"[43, 0, 211]",211,a,0.37952533015049994,colour,0.4
070,71,1,1,5,45,245,463.71844207448885,465.2067375876941,"[67, 0, 187]",187,a,0.9650265511590987,colour,0.4
070,71,1,1,5,46,246,465.71837275777943,466.59875883627683,"[87, 0, 167]",167,l,0.3571119965054095,colour,0.4
070,71,1,1,5,47,247,467.10894426261075,468.8787346857134,"[95, 0, 159]",159,l,1.2463781016413122,colour,0.4
070,71,1,1,5,48,248,469.39025485306047,470.24670420517214,"[79, 0, 175]",175,l,0.33194214082323015,colour,0.4
070,71,1,1,5,49,249,470.76649748394266,471.72677505016327,"[54, 0, 200]",200,a,0.4369168384000659,colour,0.4
070,71,1,1,5,50,250,472.2352543391753,473.2467372883111,"[0, 0, 254]",254,a,0.4881580611690879,colour,0.4
070,71,1,1,6,1,251,477.78129621525295,479.48671107389964,"[15, 0, 239]",239,a,1.1813266987446696,colour,0.28
070,71,1,1,6,2,252,480.0008384962566,480.99077142053284,"[44, 0, 210]",210,a,0.466546596493572,colour,0.28
070,71,1,1,6,3,253,481.5008316040039,482.534772784682,"[89, 0, 165]",165,l,0.5105276776012033,colour,0.28
070,71,1,1,6,4,254,483.04766707797535,484.118782120524,"[40, 0, 214]",214,a,0.5477519517298788,colour,0.28
070,71,1,1,6,5,255,484.6258404161781,486.0467147603631,"[94, 0, 160]",160,l,0.8974710809998214,colour,0.28
070,71,1,1,6,6,256,486.563326951582,487.5747208916582,"[55, 0, 199]",199,a,0.5003562329802662,colour,0.28
070,71,1,1,6,7,257,488.0821537342854,489.12671022326685,"[80, 0, 174]",174,l,0.5211429859045893,colour,0.28
070,71,1,1,6,8,258,489.64466582029127,490.72672227490693,"[97, 0, 157]",157,l,0.5587532280478626,colour,0.28
070,71,1,1,6,9,259,491.2383787126746,492.1746612635907,"[81, 0, 173]",173,l,0.4129281244240701,colour,0.28
070,71,1,1,6,10,260,492.6915593864396,493.5186377367936,"[58, 0, 196]",196,a,0.3037014747969806,colour,0.28
070,71,1,1,6,11,261,494.03541849390604,495.0706680282019,"[61, 0, 193]",193,a,0.51207076292485,colour,0.28
070,71,1,1,6,12,262,495.58222954929806,496.53470543725416,"[70, 0, 184]",184,a,0.4294818297494203,colour,0.28
070,71,1,1,6,13,263,497.0508741589729,497.87863346748054,"[52, 0, 202]",202,a,0.3042709748260677,colour,0.28
070,71,1,1,6,14,264,498.39465292193927,499.3106701707002,"[86, 0, 168]",168,l,0.39274159143678844,colour,0.28
070,71,1,1,6,15,265,499.83212941419333,500.6227022581734,"[30, 0, 224]",224,a,0.2672381098382175,colour,0.28
070,71,1,1,6,16,266,501.128979165107,502.206703716889,"[66, 0, 188]",188,a,0.5500606717541814,colour,0.28
070,71,1,1,6,17,267,502.72707122168504,503.67867710557766,"[53, 0, 201]",201,a,0.4283487373031676,colour,0.28
070,71,1,1,6,18,268,504.19577608956024,505.01466915616766,"[62, 0, 192]",192,a,0.29580212268047035,colour,0.28
070,71,1,1,6,19,269,505.5238762709778,506.4946655642707,"[72, 0, 182]",182,a,0.44810558506287634,colour,0.28
070,71,1,1,6,20,270,507.00825223722495,509.5266985653434,"[74, 0, 180]",180,a,1.995493229944259,colour,0.28
070,71,1,1,6,21,271,510.0394821881782,510.64668191364035,"[32, 0, 222]",222,a,0.08383742230944335,colour,0.28
070,71,1,1,6,22,272,511.16446106811054,513.182721698191,"[13, 0, 241]",241,a,1.4952681474387646,colour,0.28
070,71,1,1,6,23,273,513.6956691604573,514.6706241539214,"[54, 0, 200]",200,a,0.4522031501401216,colour,0.28
070,71,1,1,6,24,274,515.1800852988381,516.126674383413,"[51, 0, 203]",203,a,0.4233236671425402,colour,0.28
070,71,1,1,6,25,275,516.6331501821987,517.4865783480927,"[16, 0, 238]",238,a,0.3282029752153903,colour,0.28
070,71,1,1,6,26,276,517.994423152646,518.9026375415269,"[77, 0, 177]",177,l,0.38486665789969265,colour,0.28
070,71,1,1,6,27,277,519.4163199188188,520.5825946438126,"[50, 0, 204]",204,a,0.6430089138448238,colour,0.28
070,71,1,1,6,28,278,521.1037648050115,522.0865947320126,"[84, 0, 170]",170,l,0.4595093713141978,colour,0.28
070,71,1,1,6,29,279,522.5945584778674,523.5986048427876,"[83, 0, 171]",171,l,0.4807411693036556,colour,0.28
070,71,1,1,6,30,280,524.1101714840624,525.0865718889982,"[99, 0, 155]",155,l,0.453077879967168,colour,0.28
070,71,1,1,6,31,281,525.5944828595966,526.6705544432625,"[87, 0, 167]",167,l,0.5527478773146868,colour,0.28
070,71,1,1,6,32,282,527.1882378933951,528.1346729844809,"[76, 0, 178]",178,l,0.42307436326518655,colour,0.28
070,71,1,1,6,33,283,528.6413445242215,529.8945704114158,"[34, 0, 220]",220,a,0.7298230179585516,colour,0.28
070,71,1,1,6,34,284,530.4069507366512,531.0865754336119,"[95, 0, 159]",159,l,0.15615172334946692,colour,0.28
070,71,1,1,6,35,285,531.5944769519847,532.1825677049346,"[92, 0, 162]",162,l,0.06477649882435799,colour,0.28
070,71,1,1,6,36,286,532.7041411635,534.3745577610098,"[93, 0, 161]",161,l,1.1469837960321456,colour,0.28
070,71,1,1,6,37,287,534.891658714274,535.4546296298504,"[2, 0, 252]",252,a,0.039988673059269786,colour,0.28
070,71,1,1,6,38,288,535.9697463912889,536.6305216595065,"[14, 0, 240]",240,a,0.1374365957453847,colour,0.28
070,71,1,1,6,39,289,537.1416570404544,538.6465850276873,"[78, 0, 176]",176,l,0.981555444188416,colour,0.28
070,71,1,1,6,40,290,539.1572438557632,540.310550048016,"[25, 0, 229]",229,a,0.6298997781705111,colour,0.28
070,71,1,1,6,41,291,540.8291200434323,541.7745740662795,"[65, 0, 189]",189,a,0.42235205112956464,colour,0.28
070,71,1,1,6,42,292,542.2823653079104,543.1585262157023,"[75, 0, 179]",179,a,0.35292187822051346,colour,0.28
070,71,1,1,6,43,293,543.672869465081,544.5505305291153,"[67, 0, 187]",187,a,0.3543554744683206,colour,0.28
070,71,1,1,6,44,294,545.0653680542018,546.046554859262,"[6, 0, 248]",248,a,0.45784773863852024,colour,0.28
070,71,1,1,6,45,295,546.5653714018408,548.038520812057,"[90, 0, 164]",164,l,0.9497591441031545,colour,0.28
070,71,1,1,6,46,296,548.5497542603407,549.6545280965511,"[69, 0, 185]",185,a,0.5813477302435786,colour,0.28
070,71,1,1,6,47,297,550.174767995486,551.1745750114787,"[60, 0, 194]",194,a,0.47714733239263296,colour,0.28
070,71,1,1,6,48,298,551.6903534326702,552.5905054174364,"[33, 0, 221]",221,a,0.37683457997627556,colour,0.28
070,71,1,1,6,49,299,553.0965983988717,554.0065945431124,"[31, 0, 223]",223,a,0.386763809947297,colour,0.28
070,71,1,1,6,50,300,554.5185195831582,555.8624952689279,"[73, 0, 181]",181,a,0.820714600617066,colour,0.28
070,71,1,1,7,1,301,561.9551611240022,562.5424606420565,"[52, 0, 202]",202,a,0.06319245370104909,colour,0.14
070,71,1,1,7,2,302,563.0497008941602,563.6225010033231,"[4, 0, 250]",250,a,0.04948309808969498,colour,0.14
070,71,1,1,7,3,303,564.143780653365,564.726527321618,"[80, 0, 174]",174,l,0.059360340470448136,colour,0.14
070,71,1,1,7,4,304,565.2375563641544,566.9985301697161,"[92, 0, 162]",162,l,1.237655219156295,colour,0.14
070,71,1,1,7,5,305,567.5187247765716,568.5185321862809,"[86, 0, 168]",168,l,0.47634467598982155,colour,0.14
070,71,1,1,7,6,306,569.0344074934255,570.0304615588393,"[32, 0, 222]",222,a,0.4725035042501986,colour,0.14
070,71,1,1,7,7,307,570.5500374347903,571.5265051873866,"[93, 0, 161]",161,l,0.45311883999966085,colour,0.14
070,71,1,1,7,8,308,572.0344449086115,572.9664711749647,"[17, 0, 237]",237,a,0.4086698708124459,colour,0.14
070,71,1,1,7,9,309,573.4841585634276,574.5024652734865,"[85, 0, 169]",169,l,0.49495228356681764,colour,0.14
070,71,1,1,7,10,310,575.0153434190433,576.0304442297202,"[81, 0, 173]",173,l,0.4916105077136308,colour,0.14
070,71,1,1,7,11,311,576.5485160110984,577.4944981802255,"[82, 0, 172]",172,l,0.4226836687885225,colour,0.14
070,71,1,1,7,12,312,578.0016163403634,578.9984706991818,"[99, 0, 155]",155,l,0.4734778772108257,colour,0.14
070,71,1,1,7,13,313,579.517213198822,580.3904482310172,"[91, 0, 163]",163,l,0.34979199059307575,colour,0.14
070,71,1,1,7,14,314,580.9078926171642,581.8384636256378,"[50, 0, 204]",204,a,0.4075856148265302,colour,0.14
070,71,1,1,7,15,315,582.3453828941565,583.4384051791858,"[48, 0, 206]",206,a,0.569885261124,colour,0.14
070,71,1,1,7,16,316,583.9547105650418,585.0065031710546,"[54, 0, 200]",200,a,0.5284145488403738,colour,0.14
070,71,1,1,7,17,317,585.517237223452,586.5104812039062,"[56, 0, 198]",198,a,0.46983599103987217,colour,0.14
070,71,1,1,7,18,318,587.0171846451703,588.0304339895956,"[65, 0, 189]",189,a,0.489788579987362,colour,0.14
070,71,1,1,7,19,319,588.5484884418547,589.6384509438649,"[98, 0, 156]",156,l,0.5666490355506539,colour,0.14
070,71,1,1,7,20,320,590.1578054788988,591.2784382777754,"[60, 0, 194]",194,a,0.5972957015037537,colour,0.14
070,71,1,1,7,21,321,591.7984076051507,593.1824263143353,"[73, 0, 181]",181,a,0.8605776368640363,colour,0.14
070,71,1,1,7,22,322,593.6890450790524,594.6784829399548,"[76, 0, 178]",178,a,0.4660984007641673,colour,0.14
070,71,1,1,7,23,323,595.176593467826,596.2063815514557,"[14, 0, 240]",240,a,0.5063934850040823,colour,0.14
070,71,1,1,7,24,324,596.7236628858373,598.1264238976873,"[75, 0, 179]",179,l,0.879390831803903,colour,0.14
070,71,1,1,7,25,325,598.6475050500594,599.5744503200985,"[94, 0, 160]",160,l,0.40402171039022505,colour,0.14
070,71,1,1,7,26,326,600.0849933577701,601.0944157089107,"[88, 0, 166]",166,l,0.48608249705284834,colour,0.14
070,71,1,1,7,27,327,601.6006292069796,602.7504215126392,"[63, 0, 191]",191,a,0.6263725010212511,colour,0.14
070,71,1,1,7,28,328,603.2568937668111,604.2304187084083,"[68, 0, 186]",186,a,0.45022171502932906,colour,0.14
070,71,1,1,7,29,329,604.7411878132261,605.6304023244884,"[62, 0, 192]",192,a,0.36583724175579846,colour,0.14
070,71,1,1,7,30,330,606.1474831916858,606.9343972140923,"[61, 0, 193]",193,a,0.26361237140372396,colour,0.14
070,71,1,1,7,31,331,607.4443014347926,609.9184441224206,"[78, 0, 176]",176,l,1.9507461197208613,colour,0.14
070,71,1,1,7,32,332,610.416229334427,611.8303657756187,"[70, 0, 184]",184,a,0.8907957994379103,colour,0.14
070,71,1,1,7,33,333,612.3265815146733,613.3264129490126,"[95, 0, 159]",159,l,0.4764321097172797,colour,0.14
070,71,1,1,7,34,334,613.8421827054117,614.6783789647743,"[51, 0, 203]",203,a,0.31288436823524535,colour,0.14
070,71,1,1,7,35,335,615.1766419108026,616.1824192251079,"[59, 0, 195]",195,a,0.482522924663499,colour,0.14
070,71,1,1,7,36,336,616.6957231173292,617.6783309157472,"[96, 0, 158]",158,l,0.4595582082401961,colour,0.14
070,71,1,1,7,37,337,618.1956878681667,619.1743564275093,"[84, 0, 170]",170,l,0.4555543784517795,colour,0.14
070,71,1,1,7,38,338,619.6956581328996,620.2463438368868,"[97, 0, 157]",157,l,0.027573098661378026,colour,0.14
070,71,1,1,7,39,339,620.7581054314505,621.8703402702231,"[27, 0, 227]",227,a,0.5888429970946163,colour,0.14
070,71,1,1,7,40,340,622.3830927792005,623.6622994490899,"[74, 0, 180]",180,a,0.7557640222366899,colour,0.14
070,71,1,1,7,41,341,624.1799446961377,625.062361046439,"[58, 0, 196]",196,a,0.35759563837200403,colour,0.14
070,71,1,1,7,42,342,625.5720821293071,626.3023316813633,"[16, 0, 238]",238,a,0.20691915042698383,colour,0.14
070,71,1,1,7,43,343,626.8221040861681,627.5023234894034,"[89, 0, 165]",165,l,0.15694098896346986,colour,0.14
070,71,1,1,7,44,344,628.0096066705883,630.1343945357949,"[83, 0, 171]",171,l,1.6015200847759843,colour,0.14
070,71,1,1,7,45,345,630.6502422736958,631.9184484549332,"[55, 0, 199]",199,a,0.7449624252039939,colour,0.14
070,71,1,1,7,46,346,632.431378194131,633.5263539508451,"[71, 0, 183]",183,a,0.5716138472780585,colour,0.14
070,71,1,1,7,47,347,634.0414234506898,635.0383676062338,"[67, 0, 187]",187,a,0.4736684982199222,colour,0.14
070,71,1,1,7,48,348,635.5569828939624,636.4062981351744,"[87, 0, 167]",167,l,0.325814304407686,colour,0.14
070,71,1,1,7,49,349,636.9174898357596,637.9022882007994,"[72, 0, 182]",182,a,0.46145575400441885,colour,0.14
070,71,1,1,7,50,350,638.4174656141549,639.2863419621717,"[69, 0, 185]",185,a,0.34551404463127255,colour,0.14
070,71,1,1,8,1,351,644.6510496563278,645.2143021712545,"[87, 0, 167]",167,l,0.03917301958426833,colour,0.06
070,71,1,1,8,2,352,645.7184680684004,646.3583132242784,"[62, 0, 192]",192,a,0.11522727436386049,colour,0.06
070,71,1,1,8,3,353,646.8635310814716,648.1183638568036,"[91, 0, 163]",163,l,0.731494102627039,colour,0.06
070,71,1,1,8,4,354,648.6234907361213,649.5662914239801,"[70, 0, 184]",184,a,0.41944586765021086,colour,0.06
070,71,1,1,8,5,355,650.0765816131607,651.0783027163707,"[57, 0, 197]",197,a,0.4783363507594913,colour,0.06
070,71,1,1,8,6,356,651.5922347914893,652.4542633539531,"[52, 0, 202]",202,a,0.33870840072631836,colour,0.06
070,71,1,1,8,7,357,652.967219480779,653.8382678846829,"[67, 0, 187]",187,a,0.3476963406428695,colour,0.06
070,71,1,1,8,8,358,654.3577937423252,655.3423313819803,"[88, 0, 166]",166,l,0.4612127516884357,colour,0.06
070,71,1,1,8,9,359,655.857739194762,656.8542926560622,"[92, 0, 162]",162,l,0.4730923029128462,colour,0.06
070,71,1,1,8,10,360,657.3734116717242,658.3903068406507,"[51, 0, 203]",203,a,0.4938538495916873,colour,0.06
070,71,1,1,8,11,361,658.9046721453778,659.8622955894098,"[58, 0, 196]",196,a,0.43458842602558434,colour,0.06
070,71,1,1,8,12,362,660.3734447546303,661.6302636910696,"[75, 0, 179]",179,a,0.7334798700176179,colour,0.06
070,71,1,1,8,13,363,662.1265723775141,662.9662553479429,"[99, 0, 155]",155,l,0.3163821070920676,colour,0.06
070,71,1,1,8,14,364,663.4859391374048,664.4702581928577,"[17, 0, 237]",237,a,0.460946906125173,colour,0.06
070,71,1,1,8,15,365,664.9859279128723,665.9022566932254,"[95, 0, 159]",159,l,0.3928912526462227,colour,0.06
070,71,1,1,8,16,366,666.4234642696101,667.4221996329725,"[94, 0, 160]",160,l,0.47541323211044073,colour,0.06
070,71,1,1,8,17,367,667.9265470926184,670.3182619297877,"[80, 0, 174]",174,l,1.8683450508397073,colour,0.06
070,71,1,1,8,18,368,670.833996633999,671.8541977393907,"[55, 0, 199]",199,a,0.495398904196918,colour,0.06
070,71,1,1,8,19,369,672.3666036645882,674.2702191234566,"[77, 0, 177]",177,l,1.3801306698005646,colour,0.06
070,71,1,1,8,20,370,674.788468135288,675.8541863178834,"[86, 0, 168]",168,l,0.5423027102369815,colour,0.06
070,71,1,1,8,21,371,676.3666804642417,677.4782477356493,"[82, 0, 172]",172,l,0.5882679834030569,colour,0.06
070,71,1,1,8,22,372,677.9916481196415,679.8782628593035,"[71, 0, 183]",183,a,1.3633162390906364,colour,0.06
070,71,1,1,8,23,373,680.3978080153465,680.9422213416547,"[53, 0, 201]",201,a,0.021005336893722415,colour,0.06
070,71,1,1,8,24,374,681.4603273875546,684.2062366164755,"[60, 0, 194]",194,a,2.222576464060694,colour,0.06
070,71,1,1,8,25,375,684.7258987447713,685.2861950579099,"[56, 0, 198]",198,a,0.03680010256357491,colour,0.06
070,71,1,1,8,26,376,685.8040234432556,687.1022587411571,"[89, 0, 165]",165,l,0.7748875669203699,colour,0.06
070,71,1,1,8,27,377,687.619652715046,688.6621950799599,"[98, 0, 156]",156,l,0.519332479685545,colour,0.06
070,71,1,1,8,28,378,689.1820289245807,690.1661880791653,"[81, 0, 173]",173,l,0.46085553406737745,colour,0.06
070,71,1,1,8,29,379,690.6820275462233,691.7422035399359,"[83, 0, 171]",171,l,0.5367644596844912,colour,0.06
070,71,1,1,8,30,380,692.2601481094025,693.2302052443847,"[84, 0, 170]",170,l,0.4466416626237333,colour,0.06
070,71,1,1,8,31,381,693.7445150171407,694.7501580303069,"[63, 0, 191]",191,a,0.4823551466688514,colour,0.06
070,71,1,1,8,32,382,695.2601244784892,696.8621841312852,"[73, 0, 181]",181,l,1.078613854246214,colour,0.06
070,71,1,1,8,33,383,697.3695212693419,698.374182820553,"[68, 0, 186]",186,a,0.47967266757041216,colour,0.06
070,71,1,1,8,34,384,698.8867659759708,699.9102147282101,"[64, 0, 190]",190,a,0.5003979804459959,colour,0.06
070,71,1,1,8,35,385,700.4180741049349,701.6621182803065,"[74, 0, 180]",180,a,0.7207062903326005,colour,0.06
070,71,1,1,8,36,386,702.1837165511679,702.8860932884272,"[90, 0, 164]",164,l,0.17902152333408594,colour,0.06
070,71,1,1,8,37,387,703.4023569268174,704.046229936881,"[61, 0, 193]",193,a,0.12047880538739264,colour,0.06
070,71,1,1,8,38,388,704.5585889944341,705.9501592905726,"[97, 0, 157]",157,l,0.866231283871457,colour,0.06
070,71,1,1,8,39,389,706.4667407618836,707.5341123063117,"[11, 0, 243]",243,a,0.5443136834073812,colour,0.06
070,71,1,1,8,40,390,708.0449168572668,708.9581775839906,"[50, 0, 204]",204,a,0.3900669892318547,colour,0.06
070,71,1,1,8,41,391,709.4667281589936,710.4941846793517,"[96, 0, 158]",158,l,0.5040820080321282,colour,0.06
070,71,1,1,8,42,392,711.0136522480752,712.0301480581984,"[65, 0, 189]",189,a,0.4931433529127389,colour,0.06
070,71,1,1,8,43,393,712.5491721571889,713.5421093320474,"[48, 0, 206]",206,a,0.469565813196823,colour,0.06
070,71,1,1,8,44,394,714.0491357264109,715.0380836438853,"[59, 0, 195]",195,a,0.4655170850455761,colour,0.06
070,71,1,1,8,45,395,715.5490028036293,717.3980994608719,"[66, 0, 188]",188,a,1.3232117758598179,colour,0.06
070,71,1,1,8,46,396,717.9120827356819,718.9021208165213,"[76, 0, 178]",178,l,0.4675288461148739,colour,0.06
070,71,1,1,8,47,397,719.4112775193062,720.4860631986521,"[78, 0, 176]",176,l,0.5515041144099087,colour,0.06
070,71,1,1,8,48,398,721.0049782025162,721.9420492313802,"[72, 0, 182]",182,l,0.41366540268063545,colour,0.06
070,71,1,1,8,49,399,722.458113583969,723.3260663652327,"[54, 0, 200]",200,a,0.34463852690532804,colour,0.06
070,71,1,1,8,50,400,723.8330734611955,725.6621190679725,"[85, 0, 169]",169,l,1.3056955127976835,colour,0.06
070,71,1,1,9,1,401,729.8479056693614,731.7341159298085,"[81, 0, 173]",173,l,1.359963829163462,colour,0.06
070,71,1,1,9,2,402,732.2413104958832,733.3180193211883,"[77, 0, 177]",177,l,0.5537127978168428,colour,0.06
070,71,1,1,9,3,403,733.8350651359651,734.8300865394995,"[52, 0, 202]",202,a,0.4716980908997357,colour,0.06
070,71,1,1,9,4,404,735.3516942625865,736.3501369990408,"[53, 0, 201]",201,a,0.47518913447856903,colour,0.06
070,71,1,1,9,5,405,736.8672765488736,737.8300818132702,"[76, 0, 178]",178,l,0.43946698564104736,colour,0.06
070,71,1,1,9,6,406,738.3391951930244,739.2620165105909,"[67, 0, 187]",187,a,0.39948815875686705,colour,0.06
070,71,1,1,9,7,407,739.7766866516322,741.0220706879627,"[66, 0, 188]",188,a,0.722059148363769,colour,0.06
070,71,1,1,9,8,408,741.5436181528494,742.3580312309787,"[54, 0, 200]",200,a,0.29100705799646676,colour,0.06
070,71,1,1,9,9,409,742.8717490544077,743.8220560369082,"[78, 0, 176]",176,l,0.4269391654524952,colour,0.06
070,71,1,1,9,10,410,744.3404783406295,745.3259986238554,"[72, 0, 182]",182,l,0.4624557269271463,colour,0.06
070,71,1,1,9,11,411,745.842173253186,746.8620352577418,"[92, 0, 162]",162,l,0.4963496462441981,colour,0.06
070,71,1,1,9,12,412,747.3735963851213,748.3179937212262,"[39, 0, 215]",215,a,0.42112798034213483,colour,0.06
070,71,1,1,9,13,413,748.8266159761697,749.7579951547086,"[94, 0, 160]",160,l,0.4080794968176633,colour,0.06
070,71,1,1,9,14,414,750.2796733763535,751.4380428416189,"[18, 0, 236]",236,a,0.6351922692265362,colour,0.06
070,71,1,1,9,15,415,751.9516409360804,753.0300720459782,"[79, 0, 175]",175,l,0.5551790832541883,colour,0.06
070,71,1,1,9,16,416,753.5492076030932,754.5900276831817,"[55, 0, 199]",199,a,0.5173475001938641,colour,0.06
070,71,1,1,9,17,417,755.1117385937832,756.5100400971714,"[70, 0, 184]",184,a,0.8750813780352473,colour,0.06
070,71,1,1,9,18,418,757.0199710994493,758.0299913077615,"[65, 0, 189]",189,a,0.4867217077407986,colour,0.06
070,71,1,1,9,19,419,758.5512528410181,760.2220160223078,"[58, 0, 196]",196,a,1.1474512901622802,colour,0.06
070,71,1,1,9,20,420,760.7412287730258,761.9899809733033,"[88, 0, 166]",166,l,0.7254147091880441,colour,0.06
070,71,1,1,9,21,421,762.5068231702317,763.7420196142048,"[51, 0, 203]",203,a,0.7117963316850364,colour,0.06
070,71,1,1,9,22,422,764.2568937668111,765.4699691105634,"[61, 0, 193]",193,a,0.6897697541862726,colour,0.06
070,71,1,1,9,23,423,765.9650533325039,766.9420141791925,"[95, 0, 159]",159,l,0.45356506668031216,colour,0.06
070,71,1,1,9,24,424,767.449449384585,768.8940540803596,"[80, 0, 174]",174,l,0.9212408170569688,colour,0.06
070,71,1,1,9,25,425,769.4024825633969,770.462048884714,"[73, 0, 181]",181,l,0.5361213106662035,colour,0.06
070,71,1,1,9,26,426,770.9807248245925,771.9419141423423,"[86, 0, 168]",168,l,0.43792193103581667,colour,0.06
070,71,1,1,9,27,427,772.4494190586265,773.8699716313276,"[16, 0, 238]",238,a,0.897261161589995,colour,0.06
070,71,1,1,9,28,428,774.386876843404,775.4939318308607,"[87, 0, 167]",167,l,0.5836729919537902,colour,0.06
070,71,1,1,9,29,429,776.0118764003273,776.9979902082123,"[59, 0, 195]",195,a,0.46282515372149646,colour,0.06
070,71,1,1,9,30,430,777.5015956636053,778.541959670838,"[71, 0, 183]",183,a,0.5171021346468478,colour,0.06
070,71,1,1,9,31,431,779.0483444915153,780.0139685056638,"[98, 0, 156]",156,l,0.4422246895264834,colour,0.06
070,71,1,1,9,32,432,780.5327488144394,781.6939472695813,"[85, 0, 169]",169,l,0.637766441097483,colour,0.06
070,71,1,1,9,33,433,782.2045911315363,783.3979482243303,"[84, 0, 170]",170,l,0.6699817925691605,colour,0.06
070,71,1,1,9,34,434,783.9077047531027,785.1099296631292,"[62, 0, 192]",192,a,0.6788232221733779,colour,0.06
070,71,1,1,9,35,435,785.6171699152328,786.621920081554,"[56, 0, 198]",198,a,0.4801732446067035,colour,0.06
070,71,1,1,9,36,436,787.1215528210159,788.1658942706417,"[90, 0, 164]",164,l,0.5209905677475035,colour,0.06
070,71,1,1,9,37,437,788.6840428519063,790.0699602884706,"[64, 0, 190]",190,a,0.8625141733791679,colour,0.06
070,71,1,1,9,38,438,790.5903073132504,792.8458883943968,"[50, 0, 204]",204,a,1.7325492138043046,colour,0.06
070,71,1,1,9,39,439,793.3558847750537,794.4539069239981,"[89, 0, 165]",165,l,0.5753943668678403,colour,0.06
070,71,1,1,9,40,440,794.9652549810708,796.0618939460255,"[91, 0, 163]",163,l,0.5719368003774434,colour,0.06
070,71,1,1,9,41,441,796.5760154607706,798.1659391690046,"[83, 0, 171]",171,l,1.075780532322824,colour,0.06
070,71,1,1,9,42,442,798.6761687058024,801.4059661237989,"[93, 0, 161]",161,l,2.206782486056909,colour,0.06
070,71,1,1,9,43,443,801.9261099244468,804.0939269470982,"[97, 0, 157]",157,l,1.6449037028942257,colour,0.06
070,71,1,1,9,44,444,804.6136390937027,807.2458507427946,"[63, 0, 191]",191,a,2.1088879427406937,colour,0.06
070,71,1,1,9,45,445,807.7541996692307,809.0539209449198,"[74, 0, 180]",180,l,0.7762908372096717,colour,0.06
070,71,1,1,9,46,446,809.566740013659,810.5498798969202,"[99, 0, 155]",155,l,0.4597413463052362,colour,0.06
070,71,1,1,9,47,447,811.0667189429514,812.0298510987777,"[82, 0, 172]",172,l,0.4397099881898612,colour,0.06
070,71,1,1,9,48,448,812.536116584437,813.38182814233,"[96, 0, 158]",158,l,0.32230356871150434,colour,0.06
070,71,1,1,9,49,449,813.8955152458511,814.797851889627,"[57, 0, 197]",197,a,0.3793000504374504,colour,0.06
070,71,1,1,9,50,450,815.3174191012513,816.3978446428664,"[60, 0, 194]",194,a,0.5570297616068274,colour,0.06
070,71,1,1,10,1,451,821.8008774081245,822.4058420625515,"[76, 0, 178]",178,l,0.08068744884803891,colour,0.06
070,71,1,1,10,2,452,822.9267097506672,824.5098833469674,"[68, 0, 186]",186,a,1.0596990471240133,colour,0.06
070,71,1,1,10,3,453,825.0204748273827,825.7418920083437,"[80, 0, 174]",174,l,0.1968619206454605,colour,0.06
070,71,1,1,10,4,454,826.2560044645797,827.4938061942812,"[59, 0, 195]",195,a,0.7143752297852188,colour,0.06
070,71,1,1,10,5,455,828.0060620643198,830.8698664745316,"[60, 0, 194]",194,a,2.3403798793442547,colour,0.06
070,71,1,1,10,6,456,831.3841786102857,834.9738006331027,"[71, 0, 183]",183,a,3.0668745117727667,colour,0.06
070,71,1,1,10,7,457,835.4934887550771,836.0938481781632,"[56, 0, 198]",198,l,0.0769691567402333,colour,0.06
070,71,1,1,10,8,458,836.602757939836,837.9097858308814,"[97, 0, 157]",157,l,0.7835297111887485,colour,0.06
070,71,1,1,10,9,459,838.4309406320099,839.0778462497983,"[87, 0, 167]",167,l,0.12334678578190506,colour,0.06
070,71,1,1,10,10,460,839.5872018444352,840.197762644384,"[33, 0, 221]",221,a,0.08739896398037672,colour,0.06
070,71,1,1,10,11,461,840.715144015383,841.8617898921948,"[47, 0, 207]",207,a,0.6232563983649015,colour,0.06
070,71,1,1,10,12,462,842.3733592901845,843.3977631169837,"[90, 0, 164]",164,l,0.5010765756014735,colour,0.06
070,71,1,1,10,13,463,843.9046217333525,844.8777697652113,"[63, 0, 191]",191,a,0.44979321165010333,colour,0.06
070,71,1,1,10,14,464,845.3889082965907,846.325833996525,"[79, 0, 175]",175,l,0.4141628290526569,colour,0.06
070,71,1,1,10,15,465,846.842061401112,847.8537641158327,"[89, 0, 165]",165,l,0.48830575309693813,colour,0.06
070,71,1,1,10,16,466,848.3734030071646,849.3497258245479,"[53, 0, 201]",201,a,0.4530384954996407,colour,0.06
070,71,1,1,10,17,467,849.8577470716555,850.8858128706925,"[50, 0, 204]",204,a,0.5048555198591202,colour,0.06
070,71,1,1,10,18,468,851.404567579506,854.253804839449,"[75, 0, 179]",179,l,2.3332115039229393,colour,0.06
070,71,1,1,10,19,469,854.7727773445658,855.765727910446,"[52, 0, 202]",202,a,0.4695902317762375,colour,0.06
070,71,1,1,10,20,470,856.2662034784444,857.413763863733,"[86, 0, 168]",168,l,0.6242039897479117,colour,0.06
070,71,1,1,10,21,471,857.913166991435,860.9177316566929,"[73, 0, 181]",181,a,2.4812874326016754,colour,0.06
070,71,1,1,10,22,472,861.4287874805741,862.453747022897,"[58, 0, 196]",196,a,0.5022963141091168,colour,0.06
070,71,1,1,10,23,473,862.9601058496628,863.9337639110163,"[54, 0, 200]",200,a,0.448967318283394,colour,0.06
070,71,1,1,10,24,474,864.4459744889755,865.2937151372898,"[62, 0, 192]",192,a,0.32452524919062853,colour,0.06
070,71,1,1,10,25,475,865.8053696057759,866.3337357116397,"[64, 0, 190]",190,a,0.00499435025267303,colour,0.06
070,71,1,1,10,26,476,866.8521615599748,867.4777412507683,"[99, 0, 155]",155,l,0.10211459407582879,colour,0.06
070,71,1,1,10,27,477,867.9929749839939,869.2057411593851,"[67, 0, 187]",187,a,0.6987765987869352,colour,0.06
070,71,1,1,10,28,478,869.7179123528767,871.141703907866,"[84, 0, 170]",170,l,0.9005643406417221,colour,0.06
070,71,1,1,10,29,479,871.6553528083023,872.749833107926,"[69, 0, 185]",185,a,0.5710376519709826,colour,0.06
070,71,1,1,10,30,480,873.2647147437092,874.1497162934393,"[81, 0, 173]",173,l,0.36163530801422894,colour,0.06
070,71,1,1,10,31,481,874.6709585282952,875.725697489921,"[85, 0, 169]",169,l,0.5313935936428607,colour,0.06
070,71,1,1,10,32,482,876.2334434392396,877.1816693439614,"[91, 0, 163]",163,l,0.4247643523849547,colour,0.06
070,71,1,1,10,33,483,877.703264858108,878.5817183384206,"[82, 0, 172]",172,l,0.3674082902725786,colour,0.06
070,71,1,1,10,34,484,879.0972659662366,880.9816952589899,"[57, 0, 197]",197,a,1.3610803801566362,colour,0.06
070,71,1,1,10,35,485,881.4878996985499,882.5176980223041,"[95, 0, 159]",159,l,0.5065104572568089,colour,0.06
070,71,1,1,10,36,486,883.0347599848174,884.2856499762274,"[98, 0, 156]",156,l,0.7282665416132659,colour,0.06
070,71,1,1,10,37,487,884.8003693479113,885.9416683830786,"[74, 0, 180]",180,l,0.6179257042240351,colour,0.06
070,71,1,1,10,38,488,886.4575590500608,887.3736826372333,"[83, 0, 171]",171,l,0.39352376805618405,colour,0.06
070,71,1,1,10,39,489,887.8877667365596,888.8457162841223,"[61, 0, 193]",193,a,0.43460260424762964,colour,0.06
070,71,1,1,10,40,490,889.3565137456171,890.0536826686002,"[7, 0, 247]",247,a,0.17380504426546395,colour,0.06
070,71,1,1,10,41,491,890.5752628226765,893.2936607867014,"[72, 0, 182]",182,l,2.193693042732775,colour,0.06
070,71,1,1,10,42,492,893.8112512892112,895.069634972373,"[78, 0, 176]",176,l,0.7350099582690746,colour,0.06
070,71,1,1,10,43,493,895.5768405662384,896.3337750961073,"[77, 0, 177]",177,l,0.2336970753967762,colour,0.06
070,71,1,1,10,44,494,896.8425056585111,897.4857177964877,"[93, 0, 161]",161,l,0.11981635796837509,colour,0.06
070,71,1,1,10,45,495,897.9988483965863,898.573612611508,"[88, 0, 166]",166,l,0.05218093725852668,colour,0.06
070,71,1,1,10,46,496,899.0925118615851,900.2216324170586,"[51, 0, 203]",203,a,0.6056909046601504,colour,0.06
070,71,1,1,10,47,497,900.7331494337413,901.405627022963,"[96, 0, 158]",158,l,0.14902312611229718,colour,0.06
070,71,1,1,10,48,498,901.9206468984485,904.9896036696155,"[66, 0, 188]",188,a,2.545651575550437,colour,0.06
070,71,1,1,10,49,499,905.4987832154147,906.2216241464484,"[94, 0, 160]",160,l,0.19953731074929237,colour,0.06
070,71,1,1,10,50,500,906.7329942588694,907.8136411416344,"[92, 0, 162]",162,l,0.5572325920220464,colour,0.06
070,71,1,1,11,1,501,912.9510131468996,913.9656641862821,"[73, 0, 181]",181,l,0.4907885529100895,colour,0.06
070,71,1,1,11,2,502,914.483105421532,915.2055997690186,"[91, 0, 163]",163,l,0.19907296728342772,colour,0.06
070,71,1,1,11,3,503,915.7175866428297,916.6136001029518,"[79, 0, 175]",175,l,0.37275749491527677,colour,0.06
070,71,1,1,11,4,504,917.1257141889073,918.1736089093611,"[64, 0, 190]",190,a,0.524634029250592,colour,0.06
070,71,1,1,11,5,505,918.6881419920828,919.3095532259904,"[82, 0, 172]",172,l,0.09803869063034654,colour,0.06
070,71,1,1,11,6,506,919.82876794599,922.7655699783936,"[50, 0, 204]",204,a,2.4136882454622537,colour,0.06
070,71,1,1,11,7,507,923.2818666999228,924.6296595325693,"[70, 0, 184]",184,a,0.8244569171220064,colour,0.06
070,71,1,1,11,8,508,925.1411733985879,926.0535802689847,"[63, 0, 191]",191,a,0.38899730588309467,colour,0.06
070,71,1,1,11,9,509,926.5630855245981,927.4935301088262,"[98, 0, 156]",156,l,0.40700272424146533,colour,0.06
070,71,1,1,11,10,510,928.0007912348956,928.9975522523746,"[92, 0, 162]",162,l,0.47399223898537457,colour,0.06
070,71,1,1,11,11,511,929.5161923523992,930.4616436180659,"[86, 0, 168]",168,l,0.4220527287106961,colour,0.06
070,71,1,1,11,12,512,930.9695313517004,931.9495535567403,"[66, 0, 188]",188,a,0.4568304365966469,colour,0.06
070,71,1,1,11,13,513,932.4692897277419,933.8295859622303,"[83, 0, 171]",171,l,0.837655849289149,colour,0.06
070,71,1,1,11,14,514,934.3444014319684,936.8455110907089,"[84, 0, 170]",170,l,1.977903711842373,colour,0.06
070,71,1,1,11,15,515,937.3599102662411,938.4615798152518,"[3, 0, 251]",251,a,0.5783612024970353,colour,0.06
070,71,1,1,11,16,516,938.9692899247166,940.0055618810002,"[58, 0, 196]",196,a,0.5128753886092454,colour,0.06
070,71,1,1,11,17,517,940.5161565123126,941.5496136574075,"[59, 0, 195]",195,a,0.5100558511912823,colour,0.06
070,71,1,1,11,18,518,942.0630380662624,942.9735859874636,"[88, 0, 166]",166,l,0.38734670053236187,colour,0.06
070,71,1,1,11,19,519,943.486692563165,944.4695035857148,"[68, 0, 186]",186,a,0.4594443868845701,colour,0.06
070,71,1,1,11,20,520,944.9866699171253,946.1735301401932,"[97, 0, 157]",157,l,0.6635664489585906,colour,0.06
070,71,1,1,11,21,521,946.6921812680084,947.7095293588936,"[54, 0, 200]",200,a,0.4939412830863148,colour,0.06
070,71,1,1,11,22,522,948.2234122033697,949.1894946533721,"[89, 0, 165]",165,l,0.4427020298317075,colour,0.06
070,71,1,1,11,23,523,949.7077401203569,950.6455251905136,"[72, 0, 182]",182,a,0.4143593576736748,colour,0.06
070,71,1,1,11,24,524,951.1609782956075,952.1335398918018,"[87, 0, 167]",167,l,0.4493824311066419,colour,0.06
070,71,1,1,11,25,525,952.6471328663174,953.933528785361,"[99, 0, 155]",155,l,0.7633116703946143,colour,0.06
070,71,1,1,11,26,526,954.4314947722014,955.6695229627658,"[60, 0, 194]",194,a,0.723748350283131,colour,0.06
070,71,1,1,11,27,527,956.1886431600433,957.49348560418,"[56, 0, 198]",198,a,0.781443907180801,colour,0.06
070,71,1,1,11,28,528,958.0011764152441,959.0055055611301,"[62, 0, 192]",192,a,0.48095620865933597,colour,0.06
070,71,1,1,11,29,529,959.5167327078525,960.5254969438538,"[53, 0, 201]",201,a,0.4852692070417106,colour,0.06
070,71,1,1,11,30,530,961.0324166060891,962.2054532584734,"[71, 0, 183]",183,a,0.649662533774972,colour,0.06
070,71,1,1,11,31,531,962.7199111168738,963.4535087465774,"[75, 0, 179]",179,a,0.21026328927837312,colour,0.06
070,71,1,1,11,32,532,963.9699236215092,965.7975639889482,"[94, 0, 160]",160,l,1.3043115409091115,colour,0.06
070,71,1,1,11,33,533,966.3136314924341,967.7015350901056,"[78, 0, 176]",176,a,0.8645412945188582,colour,0.06
070,71,1,1,11,34,534,968.2198987107258,968.8694738110062,"[65, 0, 189]",189,a,0.12632425501942635,colour,0.06
070,71,1,1,11,35,535,969.3761142371222,969.9974691509269,"[77, 0, 177]",177,a,0.09796858602203429,colour,0.06
070,71,1,1,11,36,536,970.5168039938435,971.1414821729995,"[96, 0, 158]",158,l,0.10133635578677058,colour,0.06
070,71,1,1,11,37,537,971.6573527539149,972.269499174552,"[74, 0, 180]",180,a,0.08877939102239907,colour,0.06
070,71,1,1,11,38,538,972.7749710620847,974.1894761426374,"[76, 0, 178]",178,a,0.8911337188910693,colour,0.06
070,71,1,1,11,39,539,974.6972535995301,975.349483609898,"[18, 0, 236]",236,a,0.12888109777122736,colour,0.06
070,71,1,1,11,40,540,975.8691079288255,976.533439619001,"[57, 0, 197]",197,a,0.14094063616357744,colour,0.06
070,71,1,1,11,41,541,977.0410047934856,977.6694906675257,"[90, 0, 164]",164,l,0.10510742315091193,colour,0.06
070,71,1,1,11,42,542,978.1817142423242,979.341424750397,"[95, 0, 159]",159,l,0.636483293492347,colour,0.06
070,71,1,1,11,43,543,979.8534336797893,980.9254679568112,"[41, 0, 213]",213,a,0.5486128970514983,colour,0.06
070,71,1,1,11,44,544,981.4316503410228,982.3814201189671,"[55, 0, 199]",199,a,0.42450835346244276,colour,0.06
070,71,1,1,11,45,545,982.9021822565701,983.861460637534,"[93, 0, 161]",161,l,0.43578177667222917,colour,0.06
070,71,1,1,11,46,546,984.3710277269129,985.3894108429085,"[69, 0, 185]",185,a,0.4950338094495237,colour,0.06
070,71,1,1,11,47,547,985.9021456288174,986.8454256264959,"[51, 0, 203]",203,a,0.41981726372614503,colour,0.06
070,71,1,1,11,48,548,987.3553396933712,988.2533790927846,"[67, 0, 187]",187,a,0.37462629028595984,colour,0.06
070,71,1,1,11,49,549,988.7614720198326,989.7893767359201,"[80, 0, 174]",174,l,0.5046771080233157,colour,0.06
070,71,1,1,11,50,550,990.310195981292,991.421415881021,"[52, 0, 202]",202,a,0.5886728561017662,colour,0.06
070,71,1,1,12,1,551,995.7939232843928,998.9734158464707,"[86, 0, 168]",168,l,2.65571869071573,colour,0.06
070,71,1,1,12,2,552,999.4822243901435,1000.0854356458876,"[97, 0, 157]",157,l,0.07986943260766566,colour,0.06
070,71,1,1,12,3,553,1000.5915534393862,1002.5814654899295,"[85, 0, 169]",169,l,1.4665091813076288,colour,0.06
070,71,1,1,12,4,554,1003.0915571809746,1004.0373420335818,"[84, 0, 170]",170,l,0.4224705984815955,colour,0.06
070,71,1,1,12,5,555,1004.5446287596133,1005.5573771330528,"[71, 0, 183]",183,a,0.4896420696750283,colour,0.06
070,71,1,1,12,6,556,1006.0758372456767,1007.0293485524599,"[64, 0, 190]",190,a,0.4300599943380803,colour,0.06
070,71,1,1,12,7,557,1007.5446133995429,1008.5413870201446,"[52, 0, 202]",202,a,0.47354325535707176,colour,0.06
070,71,1,1,12,8,558,1009.060266971821,1010.0293737584725,"[93, 0, 161]",161,l,0.44571612658910453,colour,0.06
070,71,1,1,12,9,559,1010.5446401811205,1011.4853664867114,"[94, 0, 160]",160,l,0.4174786114599556,colour,0.06
070,71,1,1,12,10,560,1011.9977397227194,1013.0693762160372,"[53, 0, 201]",201,a,0.5482127503491938,colour,0.06
070,71,1,1,12,11,561,1013.5758681625593,1014.5173979122192,"[59, 0, 195]",195,a,0.4184699193574488,colour,0.06
070,71,1,1,12,12,562,1015.0290539562702,1015.9093589026015,"[69, 0, 185]",185,a,0.3572923776227981,colour,0.06
070,71,1,1,12,13,563,1016.419586076634,1017.3653681722935,"[61, 0, 193]",193,a,0.4224666601512581,colour,0.06
070,71,1,1,12,14,564,1017.8727029473521,1018.8613235794473,"[74, 0, 180]",180,a,0.46525242109782994,colour,0.06
070,71,1,1,12,15,565,1019.3727188981138,1020.2772933701053,"[51, 0, 203]",203,a,0.38122989190742373,colour,0.06
070,71,1,1,12,16,566,1020.7946325994562,1021.8853426196147,"[76, 0, 178]",178,a,0.5675682700239122,colour,0.06
070,71,1,1,12,17,567,1022.4039319134317,1023.29334452888,"[70, 0, 184]",184,a,0.366040859837085,colour,0.06
070,71,1,1,12,18,568,1023.8101185907144,1024.5653591926675,"[66, 0, 188]",188,a,0.23174202837981284,colour,0.06
070,71,1,1,12,19,569,1025.0758648149204,1027.3732864288613,"[77, 0, 177]",177,a,1.7744882081169635,colour,0.06
070,71,1,1,12,20,570,1027.8882669198792,1028.4133507201914,"[63, 0, 191]",191,a,0.0016998357605189085,colour,0.06
070,71,1,1,12,21,571,1028.935039969394,1029.5013475411106,"[79, 0, 175]",175,l,0.042869650293141603,colour,0.06
070,71,1,1,12,22,572,1030.0132914858405,1030.7254044690635,"[68, 0, 186]",186,a,0.18881369521841407,colour,0.06
070,71,1,1,12,23,573,1031.2336549339816,1032.565350528108,"[80, 0, 174]",174,l,0.8082352234050632,colour,0.06
070,71,1,1,12,24,574,1033.0774090816267,1034.0372699599247,"[48, 0, 206]",206,a,0.4365533194504678,colour,0.06
070,71,1,1,12,25,575,1034.546145457076,1035.4932930138893,"[56, 0, 198]",198,a,0.42390498239547014,colour,0.06
070,71,1,1,12,26,576,1036.0148597771768,1036.9173307223246,"[78, 0, 176]",176,l,0.3791503894608468,colour,0.06
070,71,1,1,12,27,577,1037.4386442431714,1038.613295660587,"[87, 0, 167]",167,l,0.6513237725012004,colour,0.06
070,71,1,1,12,28,578,1039.1136948226485,1040.077274386771,"[62, 0, 192]",192,a,0.4402357714716345,colour,0.06
070,71,1,1,12,29,579,1040.5980172259733,1041.597316969186,"[36, 0, 218]",218,a,0.4759378337766975,colour,0.06
070,71,1,1,12,30,580,1042.1136345644481,1043.0052609832492,"[98, 0, 156]",156,l,0.36830822634510696,colour,0.06
070,71,1,1,12,31,581,1043.519938213518,1044.5332753853872,"[95, 0, 159]",159,l,0.49000519467517734,colour,0.06
070,71,1,1,12,32,582,1045.0511250381824,1045.941302500898,"[0, 0, 254]",254,a,0.36676041479222476,colour,0.06
070,71,1,1,12,33,583,1046.4574247489218,1047.1892634660471,"[54, 0, 200]",200,a,0.20852958294562995,colour,0.06
070,71,1,1,12,34,584,1047.707340367604,1049.125266780844,"[81, 0, 173]",173,l,0.894518030108884,colour,0.06
070,71,1,1,12,35,585,1049.6448847982101,1050.6452349266037,"[92, 0, 162]",162,l,0.4771237017121166,colour,0.06
070,71,1,1,12,36,586,1051.1604785060044,1052.1892870969605,"[65, 0, 189]",189,a,0.5054525891318917,colour,0.06
070,71,1,1,12,37,587,1052.707339579938,1053.6772927399725,"[96, 0, 158]",158,l,0.4465569860767573,colour,0.06
070,71,1,1,12,38,588,1054.191758868983,1055.1172508504242,"[83, 0, 171]",171,l,0.4021840288769454,colour,0.06
070,71,1,1,12,39,589,1055.6291944014374,1056.6132405223325,"[67, 0, 187]",187,a,0.46090515865944326,colour,0.06
070,71,1,1,12,40,590,1057.1291926291306,1058.1412856443785,"[88, 0, 166]",166,l,0.489017037441954,colour,0.06
070,71,1,1,12,41,591,1058.660451527685,1059.6692252159119,"[73, 0, 181]",181,a,0.4854137480724603,colour,0.06
070,71,1,1,12,42,592,1060.1666922008153,1061.0693096562754,"[50, 0, 204]",204,a,0.3791799277532846,colour,0.06
070,71,1,1,12,43,593,1061.5885684869718,1062.5572861547116,"[90, 0, 164]",164,l,0.44567792350426316,colour,0.06
070,71,1,1,12,44,594,1063.0698740363587,1064.1331803111825,"[91, 0, 163]",163,l,0.538161822129041,colour,0.06
070,71,1,1,12,45,595,1064.649733819766,1065.8051726832055,"[60, 0, 194]",194,a,0.632096252636984,colour,0.06
070,71,1,1,12,46,596,1066.3216545118485,1068.0211723272223,"[58, 0, 196]",196,a,1.1761862321291119,colour,0.06
070,71,1,1,12,47,597,1068.540325607406,1069.63717488572,"[89, 0, 165]",165,l,0.571549650747329,colour,0.06
070,71,1,1,12,48,598,1070.1515342828352,1071.3492240658961,"[75, 0, 179]",179,l,0.6742231110110879,colour,0.06
070,71,1,1,12,49,599,1071.8703363318928,1072.7411637885962,"[55, 0, 199]",199,a,0.34742379980161786,colour,0.06
070,71,1,1,12,50,600,1073.2609216212295,1074.2212499934249,"[99, 0, 155]",155,l,0.4376978331711143,colour,0.06
070,71,1,1,13,1,601,1080.8070024878252,1081.8052037970629,"[83, 0, 171]",171,l,0.47402256494387984,colour,0.06
070,71,1,1,13,2,602,1082.323463048786,1083.2532554254867,"[60, 0, 194]",194,a,0.4064970270264894,colour,0.06
070,71,1,1,13,3,603,1083.7513253872748,1085.1091616649646,"[69, 0, 185]",185,a,0.8345401403494179,colour,0.06
070,71,1,1,13,4,604,1085.6172282043844,1086.6771296879742,"[71, 0, 183]",183,l,0.5365872294642031,colour,0.06
070,71,1,1,13,5,605,1087.1952629091684,1088.0771877407096,"[38, 0, 216]",216,a,0.35888705658726394,colour,0.06
070,71,1,1,13,6,606,1088.587783947587,1089.5252771782689,"[50, 0, 204]",204,a,0.4237194813322276,colour,0.06
070,71,1,1,13,7,607,1090.031664755661,1090.9972296932247,"[55, 0, 199]",199,a,0.4428863492794335,colour,0.06
070,71,1,1,13,8,608,1091.5160237865057,1092.6851239567623,"[68, 0, 186]",186,a,0.6456571286544204,colour,0.06
070,71,1,1,13,9,609,1093.2034769435413,1094.0451035397127,"[63, 0, 191]",191,a,0.3183044649194926,colour,0.06
070,71,1,1,13,10,610,1094.5628630020656,1095.4931287805084,"[79, 0, 175]",175,l,0.4068554260302335,colour,0.06
070,71,1,1,13,11,611,1096.0004954570904,1096.9171416766476,"[87, 0, 167]",167,l,0.39365176763385534,colour,0.06
070,71,1,1,13,12,612,1097.4378384358715,1098.5411834020633,"[54, 0, 200]",200,a,0.579971635248512,colour,0.06
070,71,1,1,13,13,613,1099.0472318790853,1099.9811742019374,"[86, 0, 168]",168,l,0.41053709061816335,colour,0.06
070,71,1,1,13,14,614,1100.487797692651,1101.5571951766033,"[91, 0, 163]",163,l,0.5459453840740025,colour,0.06
070,71,1,1,13,15,615,1102.0659221941605,1103.1571182191838,"[66, 0, 188]",188,a,0.56780024478212,colour,0.06
070,71,1,1,13,16,616,1103.6680318650324,1104.6691102131736,"[90, 0, 164]",164,l,0.4776794172357768,colour,0.06
070,71,1,1,13,17,617,1105.184334100224,1106.6051726045553,"[88, 0, 166]",166,l,0.8974395734257996,colour,0.06
070,71,1,1,13,18,618,1107.1158936601132,1108.0290945223533,"[56, 0, 198]",198,a,0.38982044206932187,colour,0.06
070,71,1,1,13,19,619,1108.5377939708997,1109.5651398207992,"[33, 0, 221]",221,a,0.5040701925754547,colour,0.06
070,71,1,1,13,20,620,1110.0846373217646,1111.0851442003623,"[80, 0, 174]",174,l,0.4773178673349321,colour,0.06
070,71,1,1,13,21,621,1111.6003334291745,1112.949107724009,"[89, 0, 165]",165,l,0.825495486613363,colour,0.06
070,71,1,1,13,22,622,1113.4596582446247,1114.517150183674,"[97, 0, 157]",157,l,0.5341575986240059,colour,0.06
070,71,1,1,13,23,623,1115.0376626234502,1118.0530773287173,"[94, 0, 160]",160,l,2.491985054453835,colour,0.06
070,71,1,1,13,24,624,1118.556528002955,1119.6770654912107,"[82, 0, 172]",172,l,0.5971842433791608,colour,0.06
070,71,1,1,13,25,625,1120.1970675077755,1121.1250651320443,"[73, 0, 181]",181,l,0.40457112435251474,colour,0.06
070,71,1,1,13,26,626,1121.6346121353563,1122.6850558214355,"[62, 0, 192]",192,a,0.527073506033048,colour,0.06
070,71,1,1,13,27,627,1123.1971502152737,1124.5171021346468,"[67, 0, 187]",187,a,0.7966518437024206,colour,0.06
070,71,1,1,13,28,628,1125.0153796528466,1126.0130606926978,"[76, 0, 178]",178,a,0.4743321272544563,colour,0.06
070,71,1,1,13,29,629,1126.530974148307,1127.6210461391602,"[78, 0, 176]",176,l,0.566719927592203,colour,0.06
070,71,1,1,13,30,630,1128.1403439606074,1129.0210459029768,"[85, 0, 169]",169,l,0.3573230975307524,colour,0.06
070,71,1,1,13,31,631,1129.5309568191878,1130.6450927485712,"[61, 0, 193]",193,a,0.5907988322433084,colour,0.06
070,71,1,1,13,32,632,1131.1469664666802,1132.1010417595971,"[99, 0, 155]",155,l,0.4400085227098316,colour,0.06
070,71,1,1,13,33,633,1132.6220516259782,1133.6291073616594,"[53, 0, 201]",201,a,0.4836583803407848,colour,0.06
070,71,1,1,13,34,634,1134.1377209520433,1135.164998666849,"[43, 0, 211]",211,a,0.5039335284382105,colour,0.06
070,71,1,1,13,35,635,1135.6845418536104,1136.653051571222,"[96, 0, 158]",158,l,0.44506470672786236,colour,0.06
070,71,1,1,13,36,636,1137.168925696751,1138.0450050784275,"[65, 0, 189]",189,a,0.35270526306703687,colour,0.06
070,71,1,1,13,37,637,1138.5522008263506,1139.509029096691,"[72, 0, 182]",182,a,0.43345415173098445,colour,0.06
070,71,1,1,13,38,638,1140.0209974600002,1140.9490376196336,"[75, 0, 179]",179,a,0.4047798621468246,colour,0.06
070,71,1,1,13,39,639,1141.458517275285,1142.397010872839,"[74, 0, 180]",180,a,0.415209669386968,colour,0.06
070,71,1,1,13,40,640,1142.9116187861655,1143.869029553607,"[93, 0, 161]",161,l,0.43420954677276313,colour,0.06
070,71,1,1,13,41,641,1144.380317746196,1145.4690305776894,"[95, 0, 159]",159,l,0.5654430817812681,colour,0.06
070,71,1,1,13,42,642,1145.9897604200523,1147.0530166765675,"[57, 0, 197]",197,a,0.5399668146856129,colour,0.06
070,71,1,1,13,43,643,1147.5679648721125,1148.8770565115847,"[58, 0, 196]",196,a,0.7858624558430165,colour,0.06
070,71,1,1,13,44,644,1149.3959344939794,1150.4129891702905,"[92, 0, 162]",162,l,0.4938207664526999,colour,0.06
070,71,1,1,13,45,645,1150.927179214079,1152.0449802663643,"[64, 0, 190]",190,a,0.5944568659178913,colour,0.06
070,71,1,1,13,46,646,1152.5521496264264,1154.004992380971,"[98, 0, 156]",156,l,0.9297648074571043,colour,0.06
070,71,1,1,13,47,647,1154.520910617197,1155.3889929733705,"[84, 0, 170]",170,l,0.3447751912754029,colour,0.06
070,71,1,1,13,48,648,1155.89588349103,1157.1089793147985,"[81, 0, 173]",173,l,0.6898548246826977,colour,0.06
070,71,1,1,13,49,649,1157.6303058324847,1159.661006061593,"[51, 0, 203]",203,a,1.507385187316686,colour,0.06
070,71,1,1,13,50,650,1160.1771590295248,1161.3889547702856,"[59, 0, 195]",195,a,0.6884653391316533,colour,0.06
070,71,1,1,14,1,651,1165.866027666023,1167.380903787911,"[73, 0, 181]",181,a,0.9906603563576937,colour,0.06
070,71,1,1,14,2,652,1167.8980649993755,1168.5729501638561,"[52, 0, 202]",202,a,0.15155633818358183,colour,0.06
070,71,1,1,14,3,653,1169.0855022056494,1170.0210013985634,"[87, 0, 167]",167,l,0.41214122204110026,colour,0.06
070,71,1,1,14,4,654,1170.538606079528,1171.5089306354057,"[56, 0, 198]",198,a,0.44686851743608713,colour,0.06
070,71,1,1,14,5,655,1172.0230194609612,1174.2929294160567,"[76, 0, 178]",178,l,1.7465358364861459,colour,0.06
070,71,1,1,14,6,656,1174.8042380886618,1175.756952646654,"[65, 0, 189]",189,a,0.42928096861578524,colour,0.06
070,71,1,1,14,7,657,1176.2729614672717,1177.2369096702896,"[88, 0, 166]",166,l,0.4404760168399662,colour,0.06
070,71,1,1,14,8,658,1177.7574091132265,1178.7649323432706,"[1, 0, 253]",253,a,0.4842609635088593,colour,0.06
070,71,1,1,14,9,659,1179.2730646547861,1180.2689513359219,"[54, 0, 200]",200,a,0.4725357994902879,colour,0.06
070,71,1,1,14,10,660,1180.7886040117592,1181.644939542748,"[53, 0, 201]",201,a,0.3330145813524723,colour,0.06
070,71,1,1,14,11,661,1182.1636166640092,1183.028918079799,"[63, 0, 191]",191,a,0.3419257216155529,colour,0.06
070,71,1,1,14,12,662,1183.538573784288,1184.4368557923008,"[55, 0, 199]",199,a,0.3748082467354834,colour,0.06
070,71,1,1,14,13,663,1184.9448794026393,1185.8448588831816,"[58, 0, 196]",196,a,0.3767888939473778,colour,0.06
070,71,1,1,14,14,664,1186.3511413040105,1187.1648836638778,"[90, 0, 164]",164,l,0.29049072694033384,colour,0.06
070,71,1,1,14,15,665,1187.679201707244,1188.5968884658068,"[97, 0, 157]",157,l,0.39292984968051314,colour,0.06
070,71,1,1,14,16,666,1189.1180208178703,1190.0688858788926,"[42, 0, 212]",212,a,0.42745116422884166,colour,0.06
070,71,1,1,14,17,667,1190.5880604267586,1191.7248877442908,"[96, 0, 158]",158,l,0.6137344043236226,colour,0.06
070,71,1,1,14,18,668,1192.2442733929493,1193.1728932927363,"[59, 0, 195]",195,a,0.4056234785821289,colour,0.06
070,71,1,1,14,19,669,1193.6817727284506,1194.6128974831663,"[92, 0, 162]",162,l,0.40779356518760324,colour,0.06
070,71,1,1,14,20,670,1195.1192681253888,1195.9808756674174,"[68, 0, 186]",186,a,0.33822594047524035,colour,0.06
070,71,1,1,14,21,671,1196.4943430051208,1197.4769090558402,"[89, 0, 165]",165,l,0.4593601038213819,colour,0.06
070,71,1,1,14,22,672,1197.994254980702,1198.9009121058043,"[62, 0, 192]",192,a,0.38335823081433773,colour,0.06
070,71,1,1,14,23,673,1199.4161694699433,1200.3328369571827,"[84, 0, 170]",170,l,0.3933036085218191,colour,0.06
070,71,1,1,14,24,674,1200.8536664422136,1201.740829807939,"[98, 0, 156]",156,l,0.36382390558719635,colour,0.06
070,71,1,1,14,25,675,1202.2618723632768,1203.108838712098,"[95, 0, 159]",159,l,0.3238356264773756,colour,0.06
070,71,1,1,14,26,676,1203.6120010917075,1204.5328649987932,"[91, 0, 163]",163,l,0.39770719106309116,colour,0.06
070,71,1,1,14,27,677,1205.0494795532431,1205.9328805163968,"[67, 0, 187]",187,a,0.3600138477049768,colour,0.06
070,71,1,1,14,28,678,1206.440098713152,1208.1648501870222,"[77, 0, 177]",177,l,1.2014151641633362,colour,0.06
070,71,1,1,14,29,679,1208.6744948639534,1210.0608569518663,"[99, 0, 155]",155,l,0.8630624059587717,colour,0.06
070,71,1,1,14,30,680,1210.5807593255304,1211.5808247036766,"[86, 0, 168]",168,l,0.4769968835171312,colour,0.06
070,71,1,1,14,31,681,1212.096324676415,1213.0928773498163,"[61, 0, 193]",193,a,0.47311396431177855,colour,0.06
070,71,1,1,14,32,682,1213.612142482074,1214.8368614637293,"[74, 0, 180]",180,a,0.7016071639955044,colour,0.06
070,71,1,1,14,33,683,1215.3464848729782,1216.2208207023796,"[79, 0, 175]",175,l,0.3509983385447413,colour,0.06
070,71,1,1,14,34,684,1216.7397550046444,1217.7088365852833,"[94, 0, 160]",160,l,0.44565074844285846,colour,0.06
070,71,1,1,14,35,685,1218.2241219123825,1219.0929391835816,"[51, 0, 203]",203,a,0.34615680016577244,colour,0.06
070,71,1,1,14,36,686,1219.5991129030008,1220.8128262760583,"[75, 0, 179]",179,a,0.6903038083110005,colour,0.06
070,71,1,1,14,37,687,1221.3344221836887,1222.2288193034474,"[66, 0, 188]",188,a,0.37104229955002666,colour,0.06
070,71,1,1,14,38,688,1222.740585230058,1224.4928523013368,"[60, 0, 194]",194,a,1.228834269568324,colour,0.06
070,71,1,1,14,39,689,1225.006192821078,1226.0448309988715,"[69, 0, 185]",185,a,0.5152061639819294,colour,0.06
070,71,1,1,14,40,690,1226.5531432977878,1227.4847694174387,"[81, 0, 173]",173,l,0.4082724810577929,colour,0.06
070,71,1,1,14,41,691,1227.9921991091687,1229.1088012966793,"[57, 0, 197]",197,a,0.5931981366593391,colour,0.06
070,71,1,1,14,42,692,1229.6175550958142,1230.5247651794925,"[80, 0, 174]",174,l,0.382927758153528,colour,0.06
070,71,1,1,14,43,693,1231.0408090522978,1231.9248059031088,"[50, 0, 204]",204,a,0.36065463349223137,colour,0.06
070,71,1,1,14,44,694,1232.431354169501,1233.3247780976817,"[83, 0, 171]",171,l,0.37005768646486104,colour,0.06
070,71,1,1,14,45,695,1233.8376597878523,1234.852827158291,"[70, 0, 184]",184,a,0.49184011947363615,colour,0.06
070,71,1,1,14,46,696,1235.3688836339861,1236.5968148165848,"[71, 0, 183]",183,a,0.7046315006446093,colour,0.06
070,71,1,1,14,47,697,1237.1032220863272,1238.0927544701844,"[64, 0, 190]",190,a,0.4661728374194354,colour,0.06
070,71,1,1,14,48,698,1238.603223858634,1239.7327867024578,"[21, 0, 233]",233,a,0.6061706081964076,colour,0.06
070,71,1,1,14,49,699,1240.243937049294,1241.7407754573505,"[72, 0, 182]",182,a,0.9736438828986138,colour,0.06
070,71,1,1,14,50,700,1242.2594801478554,1243.1247969234828,"[78, 0, 176]",176,l,0.34197770920582116,colour,0.06
070,71,1,1,15,1,701,1247.6180481899064,1248.3327581880149,"[93, 0, 161]",161,l,0.19060647813603282,colour,0.06
070,71,1,1,15,2,702,1248.853231637273,1249.5246915305033,"[85, 0, 169]",169,l,0.148165725171566,colour,0.06
070,71,1,1,15,3,703,1250.0406849910505,1250.9087610458955,"[72, 0, 182]",182,l,0.3447495913133025,colour,0.06
070,71,1,1,15,4,704,1251.4156602281146,1252.036759142764,"[58, 0, 196]",196,a,0.09614547691307962,colour,0.06
070,71,1,1,15,5,705,1252.5578588056378,1253.460722414311,"[92, 0, 162]",162,l,0.37960921903140843,colour,0.06
070,71,1,1,15,6,706,1253.982733041048,1254.9647544040345,"[51, 0, 203]",203,a,0.4570643806364387,colour,0.06
070,71,1,1,15,7,707,1255.4843606061768,1256.9167340470012,"[75, 0, 179]",179,l,0.9090741528198123,colour,0.06
070,71,1,1,15,8,708,1257.43829569011,1258.2047167681158,"[70, 0, 184]",184,a,0.2429697655607015,colour,0.06
070,71,1,1,15,9,709,1258.7196858376265,1259.4127185987309,"[82, 0, 172]",172,l,0.16984296217560768,colour,0.06
070,71,1,1,15,10,710,1259.9227783882525,1260.5486637030263,"[80, 0, 174]",174,l,0.10259232809767127,colour,0.06
070,71,1,1,15,11,711,1261.063425609842,1262.292713589035,"[84, 0, 170]",170,l,0.7059753003995866,colour,0.06
070,71,1,1,15,12,712,1262.8142287584487,1263.7486929262523,"[97, 0, 157]",157,l,0.41187773947604,colour,0.06
070,71,1,1,15,13,713,1264.2665315514896,1267.1407303228043,"[68, 0, 186]",186,a,2.350848677335307,colour,0.06
070,71,1,1,15,14,714,1267.6571948220953,1268.956682547694,"[86, 0, 168]",168,l,0.7762041913811117,colour,0.06
070,71,1,1,15,15,715,1269.469653640641,1270.5167023816612,"[90, 0, 164]",164,l,0.5237506343983114,colour,0.06
070,71,1,1,15,16,716,1271.032163757598,1272.164688710589,"[59, 0, 195]",195,a,0.6091658005025238,colour,0.06
070,71,1,1,15,17,717,1272.6727355576586,1273.7486929262523,"[89, 0, 165]",165,l,0.5526462651323527,colour,0.06
070,71,1,1,15,18,718,1274.2664803515654,1275.5086718793027,"[65, 0, 189]",189,a,0.7187067386694252,colour,0.06
070,71,1,1,15,19,719,1276.0165363759734,1276.956649464788,"[74, 0, 180]",180,a,0.41681498219259083,colour,0.06
070,71,1,1,15,20,720,1277.4695744777564,1278.4046731300186,"[69, 0, 185]",185,a,0.41186749935150146,colour,0.06
070,71,1,1,15,21,721,1278.9102564759087,1279.7887331929523,"[61, 0, 193]",193,a,0.35513686295598745,colour,0.06
070,71,1,1,15,22,722,1280.3014703420922,1281.188640009379,"[77, 0, 177]",177,a,0.36359744472429156,colour,0.06
070,71,1,1,15,23,723,1281.707858667709,1282.6046117690857,"[13, 0, 241]",241,a,0.37332778284326196,colour,0.06
070,71,1,1,15,24,724,1283.1141028462444,1284.0926886980888,"[88, 0, 166]",166,l,0.45526884077116847,colour,0.06
070,71,1,1,15,25,725,1284.6140853201505,1286.156682626577,"[98, 0, 156]",156,l,1.019236578606069,colour,0.06
070,71,1,1,15,26,726,1286.6765641262755,1289.3246430088766,"[99, 0, 155]",155,l,2.1230155620723963,colour,0.06
070,71,1,1,15,27,727,1289.8347020107321,1291.964657124132,"[96, 0, 158]",158,l,1.6068889815360308,colour,0.06
070,71,1,1,15,28,728,1292.475359669188,1293.1486741793342,"[57, 0, 197]",197,a,0.14999277307651937,colour,0.06
070,71,1,1,15,29,729,1293.6627937247977,1295.7806558229495,"[67, 0, 187]",187,a,1.5947687912266701,colour,0.06
070,71,1,1,15,30,730,1296.2998327338137,1297.8205968406983,"[73, 0, 181]",181,a,0.9972509609069675,colour,0.06
070,71,1,1,15,31,731,1298.3310989183374,1300.292612370802,"[54, 0, 200]",200,a,1.4381704474799335,colour,0.06
070,71,1,1,15,32,732,1300.7997687340248,1302.8527405122295,"[87, 0, 167]",167,l,1.5294921090826392,colour,0.06
070,71,1,1,15,33,733,1303.3622965740506,1303.9806432987098,"[19, 0, 235]",235,a,0.09516283334232867,colour,0.06
070,71,1,1,15,34,734,1304.4765538077336,1306.7966609019786,"[29, 0, 225]",225,a,1.797264272812754,colour,0.06
070,71,1,1,15,35,735,1307.304664819967,1307.9005702482536,"[78, 0, 176]",176,l,0.07251831283792853,colour,0.06
070,71,1,1,15,36,736,1308.416613333393,1309.492571095936,"[81, 0, 173]",173,l,0.5525025117676705,colour,0.06
070,71,1,1,15,37,737,1310.0103549764026,1310.9326071878895,"[94, 0, 160]",160,l,0.39892102195881307,colour,0.06
070,71,1,1,15,38,738,1311.4478606134653,1312.4045837272424,"[83, 0, 171]",171,l,0.4333588413428515,colour,0.06
070,71,1,1,15,39,739,1312.9186264728196,1313.9406266626902,"[62, 0, 192]",192,a,0.498725320212543,colour,0.06
070,71,1,1,15,40,740,1314.4498408667278,1315.4765471122228,"[95, 0, 159]",159,l,0.5033246437087655,colour,0.06
070,71,1,1,15,41,741,1315.9968815341126,1316.9085601847619,"[63, 0, 191]",191,a,0.38824072922579944,colour,0.06
070,71,1,1,15,42,742,1317.418754669372,1318.5326168762986,"[64, 0, 190]",190,a,0.5905385003425181,colour,0.06
070,71,1,1,15,43,743,1319.0437042079866,1320.0845766696148,"[55, 0, 199]",199,a,0.51756726577878,colour,0.06
070,71,1,1,15,44,744,1320.6068988277111,1321.9726001932286,"[76, 0, 178]",178,l,0.8429869373794645,colour,0.06
070,71,1,1,15,45,745,1322.4812488355674,1323.4685386649799,"[50, 0, 204]",204,a,0.4639613968320191,colour,0.06
070,71,1,1,15,46,746,1323.9812100417912,1324.9886367798317,"[52, 0, 202]",202,a,0.4840506501495838,colour,0.06
070,71,1,1,15,47,747,1325.4968328941613,1326.7245770003647,"[71, 0, 183]",183,l,0.7044333966914564,colour,0.06
070,71,1,1,15,48,748,1327.2311532297172,1328.1245964562986,"[60, 0, 194]",194,a,0.3746069916523993,colour,0.06
070,71,1,1,15,49,749,1328.6328394382726,1329.5885346163996,"[91, 0, 163]",163,l,0.43234390253201127,colour,0.06
070,71,1,1,15,50,750,1330.1014879862778,1331.1485631149262,"[66, 0, 188]",188,a,0.5236431148368865,colour,0.06
070,71,1,1,16,1,751,1336.2648013897706,1339.0685010922607,"[86, 0, 168]",168,l,2.2795461644418538,colour,0.06
070,71,1,1,16,2,752,1339.5735271470621,1340.6285709445365,"[67, 0, 187]",187,l,0.5316870079841465,colour,0.06
070,71,1,1,16,3,753,1341.1359427410644,1343.5164897053037,"[56, 0, 198]",198,a,1.857216562377289,colour,0.06
070,71,1,1,16,4,754,1344.026493175188,1344.71697381977,"[78, 0, 176]",176,l,0.1670565076638013,colour,0.06
070,71,1,1,16,5,755,1345.2296739474405,1347.6764581820462,"[59, 0, 195]",195,a,1.9233246517833322,colour,0.06
070,71,1,1,16,6,756,1348.1828536363319,1349.3805162443314,"[68, 0, 186]",186,a,0.6743487475905567,colour,0.06
070,71,1,1,16,7,757,1349.9014540368225,1350.5406418649945,"[74, 0, 180]",180,a,0.11564593156799674,colour,0.06
070,71,1,1,16,8,758,1351.0577593597118,1351.6524923110846,"[93, 0, 161]",161,l,0.07130605750717223,colour,0.06
070,71,1,1,16,9,759,1352.167161664227,1353.3564920842182,"[65, 0, 189]",189,a,0.6659058891236782,colour,0.06
070,71,1,1,16,10,760,1353.870276467409,1354.4844224397093,"[73, 0, 181]",181,a,0.09080060431733727,colour,0.06
070,71,1,1,16,11,761,1354.9952825228684,1355.524470583303,"[99, 0, 155]",155,l,0.0060474921483546495,colour,0.06
070,71,1,1,16,12,762,1356.0421528520528,1356.7084427401423,"[72, 0, 182]",182,a,0.1428803235758096,colour,0.06
070,71,1,1,16,13,763,1357.2296723718755,1357.7964675240219,"[98, 0, 156]",156,l,0.04345884267240763,colour,0.06
070,71,1,1,16,14,764,1358.307801008923,1358.9404470692389,"[87, 0, 167]",167,l,0.10930935712531209,colour,0.06
070,71,1,1,16,15,765,1359.4483903350774,1360.4764679493383,"[97, 0, 157]",157,l,0.5047224001027644,colour,0.06
070,71,1,1,16,16,766,1360.99521241826,1362.068434532499,"[64, 0, 190]",190,a,0.5500464935321361,colour,0.06
070,71,1,1,16,17,767,1362.576424665749,1363.556415363215,"[92, 0, 162]",162,l,0.4557981686666608,colour,0.06
070,71,1,1,16,18,768,1364.0776768964715,1365.01248607249,"[70, 0, 184]",184,a,0.4116244970355183,colour,0.06
070,71,1,1,16,19,769,1365.5307630472817,1366.5484187314287,"[2, 0, 252]",252,a,0.4943134670611471,colour,0.06
070,71,1,1,16,20,770,1367.0620440011844,1367.9484326734673,"[29, 0, 225]",225,a,0.3636852721683681,colour,0.06
070,71,1,1,16,21,771,1368.468138124561,1369.6764585757628,"[79, 0, 175]",175,l,0.684869532706216,colour,0.06
070,71,1,1,16,22,772,1370.186916542938,1371.0924433325417,"[37, 0, 217]",217,a,0.3821195880882442,colour,0.06
070,71,1,1,16,23,773,1371.6088085828815,1372.4364698240533,"[77, 0, 177]",177,l,0.3042544333729893,colour,0.06
070,71,1,1,16,24,774,1372.952567259781,1373.876470076153,"[76, 0, 178]",178,l,0.4005397253204137,colour,0.06
070,71,1,1,16,25,775,1374.3900094877463,1375.3243905541021,"[81, 0, 173]",173,l,0.4110372739378363,colour,0.06
070,71,1,1,16,26,776,1375.8431917366106,1376.4923950470984,"[63, 0, 191]",191,a,0.1258398254867643,colour,0.06
070,71,1,1,16,27,777,1377.0024505043402,1377.9245002793614,"[91, 0, 163]",163,l,0.3987142532132566,colour,0.06
070,71,1,1,16,28,778,1378.4399124244228,1379.3324013643432,"[53, 0, 201]",201,a,0.36911245808005333,colour,0.06
070,71,1,1,16,29,779,1379.8461711753625,1380.6924341164995,"[94, 0, 160]",160,l,0.32286479813046753,colour,0.06
070,71,1,1,16,30,780,1381.2055765320547,1382.1564345040824,"[51, 0, 203]",203,a,0.42745392117649317,colour,0.06
070,71,1,1,16,31,781,1382.6743133014534,1385.108419266995,"[75, 0, 179]",179,l,1.9110847322735935,colour,0.06
070,71,1,1,16,32,782,1385.6274622704368,1386.5563527417835,"[83, 0, 171]",171,l,0.4056014232337475,colour,0.06
070,71,1,1,16,33,783,1387.064872990828,1387.9164138508495,"[71, 0, 183]",183,l,0.32814704929478467,colour,0.06
070,71,1,1,16,34,784,1388.424266926013,1389.3084059550893,"[84, 0, 170]",170,l,0.36071922443807125,colour,0.06
070,71,1,1,16,35,785,1389.81483528018,1390.3404180821963,"[57, 0, 197]",197,a,0.0021472435910254717,colour,0.06
070,71,1,1,16,36,786,1390.8618182491045,1391.940407290822,"[82, 0, 172]",172,l,0.555439414922148,colour,0.06
070,71,1,1,16,37,787,1392.4555067231413,1393.348392658867,"[90, 0, 164]",164,l,0.36952954018488526,colour,0.06
070,71,1,1,16,38,788,1393.8636338752694,1394.7643490585033,"[66, 0, 188]",188,a,0.37747969827614725,colour,0.06
070,71,1,1,16,39,789,1395.2855763272382,1396.2683593868278,"[69, 0, 185]",185,a,0.4594861345831305,colour,0.06
070,71,1,1,16,40,790,1396.7855434413068,1397.6763943789992,"[95, 0, 159]",159,l,0.36744019156321883,colour,0.06
070,71,1,1,16,41,791,1398.1950403868686,1398.7243198195938,"[52, 0, 202]",202,a,0.0062247226014733315,colour,0.06
070,71,1,1,16,42,792,1399.2418256455567,1399.868354109116,"[85, 0, 169]",169,l,0.10312913893721998,colour,0.06
070,71,1,1,16,43,793,1400.3824736545794,1400.9483310615178,"[50, 0, 204]",204,a,0.042437208350747824,colour,0.06
070,71,1,1,16,44,794,1401.4606211960781,1402.4443750837818,"[89, 0, 165]",165,l,0.46050304267555475,colour,0.06
070,71,1,1,16,45,795,1402.9604776394553,1403.9403840540908,"[96, 0, 158]",158,l,0.4564397423528135,colour,0.06
070,71,1,1,16,46,796,1404.460508556338,1405.4763639741577,"[58, 0, 196]",196,a,0.492523834342137,colour,0.06
070,71,1,1,16,47,797,1405.9918210178148,1406.9004060148727,"[60, 0, 194]",194,a,0.3851380171254277,colour,0.06
070,71,1,1,16,48,798,1407.4137020299677,1408.3403015041258,"[54, 0, 200]",200,a,0.40319148474372923,colour,0.06
070,71,1,1,16,49,799,1408.851169070229,1409.7643447262235,"[80, 0, 174]",174,l,0.38973852223716676,colour,0.06
070,71,1,1,16,50,800,1410.2730236947536,1411.2203354851808,"[62, 0, 192]",192,a,0.4243011907674372,colour,0.06
