id,age,condition,counterbalance,block,trialinblock,trial,tstart,tend,trialstim,trialintensity,response,RT,trialtype,colourfreq
115,21,0,1,Practice,1,NA,5.5138953030109406e-06,5.691148785525002,"[98, 0, 156]",156,l,5.151100956834853,colour,0.5
115,21,0,1,Practice,2,NA,6.20396531955339,6.947152572800405,"[33, 0, 221]",221,a,0.21995073778089136,colour,0.5
115,21,0,1,Practice,3,NA,7.453854648862034,8.315155899967067,"[58, 0, 196]",196,a,0.3379442187724635,colour,0.5
115,21,0,1,Practice,4,NA,8.829504888388328,9.603113194461912,"[80, 0, 174]",174,l,0.25030877522658557,colour,0.5
115,21,0,1,Practice,5,NA,10.110812882194296,11.259148646960966,"[46, 0, 208]",208,a,0.6249401355162263,colour,0.5
115,21,0,1,Practice,6,NA,11.767428075894713,12.579135067062452,"[28, 0, 226]",226,a,0.28884384164121,colour,0.5
115,21,0,1,Practice,7,NA,13.095157506875694,13.779088672017679,"[32, 0, 222]",222,a,0.16059264354407787,colour,0.5
115,21,0,1,Practice,8,NA,14.298278814530931,15.17911206651479,"[95, 0, 159]",159,l,0.35786140093114227,colour,0.5
115,21,0,1,Practice,9,NA,15.68886447919067,16.515135498717427,"[2, 0, 252]",252,a,0.3027981964405626,colour,0.5
115,21,0,1,Practice,10,NA,17.032528522307985,17.883172696689144,"[91, 0, 163]",163,l,0.3278948462102562,colour,0.5
115,21,0,1,1,1,1,6.04518673021812,6.904002419789322,"[21, 0, 233]",233,a,0.3346237038495019,colour,0.5
115,21,0,1,1,2,2,7.421002385206521,8.256012451834977,"[85, 0, 169]",169,l,0.3116093174321577,colour,0.5
115,21,0,1,1,3,3,8.764789308188483,9.576006748946384,"[52, 0, 202]",202,a,0.28744529478717595,colour,0.5
115,21,0,1,1,4,4,10.092866898979992,10.824026885558851,"[94, 0, 160]",160,l,0.20794080023188144,colour,0.5
115,21,0,1,1,5,5,11.34288856049534,12.104033612413332,"[17, 0, 237]",237,a,0.23718425375409424,colour,0.5
115,21,0,1,1,6,6,12.62414102209732,13.384036794654094,"[43, 0, 211]",211,a,0.2369345553452149,colour,0.5
115,21,0,1,1,7,7,13.905368671286851,14.68796493508853,"[8, 0, 246]",246,a,0.259282554499805,colour,0.5
115,21,0,1,1,8,8,15.202272963593714,15.975983669632114,"[62, 0, 192]",192,a,0.250390695175156,colour,0.5
115,21,0,1,1,9,9,16.483503369730897,17.271972270100378,"[3, 0, 251]",251,a,0.265016557299532,colour,0.5
115,21,0,1,1,10,10,17.78035488666501,18.551988843129948,"[15, 0, 239]",239,a,0.24826865328941494,colour,0.5
115,21,0,1,1,11,11,19.06274635065347,19.87999278481584,"[29, 0, 225]",225,a,0.29397171561140567,colour,0.5
115,21,0,1,1,12,12,20.390907830675133,21.199969358858652,"[32, 0, 222]",222,a,0.28573639737442136,colour,0.5
115,21,0,1,1,13,13,21.719044498284347,22.455953453783877,"[97, 0, 157]",157,l,0.21357870462816209,colour,0.5
115,21,0,1,1,14,14,22.968968486064114,23.75995169871021,"[90, 0, 164]",164,l,0.2693862777668983,colour,0.5
115,21,0,1,1,15,15,24.27968692407012,25.103982806322165,"[73, 0, 181]",181,l,0.3009782345034182,colour,0.5
115,21,0,1,1,16,16,25.623439188697375,26.391964913113043,"[37, 0, 217]",217,a,0.24544595961924642,colour,0.5
115,21,0,1,1,17,17,26.90471252403222,27.65599173551891,"[30, 0, 224]",224,a,0.2279131206450984,colour,0.5
115,21,0,1,1,18,18,28.170327333267778,28.93600515788421,"[49, 0, 205]",205,a,0.2423003122676164,colour,0.5
115,21,0,1,1,19,19,29.439186645206064,30.151963479467668,"[64, 0, 190]",190,l,0.18953283573500812,colour,0.5
115,21,0,1,1,20,20,30.673527725157328,31.423939688014798,"[80, 0, 174]",174,l,0.22710337350144982,colour,0.5
115,21,0,1,1,21,21,31.939191765151918,32.65596613555681,"[79, 0, 175]",175,l,0.1935071349143982,colour,0.5
115,21,0,1,1,22,22,33.17354426672682,33.896009316900745,"[20, 0, 234]",234,a,0.1990950208855793,colour,0.5
115,21,0,1,1,23,23,34.407861322164536,35.13594852283131,"[23, 0, 231]",231,a,0.20471283909864724,colour,0.5
115,21,0,1,1,24,24,35.642268174444325,36.28796910995152,"[28, 0, 226]",226,a,0.12240022316109389,colour,0.5
115,21,0,1,1,25,25,36.79851945443079,37.48005643032957,"[92, 0, 162]",162,l,0.15817521733697504,colour,0.5
115,21,0,1,1,26,26,38.00165178987663,38.67994977685157,"[99, 0, 155]",155,l,0.15499294234905392,colour,0.5
115,21,0,1,1,27,27,39.19120353017934,39.89596008614171,"[36, 0, 218]",218,a,0.18144087749533355,colour,0.5
115,21,0,1,1,28,28,40.409929013228975,41.07996253739111,"[33, 0, 221]",221,a,0.14689231931697577,colour,0.5
115,21,0,1,1,29,29,41.59744378249161,42.31192833266687,"[35, 0, 219]",219,a,0.19109167787246406,colour,0.5
115,21,0,1,1,30,30,42.83182857942302,43.55196954472922,"[68, 0, 186]",186,l,0.19680323149077594,colour,0.5
115,21,0,1,1,31,31,44.06872611329891,44.81597785640042,"[44, 0, 210]",210,a,0.22396284609567374,colour,0.5
115,21,0,1,1,32,32,45.33438897167798,46.087956821895204,"[60, 0, 194]",194,l,0.23064404830802232,colour,0.5
115,21,0,1,1,33,33,46.59992698102724,47.30396319273859,"[41, 0, 213]",213,a,0.18059647176414728,colour,0.5
115,21,0,1,1,34,34,47.81870287633501,48.55995870917104,"[84, 0, 170]",170,l,0.2177900989772752,colour,0.5
115,21,0,1,1,35,35,49.068724144017324,49.7679369248217,"[98, 0, 156]",156,l,0.17579903465230018,colour,0.5
115,21,0,1,1,36,36,50.28754730091896,51.0079808938317,"[87, 0, 167]",167,l,0.19709782826248556,colour,0.5
115,21,0,1,1,37,37,51.52181630709674,52.23195831221528,"[25, 0, 229]",229,a,0.18674204347189516,colour,0.5
115,21,0,1,1,38,38,52.740596534800716,53.39201138692442,"[39, 0, 215]",215,a,0.12788452755194157,colour,0.5
115,21,0,1,1,39,39,53.91254493780434,54.528254900244065,"[5, 0, 249]",249,a,0.09237104700878263,colour,0.5
115,21,0,1,1,40,40,55.03584037267137,55.67994780756999,"[93, 0, 161]",161,l,0.12071928870864213,colour,0.5
115,21,0,1,1,41,41,56.19214797264431,56.863942775758915,"[74, 0, 180]",180,l,0.14850945072248578,colour,0.5
115,21,0,1,1,42,42,57.37965132039972,58.111965669319034,"[18, 0, 236]",236,a,0.20967411622405052,colour,0.5
115,21,0,1,1,43,43,58.629624144989066,59.25595770729706,"[69, 0, 185]",185,l,0.10317108978051692,colour,0.5
115,21,0,1,1,44,44,59.77024289267138,60.50392821920104,"[66, 0, 188]",188,l,0.21032593108247966,colour,0.5
115,21,0,1,1,45,45,61.02024092350621,61.743956040474586,"[7, 0, 247]",247,a,0.2004151922883466,colour,0.5
115,21,0,1,1,46,46,62.25461232964881,62.895967569202185,"[83, 0, 171]",171,l,0.11829241015948355,colour,0.5
115,21,0,1,1,47,47,63.41089157271199,64.18389768828638,"[71, 0, 183]",183,l,0.2496872863266617,colour,0.5
115,21,0,1,1,48,48,64.69217042194214,65.43999009090476,"[4, 0, 250]",250,a,0.22454416274558753,colour,0.5
115,21,0,1,1,49,49,65.95775608648546,66.48795501026325,"[91, 0, 163]",163,l,0.006860796012915671,colour,0.5
115,21,0,1,1,50,50,67.0046001203591,67.63993778813165,"[67, 0, 187]",187,l,0.11183570011053234,colour,0.5
115,21,0,1,2,1,51,74.38173082680441,75.207926621777,"[29, 0, 225]",225,a,0.3028639687690884,colour,0.5
115,21,0,1,2,2,52,75.72627196484245,76.335940724588,"[24, 0, 230]",230,a,0.08644760423339903,colour,0.5
115,21,0,1,2,3,53,76.85119870945346,77.5759457028471,"[41, 0, 213]",213,a,0.20119225035887212,colour,0.5
115,21,0,1,2,4,54,78.08582020783797,78.82396426401101,"[98, 0, 156]",156,l,0.2149666176410392,colour,0.5
115,21,0,1,2,5,55,79.33580169698689,80.09600939566735,"[58, 0, 196]",196,l,0.2410711192060262,colour,0.5
115,21,0,1,2,6,56,80.61275729956105,81.32794840936549,"[73, 0, 181]",181,l,0.191758852917701,colour,0.5
115,21,0,1,2,7,57,81.84714406565763,82.53595143719576,"[68, 0, 186]",186,l,0.16340470337308943,colour,0.5
115,21,0,1,2,8,58,83.05241419677623,83.83195264078677,"[30, 0, 224]",224,a,0.25636179314460605,colour,0.5
115,21,0,1,2,9,59,84.34924680914264,85.12792588141747,"[46, 0, 208]",208,a,0.25537993537727743,colour,0.5
115,21,0,1,2,10,60,85.64626177202445,86.32793304941151,"[78, 0, 176]",176,l,0.15857772785238922,colour,0.5
115,21,0,1,2,11,61,86.84926374442875,87.60000929480884,"[75, 0, 179]",179,l,0.2257016758667305,colour,0.5
115,21,0,1,2,12,62,88.11664140806533,88.82392015331425,"[72, 0, 182]",182,l,0.18377362680621445,colour,0.5
115,21,0,1,2,13,63,89.326178071904,90.03995803184807,"[13, 0, 241]",241,a,0.19058046594727784,colour,0.5
115,21,0,1,2,14,64,90.56053411809262,91.18396779289469,"[74, 0, 180]",180,l,0.10034327616449445,colour,0.5
115,21,0,1,2,15,65,91.70117413345724,92.41594619117677,"[70, 0, 184]",184,l,0.19153829908464104,colour,0.5
115,21,0,1,2,16,66,92.93546598276589,93.69597300421447,"[42, 0, 212]",212,a,0.23712635831907392,colour,0.5
115,21,0,1,2,17,67,94.21666606282815,94.82392803020775,"[81, 0, 173]",173,l,0.08390611654613167,colour,0.5
115,21,0,1,2,18,68,95.34179839503486,96.03992416104302,"[1, 0, 253]",253,a,0.17491997044999152,colour,0.5
115,21,0,1,2,19,69,96.56046204431914,97.19197231740691,"[77, 0, 177]",177,l,0.10836946219205856,colour,0.5
115,21,0,1,2,20,70,97.7011757089058,98.25593565194868,"[85, 0, 169]",169,l,0.031549027538858354,colour,0.5
115,21,0,1,2,21,71,98.76355814584531,99.46393237821758,"[26, 0, 228]",228,a,0.1769569416064769,colour,0.5
115,21,0,1,2,22,72,99.98232498276047,100.5599193245871,"[5, 0, 249]",249,a,0.054264090955257416,colour,0.5
115,21,0,1,2,23,73,101.07605597970542,101.61591476236936,"[57, 0, 197]",197,l,0.016442673397250473,colour,0.5
115,21,0,1,2,24,74,102.12294136744458,102.7679258971475,"[95, 0, 159]",159,l,0.12160268507432193,colour,0.5
115,21,0,1,2,25,75,103.28205669496674,104.6798934568651,"[64, 0, 190]",190,l,0.8745541664538905,colour,0.5
115,21,0,1,2,26,76,105.18832294107415,105.8720213433262,"[3, 0, 251]",251,a,0.16040084057021886,colour,0.5
115,21,0,1,2,27,77,106.39138950419147,107.95194016385358,"[23, 0, 231]",231,a,1.0373968518106267,colour,0.5
115,21,0,1,2,28,78,108.46951829490718,109.21589254937135,"[9, 0, 245]",245,a,0.22299398516770452,colour,0.5
115,21,0,1,2,29,79,109.73517642728984,110.51190084218979,"[11, 0, 243]",243,a,0.25349183788057417,colour,0.5
115,21,0,1,2,30,80,111.03337962343358,111.76793771248776,"[56, 0, 198]",198,l,0.2110986567568034,colour,0.5
115,21,0,1,2,31,81,112.2833855310455,112.95195355452597,"[8, 0, 246]",246,a,0.1451901172986254,colour,0.5
115,21,0,1,2,32,82,113.47109525406267,114.1439384749392,"[92, 0, 162]",162,l,0.14789859566371888,colour,0.5
115,21,0,1,2,33,83,114.6603949329583,115.37589954410214,"[76, 0, 178]",178,l,0.19259144319221377,colour,0.5
115,21,0,1,2,34,84,115.89467102836352,116.51189257146325,"[94, 0, 160]",160,l,0.0938696307130158,colour,0.5
115,21,0,1,2,35,85,117.01968205603771,117.70388379343785,"[96, 0, 158]",158,l,0.16087227419484407,colour,0.5
115,21,0,1,2,36,86,118.22282541915774,118.9440439469181,"[16, 0, 238]",238,a,0.1979587753303349,colour,0.5
115,21,0,1,2,37,87,119.4574075328419,120.207902203314,"[38, 0, 216]",216,a,0.22738497331738472,colour,0.5
115,21,0,1,2,38,88,120.72279076068662,121.34391649835743,"[83, 0, 171]",171,l,0.09783762833103538,colour,0.5
115,21,0,1,2,39,89,121.86340123764239,122.55991302314214,"[66, 0, 188]",188,l,0.1732740884181112,colour,0.5
115,21,0,1,2,40,90,123.06646504381206,123.72796707763337,"[25, 0, 229]",229,a,0.13811743224505335,colour,0.5
115,21,0,1,2,41,91,124.23843038221821,124.97596003883518,"[12, 0, 242]",242,a,0.21418680273927748,colour,0.5
115,21,0,1,2,42,92,125.4759458603803,126.1759924129583,"[89, 0, 165]",165,l,0.1769348862580955,colour,0.5
115,21,0,1,2,43,93,126.69478910346515,127.3759503501933,"[55, 0, 199]",199,l,0.1579971988685429,colour,0.5
115,21,0,1,2,44,94,127.88218650652561,128.61592382076196,"[2, 0, 252]",252,a,0.2103905217954889,colour,0.5
115,21,0,1,2,45,95,129.13221250043716,129.75191172817722,"[17, 0, 237]",237,a,0.09637055231723934,colour,0.5
115,21,0,1,2,46,96,130.27279855881352,130.91191005823202,"[79, 0, 175]",175,l,0.11579424550291151,colour,0.5
115,21,0,1,2,47,97,131.42906362342183,131.98394368949812,"[43, 0, 211]",211,a,0.03216421487741172,colour,0.5
115,21,0,1,2,48,98,132.49158745119348,133.47991503961384,"[33, 0, 221]",221,a,0.4652005621464923,colour,0.5
115,21,0,1,2,49,99,133.9914988358505,134.71191116096452,"[44, 0, 210]",210,a,0.19705017283558846,colour,0.5
115,21,0,1,2,50,100,135.22591198969167,136.4239207834471,"[47, 0, 207]",207,a,0.6748455336783081,colour,0.5
115,21,0,1,3,1,101,149.4282298516482,152.02391314285342,"[25, 0, 229]",229,a,2.0722486712038517,colour,0.5
115,21,0,1,3,2,102,152.53840037120972,153.2478783520637,"[79, 0, 175]",175,l,0.18614261003676802,colour,0.5
115,21,0,1,3,3,103,153.7472993985284,154.3279342309106,"[32, 0, 222]",222,a,0.057276618434116244,colour,0.5
115,21,0,1,3,4,104,154.84099022322334,155.4478760677157,"[16, 0, 238]",238,a,0.08354771672748029,colour,0.5
115,21,0,1,3,5,105,155.96609380468726,156.6319651651429,"[99, 0, 155]",155,l,0.14262421114835888,colour,0.5
115,21,0,1,3,6,106,157.1535231093876,157.82392054714728,"[65, 0, 189]",189,l,0.14713965461123735,colour,0.5
115,21,0,1,3,7,107,158.34105284465477,158.98397519718856,"[59, 0, 195]",195,l,0.11951963405590504,colour,0.5
115,21,0,1,3,8,108,159.49720960168634,160.11188690003473,"[80, 0, 174]",174,l,0.09125449368730187,colour,0.5
115,21,0,1,3,9,109,160.62226158939302,161.3038911189651,"[61, 0, 193]",193,l,0.1585970262531191,colour,0.5
115,21,0,1,3,10,110,161.8254277954111,162.55184390791692,"[51, 0, 203]",203,a,0.20317565847653896,colour,0.5
115,21,0,1,3,11,111,163.0627278399188,163.80788629199378,"[53, 0, 201]",201,a,0.2180035635828972,colour,0.5
115,21,0,1,3,12,112,164.31650048994925,165.49589061166625,"[41, 0, 213]",213,a,0.6559602278284729,colour,0.5
115,21,0,1,3,13,113,166.00405149301514,166.57589962286875,"[56, 0, 198]",198,a,0.04855411278549582,colour,0.5
115,21,0,1,3,14,114,167.08215468376875,167.73588022985496,"[36, 0, 218]",218,a,0.13038781215436757,colour,0.5
115,21,0,1,3,15,115,168.25403573922813,168.95195552380756,"[17, 0, 237]",237,a,0.17459071532357484,colour,0.5
115,21,0,1,3,16,116,169.47285692684818,170.17592270229943,"[58, 0, 196]",196,a,0.17979814612772316,colour,0.5
115,21,0,1,3,17,117,170.69340237195138,171.3598924643593,"[27, 0, 227]",227,a,0.14343592757359147,colour,0.5
115,21,0,1,3,18,118,171.88088996580336,172.41652041859925,"[67, 0, 187]",187,l,0.012817715527489781,colour,0.5
115,21,0,1,3,19,119,172.92786475643516,173.5198431391036,"[60, 0, 194]",194,l,0.06870917789638042,colour,0.5
115,21,0,1,3,20,120,174.0369352643611,174.71188949944917,"[85, 0, 169]",169,l,0.16069701279047877,colour,0.5
115,21,0,1,3,21,121,175.2309181651799,175.783895561588,"[1, 0, 253]",253,a,0.028203700319863856,colour,0.5
115,21,0,1,3,22,122,176.29479130893014,176.94384190393612,"[88, 0, 166]",166,l,0.1256486641941592,colour,0.5
115,21,0,1,3,23,123,177.45109497045632,177.99989405542146,"[21, 0, 233]",233,a,0.025550360209308565,colour,0.5
115,21,0,1,3,24,124,178.51351561048068,179.15993767790496,"[10, 0, 244]",244,a,0.12307291198521852,colour,0.5
115,21,0,1,3,25,125,179.66977713047527,180.32785231096204,"[0, 0, 254]",254,a,0.1346385912038386,colour,0.5
115,21,0,1,3,26,126,180.84170899202581,181.44799776608124,"[45, 0, 209]",209,a,0.08298333559650928,colour,0.5
115,21,0,1,3,27,127,181.96715521940496,182.59987617481966,"[48, 0, 206]",206,a,0.10936234763357788,colour,0.5
115,21,0,1,3,28,128,183.1077475794591,183.79988688742742,"[81, 0, 173]",173,l,0.16882756794802845,colour,0.5
115,21,0,1,3,29,129,184.3108417118201,185.07186112680938,"[12, 0, 242]",242,a,0.2375674657523632,colour,0.5
115,21,0,1,3,30,130,185.592075662571,186.2479082843056,"[54, 0, 200]",200,a,0.13245432171970606,colour,0.5
115,21,0,1,3,31,131,186.764046120923,187.43987666326575,"[90, 0, 164]",164,l,0.1525337683269754,colour,0.5
115,21,0,1,3,32,132,187.95160657633096,188.65587948949542,"[20, 0, 234]",234,a,0.18103088380303234,colour,0.5
115,21,0,1,3,33,133,189.17024698865134,189.84787661908194,"[47, 0, 207]",207,a,0.16121255699545145,colour,0.5
115,21,0,1,3,34,134,190.36639919283334,191.02385445975233,"[40, 0, 214]",214,a,0.1341884252615273,colour,0.5
115,21,0,1,3,35,135,191.53827079583425,192.29585863137618,"[66, 0, 188]",188,l,0.23434816917870194,colour,0.5
115,21,0,1,3,36,136,192.80382180202287,193.7678813925013,"[68, 0, 186]",186,l,0.4406745949527249,colour,0.5
115,21,0,1,3,37,137,194.28827512823045,194.95187636080664,"[44, 0, 210]",210,a,0.14061756618320942,colour,0.5
115,21,0,1,3,38,138,195.46011994977016,196.03987335495185,"[35, 0, 219]",219,a,0.05664685880765319,colour,0.5
115,21,0,1,3,39,139,196.55384306970518,197.07992590975482,"[8, 0, 246]",246,a,0.0018183866050094366,colour,0.5
115,21,0,1,3,40,140,197.60169968148693,198.68789049831685,"[38, 0, 216]",216,a,0.5627873106859624,colour,0.5
115,21,0,1,3,41,141,199.19551929377485,199.87186104804277,"[93, 0, 161]",161,l,0.15307176182977855,colour,0.5
115,21,0,1,3,42,142,200.3828576200176,201.023866275209,"[69, 0, 185]",185,l,0.1175645828479901,colour,0.5
115,21,0,1,3,43,143,201.53918727533892,202.23190238606185,"[24, 0, 230]",230,a,0.16930451535154134,colour,0.5
115,21,0,1,3,44,144,202.74237671832088,203.33591748774052,"[82, 0, 172]",172,l,0.07035939232446253,colour,0.5
115,21,0,1,3,45,145,203.85169416759163,204.5758878075285,"[9, 0, 245]",245,a,0.20079525373876095,colour,0.5
115,21,0,1,3,46,146,205.08602658309974,205.75986623414792,"[19, 0, 235]",235,a,0.150570840225555,colour,0.5
115,21,0,1,3,47,147,206.2735539553687,206.93583265331108,"[39, 0, 215]",215,a,0.13888543180655688,colour,0.5
115,21,0,1,3,48,148,207.44550747831818,208.07989440206438,"[64, 0, 190]",190,l,0.1111823096871376,colour,0.5
115,21,0,1,3,49,149,208.5861262261169,209.30384149437305,"[70, 0, 184]",184,l,0.19444054970517755,colour,0.5
115,21,0,1,3,50,150,209.82043028459884,210.51984786521643,"[97, 0, 157]",157,l,0.17606054828502238,colour,0.5
115,21,0,1,4,1,151,221.18215334473643,221.88788270007353,"[36, 0, 218]",218,a,0.18152516044210643,colour,0.5
115,21,0,1,4,2,152,222.40179963957053,222.94382457470056,"[88, 0, 166]",166,l,0.01875139807816595,colour,0.5
115,21,0,1,4,3,153,223.4642001935281,224.43984870018903,"[50, 0, 204]",204,a,0.45221270516049117,colour,0.5
115,21,0,1,4,4,154,224.94866139651276,225.57603983208537,"[78, 0, 176]",176,l,0.10399934789165854,colour,0.5
115,21,0,1,4,5,155,226.08929353498388,226.7358562053414,"[24, 0, 230]",230,a,0.12326865340583026,colour,0.5
115,21,0,1,4,6,156,227.24553181801457,228.2718635686906,"[14, 0, 240]",240,a,0.5030605767387897,colour,0.5
115,21,0,1,4,7,157,228.79235655348748,229.5358439172851,"[68, 0, 186]",186,l,0.2202520298305899,colour,0.5
115,21,0,1,4,8,158,230.04244201804977,230.7678502787603,"[91, 0, 163]",163,l,0.20222373283468187,colour,0.5
115,21,0,1,4,9,159,231.2767370180227,232.01589168293867,"[17, 0, 237]",237,a,0.21609734930098057,colour,0.5
115,21,0,1,4,10,160,232.52670984272845,233.2798424931243,"[57, 0, 197]",197,a,0.22995284874923527,colour,0.5
115,21,0,1,4,11,161,233.79240657191258,234.45582545385696,"[62, 0, 192]",192,a,0.1405695170396939,colour,0.5
115,21,0,1,4,12,162,234.96425533189904,235.63982554199174,"[45, 0, 209]",209,a,0.15274093125481158,colour,0.5
115,21,0,1,4,13,163,236.1472192115616,236.85586302669253,"[46, 0, 208]",208,a,0.18528323818463832,colour,0.5
115,21,0,1,4,14,164,237.3660419745138,237.99184423871338,"[56, 0, 198]",198,a,0.10251848713960499,colour,0.5
115,21,0,1,4,15,165,238.50656895618886,239.13582209823653,"[67, 0, 187]",187,a,0.10588547587394714,colour,0.5
115,21,0,1,4,16,166,239.64718573458958,240.85584766673855,"[58, 0, 196]",196,a,0.6852907213615254,colour,0.5
115,21,0,1,4,17,167,241.36598250386305,242.13584454741795,"[37, 0, 217]",217,a,0.24659008195158094,colour,0.5
115,21,0,1,4,18,168,242.63482960651163,243.31982061103918,"[30, 0, 224]",224,a,0.1651041485602036,colour,0.5
115,21,0,1,4,19,169,243.83481393149123,244.5758102198597,"[29, 0, 225]",225,a,0.21768612368032336,colour,0.5
115,21,0,1,4,20,170,245.08480841759592,245.71983731014188,"[41, 0, 213]",213,a,0.1094789260532707,colour,0.5
115,21,0,1,4,21,171,246.22767602547538,246.8078685689252,"[99, 0, 155]",155,l,0.05714980012271553,colour,0.5
115,21,0,1,4,22,172,247.3090658604633,247.90385118301492,"[8, 0, 246]",246,a,0.07137472706381232,colour,0.5
115,21,0,1,4,23,173,248.41850697738118,249.03200667654164,"[60, 0, 194]",194,a,0.09003711608238518,colour,0.5
115,21,0,1,4,24,174,249.54348098358605,250.1758258161135,"[28, 0, 226]",226,a,0.10918157233390957,colour,0.5
115,21,0,1,4,25,175,250.68412375589833,251.32785782485735,"[73, 0, 181]",181,l,0.12042823655065149,colour,0.5
115,21,0,1,4,26,176,251.82804017548915,252.4238597373478,"[71, 0, 183]",183,l,0.07260785868857056,colour,0.5
115,21,0,1,4,27,177,252.93757935997564,253.57581415830646,"[7, 0, 247]",247,a,0.1275233707856387,colour,0.5
115,21,0,1,4,28,178,254.09681638586335,254.7358294237638,"[44, 0, 210]",210,a,0.11557014705613256,colour,0.5
115,21,0,1,4,29,179,255.2562972024316,255.82385792559944,"[49, 0, 205]",205,a,0.043871678644791245,colour,0.5
115,21,0,1,4,30,180,256.3348194452701,257.03986114566214,"[43, 0, 211]",211,a,0.18164843413978815,colour,0.5
115,21,0,1,4,31,181,257.541079704999,258.1038311755983,"[10, 0, 244]",244,a,0.040024197893217206,colour,0.5
115,21,0,1,4,32,182,258.61930026183836,259.31188461580314,"[69, 0, 185]",185,l,0.16956760443281382,colour,0.5
115,21,0,1,4,33,183,259.82243889872916,260.5758614197839,"[40, 0, 214]",214,a,0.23003555636387318,colour,0.5
115,21,0,1,4,34,184,261.0880434679566,261.81584040424787,"[93, 0, 161]",161,l,0.20444305462297052,colour,0.5
115,21,0,1,4,35,185,262.3224412618438,262.93580784101505,"[12, 0, 242]",242,a,0.0900402667466551,colour,0.5
115,21,0,1,4,36,186,263.44828645524103,264.1678413777845,"[84, 0, 170]",170,l,0.1961029734229669,colour,0.5
115,21,0,1,4,37,187,264.6826716460055,265.32785349246114,"[32, 0, 222]",222,a,0.12173856189474463,colour,0.5
115,21,0,1,4,38,188,265.8389012644766,266.47194753657095,"[5, 0, 249]",249,a,0.10885349870659411,colour,0.5
115,21,0,1,4,39,189,266.98036875005346,268.17582384694833,"[86, 0, 168]",168,l,0.6721508398186415,colour,0.5
115,21,0,1,4,40,190,268.68347745470237,269.3438306399621,"[25, 0, 229]",229,a,0.13691698980983347,colour,0.5
115,21,0,1,4,41,191,269.84302522509824,270.5438208725536,"[87, 0, 167]",167,l,0.17755164892878383,colour,0.5
115,21,0,1,4,42,192,271.061696357443,271.7838455431629,"[90, 0, 164]",164,l,0.19883035647217184,colour,0.5
115,21,0,1,4,43,193,272.29608509282116,273.07984517130535,"[22, 0, 232]",232,a,0.26038768619764596,colour,0.5
115,21,0,1,4,44,194,273.5929905666271,274.16780396248214,"[3, 0, 251]",251,a,0.051711969543248415,colour,0.5
115,21,0,1,4,45,195,274.6867487389827,275.3278085940983,"[59, 0, 195]",195,l,0.11779616423882544,colour,0.5
115,21,0,1,4,46,196,275.84295551432297,276.4558179707965,"[52, 0, 202]",202,a,0.08962397172581404,colour,0.5
115,21,0,1,4,47,197,276.96789525588974,277.7198377039749,"[83, 0, 171]",171,l,0.22860628948546946,colour,0.5
115,21,0,1,4,48,198,278.2335431482643,279.2478224259103,"[53, 0, 201]",201,l,0.4910096791572869,colour,0.5
115,21,0,1,4,49,199,279.76479088363703,280.47992961190175,"[81, 0, 173]",173,l,0.19169229292310774,colour,0.5
115,21,0,1,4,50,200,280.99911817896646,281.70378611958586,"[38, 0, 216]",216,a,0.18121874833013862,colour,0.5
115,21,0,1,5,1,201,297.1421500206925,297.80779176892247,"[8, 0, 246]",246,a,0.14151435333769768,colour,0.5
115,21,0,1,5,2,202,298.31545679830015,298.879816735629,"[84, 0, 170]",170,l,0.0410982157336548,colour,0.5
115,21,0,1,5,3,203,299.3934871276142,299.96781766822096,"[4, 0, 250]",250,a,0.051190123544074595,colour,0.5
115,21,0,1,5,4,204,300.4871755891945,301.07979278976563,"[73, 0, 181]",181,l,0.06919912213925272,colour,0.5
115,21,0,1,5,5,205,301.59660410298966,302.24781573051587,"[69, 0, 185]",185,l,0.1278372659580782,colour,0.5
115,21,0,1,5,6,206,302.76845010602847,303.4718045705231,"[91, 0, 163]",163,l,0.17995253368280828,colour,0.5
115,21,0,1,5,7,207,303.9872208813904,304.58378953824285,"[72, 0, 182]",182,l,0.07317814754787832,colour,0.5
115,21,0,1,5,8,208,305.0966533337487,305.759820548119,"[41, 0, 213]",213,a,0.13983696361538023,colour,0.5
115,21,0,1,5,9,209,306.26850760751404,306.92780252883676,"[78, 0, 176]",176,l,0.13599027041345835,colour,0.5
115,21,0,1,5,10,210,307.4403807859635,308.00781469081994,"[90, 0, 164]",164,l,0.04401425097603351,colour,0.5
115,21,0,1,5,11,211,308.5184658599319,309.23188860144,"[53, 0, 201]",201,a,0.19005704461596906,colour,0.5
115,21,0,1,5,12,212,309.7528538075276,310.41584812360816,"[48, 0, 206]",206,a,0.1396038067759946,colour,0.5
115,21,0,1,5,13,213,310.9247766105691,311.5759248289978,"[13, 0, 241]",241,a,0.12785380752757192,colour,0.5
115,21,0,1,5,14,214,312.0974717455683,312.7117772534257,"[92, 0, 162]",162,l,0.09180193964857608,colour,0.5
115,21,0,1,5,15,215,313.2216056783218,313.84781124070287,"[47, 0, 207]",207,a,0.10280363156925887,colour,0.5
115,21,0,1,5,16,216,314.36218504142016,315.00781154003926,"[1, 0, 253]",253,a,0.12228915852028877,colour,0.5
115,21,0,1,5,17,217,315.5185328136431,316.1038110894151,"[17, 0, 237]",237,a,0.0619157295441255,colour,0.5
115,21,0,1,5,18,218,316.61229610594455,317.24773971829563,"[29, 0, 225]",225,a,0.11215629067737609,colour,0.5
115,21,0,1,5,19,219,317.7684993367875,318.3677804104518,"[98, 0, 156]",156,l,0.07597445358987898,colour,0.5
115,21,0,1,5,20,220,318.87778015842196,319.55179782793857,"[0, 0, 254]",254,a,0.1505294864764437,colour,0.5
115,21,0,1,5,21,221,320.06540559825953,320.6478095866041,"[71, 0, 183]",183,l,0.059020174434408545,colour,0.5
115,21,0,1,5,22,222,321.1591058752965,321.83981656236574,"[59, 0, 195]",195,l,0.15754112543072551,colour,0.5
115,21,0,1,5,23,223,322.3466490013525,322.9757749312557,"[36, 0, 218]",218,a,0.10587208508513868,colour,0.5
115,21,0,1,5,24,224,323.4871866168687,324.10381936025806,"[45, 0, 209]",209,a,0.09324971726164222,colour,0.5
115,21,0,1,5,25,225,324.61218937369995,325.2317873830907,"[65, 0, 189]",189,l,0.09620986320078373,colour,0.5
115,21,0,1,5,26,226,325.75283884140663,326.3838000933174,"[77, 0, 177]",177,l,0.10772355482913554,colour,0.5
115,21,0,1,5,27,227,326.8934315952938,327.63180329452734,"[96, 0, 158]",158,l,0.21523955289740115,colour,0.5
115,21,0,1,5,28,228,328.1434835830005,328.7998254474951,"[7, 0, 247]",247,a,0.13327509665396065,colour,0.5
115,21,0,1,5,29,229,329.31546113057993,329.91180135670584,"[66, 0, 188]",188,l,0.07309425831772387,colour,0.5
115,21,0,1,5,30,230,330.42470256763045,330.97575642052107,"[26, 0, 228]",228,a,0.027712968294508755,colour,0.5
115,21,0,1,5,31,231,331.4872067029355,332.1117884386331,"[25, 0, 229]",229,a,0.10124754637945443,colour,0.5
115,21,0,1,5,32,232,332.6278821644373,333.2157866049092,"[42, 0, 212]",212,a,0.06491841096431017,colour,0.5
115,21,0,1,5,33,233,333.7215269091539,334.2797999577597,"[70, 0, 184]",184,l,0.034956582356244326,colour,0.5
115,21,0,1,5,34,234,334.7996564876521,335.3517682106467,"[82, 0, 172]",172,l,0.028701127623207867,colour,0.5
115,21,0,1,5,35,235,335.86295894871,336.5277897681808,"[39, 0, 215]",215,a,0.14021978178061545,colour,0.5
115,21,0,1,5,36,236,337.0360947971931,337.5998198549496,"[58, 0, 196]",196,a,0.04037353931926191,colour,0.5
115,21,0,1,5,37,237,338.1153172980994,338.7997963029193,"[31, 0, 223]",223,a,0.16138466773554683,colour,0.5
115,21,0,1,5,38,238,339.318177879788,339.9918422694318,"[88, 0, 166]",166,l,0.150317597319372,colour,0.5
115,21,0,1,5,39,239,340.50565641513094,341.03181920584757,"[99, 0, 155]",155,l,0.002808515215292573,colour,0.5
115,21,0,1,5,40,240,341.5525461351499,342.2958030991722,"[16, 0, 238]",238,a,0.21902323060203344,colour,0.5
115,21,0,1,5,41,241,342.80420816491824,343.5197407391388,"[76, 0, 178]",178,l,0.19223186187446117,colour,0.5
115,21,0,1,5,42,242,344.0385382173117,345.1518228765344,"[2, 0, 252]",252,a,0.5899339284515008,colour,0.5
115,21,0,1,5,43,243,345.66354648803826,346.31177276349626,"[49, 0, 205]",205,a,0.12489563075359911,colour,0.5
115,21,0,1,5,44,244,346.81982376181986,347.47178290900774,"[33, 0, 221]",221,a,0.12888056389056146,colour,0.5
115,21,0,1,5,45,245,347.9917036356637,348.6077810563147,"[28, 0, 226]",226,a,0.09279955131933093,colour,0.5
115,21,0,1,5,46,246,349.118664988433,349.75991231412627,"[6, 0, 248]",248,a,0.11790013953577727,colour,0.5
115,21,0,1,5,47,247,350.2749576221686,350.91174897528253,"[79, 0, 175]",175,l,0.11344022839330137,colour,0.5
115,21,0,1,5,48,248,351.4310730253346,352.15175671037287,"[62, 0, 192]",192,l,0.19719983427785337,colour,0.5
115,21,0,1,5,49,249,352.6655732191866,353.4557978846133,"[75, 0, 179]",179,l,0.2669274976942688,colour,0.5
115,21,0,1,5,50,250,353.9623577822931,354.59988917177543,"[37, 0, 217]",217,a,0.11414993868675083,colour,0.5
115,21,0,1,6,1,251,373.2935479374137,373.87982500635553,"[52, 0, 202]",202,a,0.0623422646895051,colour,0.5
115,21,0,1,6,2,252,374.38813200453296,375.0637356915977,"[0, 0, 254]",254,a,0.1523116392781958,colour,0.5
115,21,0,1,6,3,253,375.57555618928745,376.20774387731217,"[86, 0, 168]",168,l,0.10895353567320853,colour,0.5
115,21,0,1,6,4,254,376.7161197984824,377.3677658381639,"[4, 0, 250]",250,a,0.1285792717244476,colour,0.5
115,21,0,1,6,5,255,377.88808080460876,378.4637590860948,"[80, 0, 174]",174,l,0.05241104599554092,colour,0.5
115,21,0,1,6,6,256,378.9815959739499,379.7757776094368,"[23, 0, 231]",231,a,0.270620197057724,colour,0.5
115,21,0,1,6,7,257,380.29424346925225,380.9517562377732,"[99, 0, 155]",155,l,0.13424277608282864,colour,0.5
115,21,0,1,6,8,258,381.4660634784959,382.10371932340786,"[7, 0, 247]",247,a,0.11422988947015256,colour,0.5
115,21,0,1,6,9,259,382.62236083846074,383.3038143189624,"[75, 0, 179]",179,l,0.15820554341189563,colour,0.5
115,21,0,1,6,10,260,383.8101162476232,384.5037809208734,"[50, 0, 204]",204,a,0.17049589927773923,colour,0.5
115,21,0,1,6,11,261,385.01323952456005,385.6637745248154,"[88, 0, 166]",166,l,0.12722641101572663,colour,0.5
115,21,0,1,6,12,262,386.1851012815023,387.01576053223107,"[78, 0, 176]",176,a,0.30734435992781073,colour,0.5
115,21,0,1,6,13,263,387.5288535460131,388.5118299499154,"[21, 0, 233]",233,a,0.4596650575986132,colour,0.5
115,21,0,1,6,14,264,389.02883818605915,389.79977503523696,"[51, 0, 203]",203,a,0.24771372438408434,colour,0.5
115,21,0,1,6,15,265,390.31012451834977,390.847748619155,"[38, 0, 216]",216,a,0.014831843553110957,colour,0.5
115,21,0,1,6,16,266,391.3569827306783,391.97571191587485,"[41, 0, 213]",213,a,0.09548203588929027,colour,0.5
115,21,0,1,6,17,267,392.48198351834435,393.0237307921052,"[12, 0, 242]",242,a,0.01842450594995171,colour,0.5
115,21,0,1,6,18,268,393.544409672264,394.1597982563544,"[54, 0, 200]",200,a,0.09202997630927712,colour,0.5
115,21,0,1,6,19,269,394.6694104599301,395.2397836368764,"[28, 0, 226]",226,a,0.04719337518326938,colour,0.5
115,21,0,1,6,20,270,395.74754633998964,396.4157618713798,"[98, 0, 156]",156,l,0.14489079441409558,colour,0.5
115,21,0,1,6,21,271,396.9350902537117,397.61574777169153,"[72, 0, 182]",182,l,0.15732963022310287,colour,0.5
115,21,0,1,6,22,272,398.1225313737523,398.8317403579131,"[39, 0, 215]",215,a,0.18591929937247187,colour,0.5
115,21,0,1,6,23,273,399.3412899399409,400.09581956185866,"[58, 0, 196]",196,a,0.23124545102473348,colour,0.5
115,21,0,1,6,24,274,400.60698706295807,401.191795480554,"[46, 0, 208]",208,a,0.06155181594658643,colour,0.5
115,21,0,1,6,25,275,401.7006644968642,402.39176917169243,"[34, 0, 220]",220,a,0.16778033168520778,colour,0.5
115,21,0,1,6,26,276,402.9045136318309,403.6077688471414,"[15, 0, 239]",239,a,0.1799359922297299,colour,0.5
115,21,0,1,6,27,277,404.123182007228,404.8077307228232,"[33, 0, 221]",221,a,0.16114363400265574,colour,0.5
115,21,0,1,6,28,278,405.3263135548914,406.00775679550134,"[11, 0, 243]",243,a,0.15824965422507375,colour,0.5
115,21,0,1,6,29,279,406.5138106010854,407.0637794084614,"[19, 0, 235]",235,a,0.026640919619239867,colour,0.5
115,21,0,1,6,30,280,407.57629858877044,408.1837744145887,"[16, 0, 238]",238,a,0.08424049185123295,colour,0.5
115,21,0,1,6,31,281,408.7013545149239,409.2957389022922,"[82, 0, 172]",172,l,0.07120616105385125,colour,0.5
115,21,0,1,6,32,282,409.8110319393454,410.43170436040964,"[43, 0, 211]",211,a,0.0956151558784768,colour,0.5
115,21,0,1,6,33,283,410.9378066090867,411.59979504265357,"[18, 0, 236]",236,a,0.1386699981521815,colour,0.5
115,21,0,1,6,34,284,412.10967742442153,412.70374358422123,"[20, 0, 234]",234,a,0.07093243801500648,colour,0.5
115,21,0,1,6,35,285,413.22057616512757,413.8797537202481,"[63, 0, 191]",191,l,0.1358394273556769,colour,0.5
115,21,0,1,6,36,286,414.3923969620373,415.0238241336774,"[59, 0, 195]",195,l,0.1084249943960458,colour,0.5
115,21,0,1,6,37,287,415.5364539846778,416.22375489550177,"[53, 0, 201]",201,a,0.16393245698418468,colour,0.5
115,21,0,1,6,38,288,416.74167055264115,417.2717465964379,"[64, 0, 190]",190,a,0.006685140659101307,colour,0.5
115,21,0,1,6,39,289,417.7885547587648,418.3597156275064,"[60, 0, 194]",194,a,0.047842827159911394,colour,0.5
115,21,0,1,6,40,290,418.8666323495563,419.567733621574,"[77, 0, 177]",177,l,0.17767374124377966,colour,0.5
115,21,0,1,6,41,291,420.08545117417816,421.02379695826676,"[13, 0, 241]",241,a,0.41508051787968725,colour,0.5
115,21,0,1,6,42,292,421.5385405803099,422.26375113031827,"[47, 0, 207]",207,a,0.21445619326550514,colour,0.5
115,21,0,1,6,43,293,422.7661787966499,423.39973825006746,"[85, 0, 169]",169,l,0.11023983650375158,colour,0.5
115,21,0,1,6,44,294,423.9067695812555,424.5437440726673,"[2, 0, 252]",252,a,0.11362888058647513,colour,0.5
115,21,0,1,6,45,295,425.06308860273566,425.69572251825593,"[48, 0, 206]",206,a,0.10929815087001771,colour,0.5
115,21,0,1,6,46,296,426.20375933812466,426.89570290467236,"[69, 0, 185]",185,l,0.16866924182977527,colour,0.5
115,21,0,1,6,47,297,427.4069117596373,428.5197241975693,"[92, 0, 162]",162,l,0.5895877378061414,colour,0.5
115,21,0,1,6,48,298,429.0318707996048,429.76774433418177,"[74, 0, 180]",180,l,0.21246215142309666,colour,0.5
115,21,0,1,6,49,299,430.2819251504261,431.26378736423794,"[17, 0, 237]",237,a,0.45852132921572775,colour,0.5
115,21,0,1,6,50,300,431.78192475659307,432.51177244842984,"[70, 0, 184]",184,l,0.20653280103579164,colour,0.5
115,21,0,1,7,1,301,456.7497632986633,457.55175214179326,"[56, 0, 198]",198,l,0.2779264327837154,colour,0.5
115,21,0,1,7,2,302,458.0652496353723,458.8237338641193,"[33, 0, 221]",221,a,0.23523077787831426,colour,0.5
115,21,0,1,7,3,303,459.3307246292243,459.93570662266575,"[91, 0, 163]",163,l,0.08152610575780272,colour,0.5
115,21,0,1,7,4,304,460.45580182306,461.19976849737577,"[28, 0, 226]",226,a,0.22068250342272222,colour,0.5
115,21,0,1,7,5,305,461.7089770088205,462.38369060412515,"[16, 0, 238]",238,a,0.15138728288002312,colour,0.5
115,21,0,1,7,6,306,462.8964126150822,463.4877234288724,"[4, 0, 250]",250,a,0.06841064267791808,colour,0.5
115,21,0,1,7,7,307,463.99336645321455,464.60769244097173,"[46, 0, 208]",208,a,0.09113752155099064,colour,0.5
115,21,0,1,7,8,308,465.11840308085084,465.71169809030835,"[15, 0, 239]",239,a,0.06996830319985747,colour,0.5
115,21,0,1,7,9,309,466.2277284070151,466.8397472454235,"[95, 0, 159]",159,l,0.08859012613538653,colour,0.5
115,21,0,1,7,10,310,467.35284459160175,468.0157097261399,"[80, 0, 174]",174,l,0.13959868671372533,colour,0.5
115,21,0,1,7,11,311,468.524568896275,469.1837102177087,"[55, 0, 199]",199,a,0.13571300299372524,colour,0.5
115,21,0,1,7,12,312,469.69649288081564,470.28771389776375,"[60, 0, 194]",194,a,0.06788407068233937,colour,0.5
115,21,0,1,7,13,313,470.80680242797825,471.4077388360165,"[70, 0, 184]",184,a,0.0775360525585711,colour,0.5
115,21,0,1,7,14,314,471.91626048029866,472.5916766966693,"[18, 0, 236]",236,a,0.15214898088015616,colour,0.5
115,21,0,1,7,15,315,473.10378706490155,473.70370065502357,"[6, 0, 248]",248,a,0.07662193616852164,colour,0.5
115,21,0,1,7,16,316,474.2131521694828,474.83167340408545,"[21, 0, 233]",233,a,0.09518389450386167,colour,0.5
115,21,0,1,7,17,317,475.3379635172896,475.97571861126926,"[62, 0, 192]",192,l,0.11742082901764661,colour,0.5
115,21,0,1,7,18,318,476.49114910059143,477.423741977429,"[37, 0, 217]",217,a,0.4169276552274823,colour,0.5
115,21,0,1,7,19,319,477.9365750529105,478.6476717405021,"[81, 0, 173]",173,l,0.18780975986737758,colour,0.5
115,21,0,1,7,20,320,479.1553714282345,479.927700522705,"[63, 0, 191]",191,l,0.24902247439604253,colour,0.5
115,21,0,1,7,21,321,480.43659356364515,481.1036732434295,"[86, 0, 168]",168,l,0.14370295510161668,colour,0.5
115,21,0,1,7,22,322,481.62414259742945,482.3437026400352,"[66, 0, 188]",188,l,0.19654447468928993,colour,0.5
115,21,0,1,7,23,323,482.8584742251551,483.62369676388334,"[49, 0, 205]",205,a,0.24189425713848323,colour,0.5
115,21,0,1,7,24,324,484.1397479544394,485.0236740784021,"[30, 0, 224]",224,a,0.3606045377673581,colour,0.5
115,21,0,1,7,25,325,485.530354492832,486.2957408714574,"[32, 0, 222]",222,a,0.24204234313219786,colour,0.5
115,21,0,1,7,26,326,486.8116250713356,487.4717336782487,"[89, 0, 165]",165,l,0.13682325452100486,colour,0.5
115,21,0,1,7,27,327,487.98337812675163,488.6957024320727,"[0, 0, 254]",254,a,0.18888102064374834,colour,0.5
115,21,0,1,7,28,328,489.1929147907067,489.89571511396207,"[99, 0, 155]",155,l,0.17957365396432579,colour,0.5
115,21,0,1,7,29,329,490.41167690139264,491.0716736561153,"[13, 0, 241]",241,a,0.1366704422980547,colour,0.5
115,21,0,1,7,30,330,491.58348076301627,492.34367979702074,"[43, 0, 211]",211,a,0.2492119143716991,colour,0.5
115,21,0,1,7,31,331,492.8523503149627,493.5356993759051,"[12, 0, 242]",242,a,0.16005937627051026,colour,0.5
115,21,0,1,7,32,332,494.05549643491395,494.735720328521,"[73, 0, 181]",181,l,0.15688182739540935,colour,0.5
115,21,0,1,7,33,333,495.2430013580015,495.90368576766923,"[76, 0, 178]",178,l,0.1375152418622747,colour,0.5
115,21,0,1,7,34,334,496.4176003440516,497.0717091022525,"[47, 0, 207]",207,a,0.13078953500371426,colour,0.5
115,21,0,1,7,35,335,497.58947903639637,498.2477507459698,"[54, 0, 200]",200,a,0.13493909570388496,colour,0.5
115,21,0,1,7,36,336,498.76313082303386,499.4477102586534,"[68, 0, 186]",186,l,0.16124367096927017,colour,0.5
115,21,0,1,7,37,337,499.9662241677288,500.5996843719622,"[52, 0, 202]",202,a,0.11011853197123855,colour,0.5
115,21,0,1,7,38,338,501.1068563060835,501.8237007810967,"[29, 0, 225]",225,a,0.19350752874743193,colour,0.5
115,21,0,1,7,39,339,502.3413466537604,502.9916701588081,"[45, 0, 209]",209,a,0.1271618203027174,colour,0.5
115,21,0,1,7,40,340,503.51306505082175,504.13567007367965,"[96, 0, 158]",158,l,0.09920584899373353,colour,0.5
115,21,0,1,7,41,341,504.653738543042,505.2956877022516,"[36, 0, 218]",218,a,0.11725029384251684,colour,0.5
115,21,0,1,7,42,342,505.8115199144231,506.4957523717312,"[69, 0, 185]",185,l,0.1609809756046161,colour,0.5
115,21,0,1,7,43,343,507.0145585144637,507.66373514023144,"[67, 0, 187]",187,l,0.12585700873751193,colour,0.5
115,21,0,1,7,44,344,508.17081136989873,508.8236862088088,"[1, 0, 253]",253,a,0.1295193819096312,colour,0.5
115,21,0,1,7,45,345,509.34271290525794,509.94369539327454,"[93, 0, 161]",161,l,0.08695290866307914,colour,0.5
115,21,0,1,7,46,346,510.4583732431056,511.0157298123231,"[59, 0, 195]",195,a,0.03403577068820596,colour,0.5
115,21,0,1,7,47,347,511.5365154246101,512.1116620140383,"[42, 0, 212]",212,a,0.05193921853788197,colour,0.5
115,21,0,1,7,48,348,512.6302192461444,513.3916919778567,"[27, 0, 227]",227,a,0.23838508990593255,colour,0.5
115,21,0,1,7,49,349,513.9114721015794,514.5996757072862,"[75, 0, 179]",179,l,0.1648461795412004,colour,0.5
115,21,0,1,7,50,350,515.1145689907717,515.7276917793788,"[8, 0, 246]",246,a,0.08973897469695657,colour,0.5
115,21,0,1,8,1,351,529.265492323204,529.8476568531478,"[52, 0, 202]",202,a,0.0579382797004655,colour,0.5
115,21,0,1,8,2,352,530.360162248835,531.0797092944849,"[18, 0, 236]",236,a,0.19644286239054054,colour,0.5
115,21,0,1,8,3,353,531.5944442519685,532.3036831683712,"[98, 0, 156]",156,l,0.18598901014775038,colour,0.5
115,21,0,1,8,4,354,532.8151858323254,533.6717231231742,"[14, 0, 240]",240,a,0.3331184247508645,colour,0.5
115,21,0,1,8,5,355,534.1902326999698,534.8156974380836,"[3, 0, 251]",251,a,0.10210770578123629,colour,0.5
115,21,0,1,8,6,356,535.3308136384003,535.9677294468274,"[13, 0, 241]",241,a,0.12296342279296368,colour,0.5
115,21,0,1,8,7,357,536.4780808991054,537.1116887956159,"[70, 0, 184]",184,l,0.11016815644688904,colour,0.5
115,21,0,1,8,8,358,537.6186866499484,538.2876430054894,"[39, 0, 215]",215,a,0.14591873227618635,colour,0.5
115,21,0,1,8,9,359,538.8062400160125,539.3916711040074,"[7, 0, 247]",247,a,0.062159126391634345,colour,0.5
115,21,0,1,8,10,360,539.890655375435,540.5677210184513,"[50, 0, 204]",204,a,0.15370861068367958,colour,0.5
115,21,0,1,8,11,361,541.0782418245217,541.6956602905411,"[86, 0, 168]",168,l,0.09406419051811099,colour,0.5
115,21,0,1,8,12,362,542.203159116907,542.7916547200875,"[90, 0, 164]",164,l,0.06514644774142653,colour,0.5
115,21,0,1,8,13,363,543.3125226461561,543.9916221095482,"[46, 0, 208]",208,a,0.15577669558115304,colour,0.5
115,21,0,1,8,14,364,544.4999980308348,545.1676550887059,"[53, 0, 201]",201,a,0.14423385949339718,colour,0.5
115,21,0,1,8,15,365,545.6875667569693,546.2636766934302,"[34, 0, 220]",220,a,0.05279031954705715,colour,0.5
115,21,0,1,8,16,366,546.7813749476336,547.3836602779338,"[22, 0, 232]",232,a,0.07898501178715378,colour,0.5
115,21,0,1,8,17,367,547.8906762492843,548.4396868294571,"[57, 0, 197]",197,a,0.02562440326437354,colour,0.5
115,21,0,1,8,18,368,548.9534304767149,549.5037017578725,"[38, 0, 216]",216,a,0.025714594055898488,colour,0.5
115,21,0,1,8,19,369,550.0187458842993,550.543713352643,"[97, 0, 157]",157,l,0.001631703577004373,colour,0.5
115,21,0,1,8,20,370,551.0655564413173,551.6396707606036,"[79, 0, 175]",175,l,0.050703723914921284,colour,0.5
115,21,0,1,8,21,371,552.1592803490348,552.7836730385898,"[85, 0, 169]",169,l,0.10109985410235822,colour,0.5
115,21,0,1,8,22,372,553.2998987028841,553.9596634822665,"[92, 0, 162]",162,l,0.1364282270660624,colour,0.5
115,21,0,1,8,23,373,554.4718305643182,555.1676097963937,"[32, 0, 222]",222,a,0.17240290122572333,colour,0.5
115,21,0,1,8,24,374,555.6749648689292,556.3197406603722,"[35, 0, 219]",219,a,0.12143569439649582,colour,0.5
115,21,0,1,8,25,375,556.831212604302,557.5036836409708,"[69, 0, 185]",185,l,0.1490809211973101,colour,0.5
115,21,0,1,8,26,376,558.0186588444049,558.7196466887835,"[31, 0, 223]",223,a,0.17764814128167927,colour,0.5
115,21,0,1,8,27,377,559.2392452494241,559.9437221748522,"[23, 0, 231]",231,a,0.18141803436446935,colour,0.5
115,21,0,1,8,28,378,560.4579821540974,561.0956395743415,"[74, 0, 180]",180,l,0.11428660328965634,colour,0.5
115,21,0,1,8,29,379,561.6143689170713,562.199666097411,"[40, 0, 214]",214,a,0.06201537256129086,colour,0.5
115,21,0,1,8,30,380,562.7081247263122,563.3036599314073,"[20, 0, 234]",234,a,0.07254720642231405,colour,0.5
115,21,0,1,8,31,381,563.8174693509936,564.4396659557242,"[8, 0, 246]",246,a,0.09898214461281896,colour,0.5
115,21,0,1,8,32,382,564.9580459571443,565.5596070048632,"[9, 0, 245]",245,a,0.07815478462725878,colour,0.5
115,21,0,1,8,33,383,566.0674362678546,566.7037490981165,"[6, 0, 248]",248,a,0.11297430866397917,colour,0.5
115,21,0,1,8,34,384,567.2254819099326,567.7676994357025,"[10, 0, 244]",244,a,0.019060173304751515,colour,0.5
115,21,0,1,8,35,385,568.2878202361753,568.8716337989317,"[76, 0, 178]",178,l,0.07014947244897485,colour,0.5
115,21,0,1,8,36,386,569.3881103430176,570.1196275477996,"[67, 0, 187]",187,a,0.21814810496289283,colour,0.5
115,21,0,1,8,37,387,570.6280822382541,571.1676637532655,"[56, 0, 198]",198,a,0.016712851589545608,colour,0.5
115,21,0,1,8,38,388,571.6749388751341,572.2796483271522,"[88, 0, 166]",166,l,0.08138313959352672,colour,0.5
115,21,0,1,8,39,389,572.7999120936729,573.4876655334374,"[75, 0, 179]",179,l,0.1643463890068233,colour,0.5
115,21,0,1,8,40,390,574.0030849950854,574.5436456111493,"[99, 0, 155]",155,l,0.017217762069776654,colour,0.5
115,21,0,1,8,41,391,575.0499077612767,575.6316524514696,"[33, 0, 221]",221,a,0.058362451614812016,colour,0.5
115,21,0,1,8,42,392,576.145591840148,576.8396649316419,"[29, 0, 225]",225,a,0.17076410830486566,colour,0.5
115,21,0,1,8,43,393,577.3495425874135,577.9836073451443,"[68, 0, 186]",186,a,0.11155567562673241,colour,0.5
115,21,0,1,8,44,394,578.5050061754882,579.0476214857772,"[96, 0, 158]",158,l,0.019292936311103404,colour,0.5
115,21,0,1,8,45,395,579.5674799848348,580.095671869698,"[87, 0, 167]",167,l,0.004964427906088531,colour,0.5
115,21,0,1,8,46,396,580.6068657584256,581.1996538882377,"[19, 0, 235]",235,a,0.06935547897592187,colour,0.5
115,21,0,1,8,47,397,581.7186589231715,582.2956676160684,"[89, 0, 165]",165,l,0.05357446672860533,colour,0.5
115,21,0,1,8,48,398,582.8123603815911,583.7596263820305,"[5, 0, 249]",249,a,0.4238959711510688,colour,0.5
115,21,0,1,8,49,399,584.2656254430767,584.8876586017432,"[77, 0, 177]",177,l,0.09870802785735577,colour,0.5
115,21,0,1,8,50,400,585.393774241209,585.9756457498297,"[12, 0, 242]",242,a,0.05876653757877648,colour,0.5
115,21,0,1,9,1,401,595.4574504620396,596.0876370189944,"[82, 0, 172]",172,l,0.1053896239027381,colour,0.5
115,21,0,1,9,2,402,596.5998052826617,597.5916254966287,"[55, 0, 199]",199,a,0.4686451384332031,colour,0.5
115,21,0,1,9,3,403,598.0998147348873,598.7516033467837,"[85, 0, 169]",169,l,0.12846663175150752,colour,0.5
115,21,0,1,9,4,404,599.2716646764893,599.9036381123587,"[16, 0, 238]",238,a,0.10866760346107185,colour,0.5
115,21,0,1,9,5,405,600.4123094179668,601.0476860764902,"[10, 0, 244]",244,a,0.1120637368876487,colour,0.5
115,21,0,1,9,6,406,601.5652204906801,602.1676003440516,"[74, 0, 180]",180,l,0.07895153481513262,colour,0.5
115,21,0,1,9,7,407,602.6745863830438,603.303614245262,"[13, 0, 241]",241,a,0.105658620595932,colour,0.5
115,21,0,1,9,8,408,603.8151909522712,604.4956239779713,"[68, 0, 186]",186,l,0.15780421439558268,colour,0.5
115,21,0,1,9,9,409,605.002716355375,605.5836351505714,"[90, 0, 164]",164,l,0.057609812123700976,colour,0.5
115,21,0,1,9,10,410,606.0964186015772,606.6876754583791,"[83, 0, 171]",171,l,0.06782853836193681,colour,0.5
115,21,0,1,9,11,411,607.2058679892216,608.2636081642704,"[51, 0, 203]",203,a,0.534542256500572,colour,0.5
115,21,0,1,9,12,412,608.7839207677171,609.319640623522,"[7, 0, 247]",247,a,0.014350170036777854,colour,0.5
115,21,0,1,9,13,413,609.8307557430817,610.4636791353114,"[58, 0, 196]",196,l,0.11026622401550412,colour,0.5
115,21,0,1,9,14,414,610.9713461338542,611.951597911655,"[11, 0, 243]",243,a,0.4569707576883957,colour,0.5
115,21,0,1,9,15,415,612.4713536169147,613.4795676674694,"[33, 0, 221]",221,a,0.4848853750154376,colour,0.5
115,21,0,1,9,16,416,613.9870976076927,614.6316142483847,"[75, 0, 179]",179,l,0.12112219305709004,colour,0.5
115,21,0,1,9,17,417,615.1435300568119,615.7916326646227,"[31, 0, 223]",223,a,0.12513745215255767,colour,0.5
115,21,0,1,9,18,418,616.2975750119658,616.9996542033041,"[45, 0, 209]",209,a,0.17846930993255228,colour,0.5
115,21,0,1,9,19,419,617.5171606545337,618.1675834087655,"[22, 0, 232]",232,a,0.12698262045159936,colour,0.5
115,21,0,1,9,20,420,618.673417054466,619.3596384336706,"[15, 0, 239]",239,a,0.16288994683418423,colour,0.5
115,21,0,1,9,21,421,619.8766064975644,620.5596203955356,"[79, 0, 175]",175,l,0.15980731474701315,colour,0.5
115,21,0,1,9,22,422,621.0796628206735,621.6956205121242,"[91, 0, 163]",163,l,0.09266209905035794,colour,0.5
115,21,0,1,9,23,423,622.1922531295568,622.8876093709841,"[21, 0, 233]",233,a,0.17197636608034372,colour,0.5
115,21,0,1,9,24,424,623.3953598649241,624.0715933116153,"[47, 0, 207]",207,a,0.15292052505537868,colour,0.5
115,21,0,1,9,25,425,624.5829329233384,625.1755993547849,"[9, 0, 245]",245,a,0.06945945438928902,colour,0.5
115,21,0,1,9,26,426,625.6922637633979,626.2796888932353,"[99, 0, 155]",155,l,0.06412362982518971,colour,0.5
115,21,0,1,9,27,427,626.7868084459333,627.5116271192674,"[63, 0, 191]",191,a,0.20226193580310792,colour,0.5
115,21,0,1,9,28,428,628.0203909787815,628.7836151432712,"[23, 0, 231]",231,a,0.2399100613547489,colour,0.5
115,21,0,1,9,29,429,629.3016485603293,630.1836531099398,"[73, 0, 181]",181,l,0.35875543113797903,colour,0.5
115,21,0,1,9,30,430,630.6923244156642,631.3516307584941,"[29, 0, 225]",225,a,0.1359898765804246,colour,0.5
115,21,0,1,9,31,431,631.864139698795,632.4955995595083,"[97, 0, 157]",157,l,0.10803193610627204,colour,0.5
115,21,0,1,9,32,432,633.0047643540893,633.7756054986967,"[89, 0, 165]",165,l,0.24746599525678903,colour,0.5
115,21,0,1,9,33,433,634.2862511540297,635.1996030821465,"[62, 0, 192]",192,a,0.39426024712156504,colour,0.5
115,21,0,1,9,34,434,635.7194458273007,636.4796157167293,"[56, 0, 198]",198,a,0.23680813086684793,colour,0.5
115,21,0,1,9,35,435,637.0007053781301,637.623586093192,"[14, 0, 240]",240,a,0.09962962730787694,colour,0.5
115,21,0,1,9,36,436,638.1289246745873,638.7515927129425,"[48, 0, 206]",206,a,0.09930234134662896,colour,0.5
115,21,0,1,9,37,437,639.2695603576722,639.8635745298816,"[32, 0, 222]",222,a,0.07059885060880333,colour,0.5
115,21,0,1,9,38,438,640.3789396408247,641.0316845105262,"[67, 0, 187]",187,l,0.1294000466587022,colour,0.5
115,21,0,1,9,39,439,641.5508073053788,642.2395835630596,"[87, 0, 167]",167,l,0.1653774776495993,colour,0.5
115,21,0,1,9,40,440,642.7538904100657,643.39166401478,"[28, 0, 226]",226,a,0.11436300934292376,colour,0.5
115,21,0,1,9,41,441,643.9101523238933,647.5676245262148,"[8, 0, 246]",246,a,3.1327347400365397,colour,0.5
115,21,0,1,9,42,442,648.0833984492347,648.7196147872601,"[76, 0, 178]",178,l,0.11284355190582573,colour,0.5
115,21,0,1,9,43,443,649.2396749353502,649.9516420224681,"[35, 0, 219]",219,a,0.18865219631697983,colour,0.5
115,21,0,1,9,44,444,650.4459816688905,650.9756697743433,"[49, 0, 205]",205,a,0.0065303591545671225,colour,0.5
115,21,0,1,9,45,445,651.4928654811811,652.1116064818343,"[1, 0, 253]",253,a,0.09553559904452413,colour,0.5
115,21,0,1,9,46,446,652.6178146750899,654.7915984001011,"[24, 0, 230]",230,a,1.6508024217328057,colour,0.5
115,21,0,1,9,47,447,655.305344016524,655.9757910789922,"[86, 0, 168]",168,l,0.14706009777728468,colour,0.5
115,21,0,1,9,48,448,656.4811005158117,657.0716342715314,"[53, 0, 201]",201,a,0.06707865570206195,colour,0.5
115,21,0,1,9,49,449,657.5911729676882,658.2156381249661,"[61, 0, 193]",193,a,0.10100218036677688,colour,0.5
115,21,0,1,9,50,450,658.7318921460537,659.2795860994374,"[3, 0, 251]",251,a,0.02431565325241536,colour,0.5
115,21,0,1,10,1,451,663.5804268817883,664.1676054641139,"[18, 0, 236]",236,a,0.063343814923428,colour,0.5
115,21,0,1,10,2,452,664.674992832006,665.2475624876097,"[6, 0, 248]",248,a,0.049216955550946295,colour,0.5
115,21,0,1,10,3,453,665.7652489263564,666.6715738555649,"[37, 0, 217]",217,a,0.3829222107306123,colour,0.5
115,21,0,1,10,4,454,667.187171729398,667.7355895716464,"[0, 0, 254]",254,a,0.024879246833734214,colour,0.5
115,21,0,1,10,5,455,668.2496963448357,668.8636221851921,"[60, 0, 194]",194,l,0.09054714650847018,colour,0.5
115,21,0,1,10,6,456,669.3747652678285,669.9595886515453,"[65, 0, 189]",189,l,0.061489982064813375,colour,0.5
115,21,0,1,10,7,457,670.4685754277743,671.1355586153222,"[19, 0, 235]",235,a,0.14364939206279814,colour,0.5
115,21,0,1,10,8,458,671.6560338770505,672.2795553795295,"[63, 0, 191]",191,l,0.11089795303996652,colour,0.5
115,21,0,1,10,9,459,672.7860254802508,673.3835500010755,"[23, 0, 231]",231,a,0.07424231921322644,colour,0.5
115,21,0,1,10,10,460,673.8953303265152,674.5595896756276,"[46, 0, 208]",208,a,0.14086175069678575,colour,0.5
115,21,0,1,10,11,461,675.0672086249106,675.6555612619268,"[74, 0, 180]",180,l,0.06500387541018426,colour,0.5
115,21,0,1,10,12,462,676.1766083879629,676.8315765180159,"[33, 0, 221]",221,a,0.13203054352197796,colour,0.5
115,21,0,1,10,13,463,677.3484811725793,678.0476191226626,"[4, 0, 250]",250,a,0.17577776696998626,colour,0.5
115,21,0,1,10,14,464,678.5671160711208,679.1595863673138,"[12, 0, 242]",242,a,0.06894903001375496,colour,0.5
115,21,0,1,10,15,465,679.6765335572418,680.3195929680951,"[57, 0, 197]",197,l,0.11986031068954617,colour,0.5
115,21,0,1,10,16,466,680.8328545480035,681.4315669081407,"[25, 0, 229]",229,a,0.0753793524345383,colour,0.5
115,21,0,1,10,17,467,681.9421688464936,682.5516190218041,"[99, 0, 155]",155,l,0.08675716712605208,colour,0.5
115,21,0,1,10,18,468,683.0675599355018,683.847579659312,"[44, 0, 210]",210,a,0.2567465805914253,colour,0.5
115,21,0,1,10,19,469,684.3644161785487,684.9996057602111,"[34, 0, 220]",220,a,0.11180931236594915,colour,0.5
115,21,0,1,10,20,470,685.5206328001805,686.1355983937392,"[52, 0, 202]",202,a,0.09155105974059552,colour,0.5
115,21,0,1,10,21,471,686.6456328001805,687.3115978959249,"[30, 0, 224]",224,a,0.14266320189926773,colour,0.5
115,21,0,1,10,22,472,687.8330849478953,688.503596207127,"[43, 0, 211]",211,a,0.14707151928450912,colour,0.5
115,21,0,1,10,23,473,689.0225461035734,689.6715553448303,"[90, 0, 164]",164,l,0.12565102730877697,colour,0.5
115,21,0,1,10,24,474,690.1788588236086,690.8315422533778,"[2, 0, 252]",252,a,0.14180225471500307,colour,0.5
115,21,0,1,10,25,475,691.3382624463411,692.0635939070489,"[48, 0, 206]",206,a,0.20200987451244146,colour,0.5
115,21,0,1,10,26,476,692.5726893848041,693.2555882798042,"[31, 0, 223]",223,a,0.15962260111700743,colour,0.5
115,21,0,1,10,27,477,693.7758004524512,694.4235970420996,"[68, 0, 186]",186,l,0.12454668339341879,colour,0.5
115,21,0,1,10,28,478,694.9319615417626,695.5595648633316,"[80, 0, 174]",174,l,0.1042577107436955,colour,0.5
115,21,0,1,10,29,479,696.072727587889,696.6555900126696,"[89, 0, 165]",165,l,0.05950933089479804,colour,0.5
115,21,0,1,10,30,480,697.166370363324,697.8475753270322,"[35, 0, 219]",219,a,0.1578325714217499,colour,0.5
115,21,0,1,10,31,481,698.3538626832888,698.9835762312869,"[56, 0, 198]",198,l,0.10631043568719178,colour,0.5
115,21,0,1,10,32,482,699.4945834371028,700.175551699358,"[17, 0, 237]",237,a,0.15777073753997684,colour,0.5
115,21,0,1,10,33,483,700.6819627232617,701.3355882324977,"[72, 0, 182]",182,l,0.13026571995578706,colour,0.5
115,21,0,1,10,34,484,701.853914277046,702.471561567625,"[98, 0, 156]",156,l,0.09429459052626044,colour,0.5
115,21,0,1,10,35,485,702.9789851693204,703.6955874291016,"[20, 0, 234]",234,a,0.19332399661652744,colour,0.5
115,21,0,1,10,36,486,704.2008945029229,704.7835674878443,"[79, 0, 175]",175,l,0.05934430949855596,colour,0.5
115,21,0,1,10,37,487,705.2946325890953,705.9675644253148,"[95, 0, 159]",159,l,0.1497469146270305,colour,0.5
115,21,0,1,10,38,488,706.4822186443489,707.1275879616151,"[67, 0, 187]",187,l,0.1220059833722189,colour,0.5
115,21,0,1,10,39,489,707.6403824401787,708.2795585303102,"[88, 0, 166]",166,l,0.11590373469516635,colour,0.5
115,21,0,1,10,40,490,708.796534470981,709.3916100579081,"[84, 0, 170]",170,l,0.0717461237218231,colour,0.5
115,21,0,1,10,41,491,709.9058814586606,710.5436050450662,"[77, 0, 177]",177,l,0.11469935381319374,colour,0.5
115,21,0,1,10,42,492,711.0621536124963,711.6316217314452,"[70, 0, 184]",184,l,0.04611817572731525,colour,0.5
115,21,0,1,10,43,493,712.1402638925938,712.8475729639176,"[87, 0, 167]",167,l,0.1831777379848063,colour,0.5
115,21,0,1,10,44,494,713.349744630279,714.0075598724652,"[15, 0, 239]",239,a,0.134657101938501,colour,0.5
115,21,0,1,10,45,495,714.5215122580994,715.07156377309,"[27, 0, 227]",227,a,0.026654310408048332,colour,0.5
115,21,0,1,10,46,496,715.5839730703738,716.2877576146275,"[69, 0, 185]",185,a,0.1802995118778199,colour,0.5
115,21,0,1,10,47,497,716.7946447982686,717.4475869848393,"[53, 0, 201]",201,a,0.1294965388951823,colour,0.5
115,21,0,1,10,48,498,717.96718909021,718.631531146937,"[8, 0, 246]",246,a,0.14082906139083207,colour,0.5
115,21,0,1,10,49,499,719.1392040532082,719.8715455774218,"[10, 0, 244]",244,a,0.209025451913476,colour,0.5
115,21,0,1,10,50,500,720.3891701824032,720.9835333020892,"[76, 0, 178]",178,l,0.07108170574065298,colour,0.5
115,21,0,1,11,1,501,726.8883620105917,727.6075959487353,"[79, 0, 175]",175,l,0.19518925074953586,colour,0.5
115,21,0,1,11,2,502,728.1237062162254,728.7355210423702,"[46, 0, 208]",208,a,0.08850544923916459,colour,0.5
115,21,0,1,11,3,503,729.2486097238725,729.9275402274216,"[8, 0, 246]",246,a,0.15560261579230428,colour,0.5
115,21,0,1,11,4,504,730.436114253127,731.031543907593,"[54, 0, 200]",200,l,0.07209940359462053,colour,0.5
115,21,0,1,11,5,505,731.5454450931866,732.1035960495938,"[1, 0, 253]",253,a,0.03479077329393476,colour,0.5
115,21,0,1,11,6,506,732.6236183885485,733.16755820252,"[70, 0, 184]",184,l,0.020971901365555823,colour,0.5
115,21,0,1,11,7,507,733.6860748685431,734.3115573298419,"[21, 0, 233]",233,a,0.1021250351332128,colour,0.5
115,21,0,1,11,8,508,734.8267172470223,735.4475613848772,"[74, 0, 180]",180,l,0.09756114857736975,colour,0.5
115,21,0,1,11,9,509,735.9689050768502,736.5116074270336,"[3, 0, 251]",251,a,0.019327988615259528,colour,0.5
115,21,0,1,11,10,510,737.0331807312323,737.6795445093885,"[43, 0, 211]",211,a,0.1354156492743641,colour,0.5
115,21,0,1,11,11,511,738.1946414111881,738.8075286798412,"[9, 0, 245]",245,a,0.09005247603636235,colour,0.5
115,21,0,1,11,12,512,739.3196607095888,739.9195557890926,"[90, 0, 164]",164,l,0.07666368398349732,colour,0.5
115,21,0,1,11,13,513,740.4290238450048,741.0075992570492,"[65, 0, 189]",189,l,0.05507147510070354,colour,0.5
115,21,0,1,11,14,514,741.5228430634597,742.0955611990066,"[85, 0, 169]",169,l,0.04942451242823154,colour,0.5
115,21,0,1,11,15,515,742.6164310943568,743.2635156104807,"[64, 0, 190]",190,l,0.12365147157106549,colour,0.5
115,21,0,1,11,16,516,743.7774061623495,744.4155807022471,"[81, 0, 173]",173,l,0.1150301843881607,colour,0.5
115,21,0,1,11,17,517,744.9336385376519,745.5675319724251,"[16, 0, 238]",238,a,0.11043991008773446,colour,0.5
115,21,0,1,11,18,518,746.0742820976302,746.7276460932335,"[96, 0, 158]",158,l,0.12989668629597872,colour,0.5
115,21,0,1,11,19,519,747.2462446792051,747.9675368560711,"[7, 0, 247]",247,a,0.19795995682943612,colour,0.5
115,21,0,1,11,20,520,748.4806759499479,749.1115261372179,"[66, 0, 188]",188,l,0.10760028101503849,colour,0.5
115,21,0,1,11,21,521,749.6215885066194,750.1436044937,"[95, 0, 159]",159,l,0.004758446477353573,colour,0.5
115,21,0,1,11,22,522,750.6622448272537,751.2075473482255,"[42, 0, 212]",212,a,0.021902559441514313,colour,0.5
115,21,0,1,11,23,523,751.7247816518648,752.4555470047053,"[99, 0, 155]",155,l,0.21981328551191837,colour,0.5
115,21,0,1,11,24,524,752.9627067297697,753.6315508392872,"[23, 0, 231]",231,a,0.1457604062743485,colour,0.5
115,21,0,1,11,25,525,754.1498371053021,754.7515537221916,"[98, 0, 156]",156,l,0.07834067987278104,colour,0.5
115,21,0,1,11,26,526,755.2467767649796,755.8715530604823,"[28, 0, 226]",226,a,0.10137318319175392,colour,0.5
115,21,0,1,11,27,527,756.3874553772621,757.023501179996,"[83, 0, 171]",171,l,0.11273524421267211,colour,0.5
115,21,0,1,11,28,528,757.5437168972567,758.2395193661796,"[72, 0, 182]",182,l,0.17268292559310794,colour,0.5
115,21,0,1,11,29,529,758.74742976157,759.3355519986944,"[38, 0, 216]",216,a,0.06470652180723846,colour,0.5
115,21,0,1,11,30,530,759.8569657952758,760.431597234332,"[53, 0, 201]",201,a,0.05141658510547131,colour,0.5
115,21,0,1,11,31,531,760.9505924230907,761.6635323095834,"[60, 0, 194]",194,a,0.18951826344709843,colour,0.5
115,21,0,1,11,32,532,762.1849591031205,762.8155241459608,"[27, 0, 227]",227,a,0.10764872410800308,colour,0.5
115,21,0,1,11,33,533,763.3256089645438,764.0235358384671,"[36, 0, 218]",218,a,0.17452651844359934,colour,0.5
115,21,0,1,11,34,534,764.5443194815889,765.1274635063019,"[32, 0, 222]",222,a,0.05999336764216423,colour,0.5
115,21,0,1,11,35,535,765.6381142814644,766.4475145172328,"[11, 0, 243]",243,a,0.28646264923736453,colour,0.5
115,21,0,1,11,36,536,766.9661828138633,767.5835603198502,"[26, 0, 228]",228,a,0.09398305823560804,colour,0.5
115,21,0,1,11,37,537,768.0911946292035,768.7755298803095,"[78, 0, 176]",176,l,0.160951437195763,colour,0.5
115,21,0,1,11,38,538,769.2943817091873,770.0155600646976,"[29, 0, 225]",225,a,0.19816199992783368,colour,0.5
115,21,0,1,11,39,539,770.5286711953813,771.1595587980701,"[15, 0, 239]",239,a,0.10746007191482931,colour,0.5
115,21,0,1,11,40,540,771.6693789522396,772.3034834883874,"[69, 0, 185]",185,l,0.11082942376378924,colour,0.5
115,21,0,1,11,41,541,772.8099311400438,773.4635448338231,"[77, 0, 177]",177,l,0.13026375067420304,colour,0.5
115,21,0,1,11,42,542,773.9828251671279,774.7515194575535,"[0, 0, 254]",254,a,0.24567439022939652,colour,0.5
115,21,0,1,11,43,543,775.2640008287271,775.8475276716053,"[20, 0, 234]",234,a,0.06013436440844089,colour,0.5
115,21,0,1,11,44,544,776.357752699405,776.9515719178598,"[82, 0, 172]",172,l,0.07026526308618486,colour,0.5
115,21,0,1,11,45,545,777.467027219478,778.0955312666483,"[4, 0, 250]",250,a,0.10528249782510102,colour,0.5
115,21,0,1,11,46,546,778.6077211918309,779.1515121320263,"[89, 0, 165]",165,l,0.02039767405949533,colour,0.5
115,21,0,1,11,47,547,779.6707617453067,780.4474873418221,"[47, 0, 207]",207,l,0.25338707491755486,colour,0.5
115,21,0,1,11,48,548,780.9675699392101,781.6315264208242,"[92, 0, 162]",162,l,0.14055927703157067,colour,0.5
115,21,0,1,11,49,549,782.1395171607146,782.8235802642303,"[52, 0, 202]",202,a,0.1607505758292973,colour,0.5
115,21,0,1,11,50,550,783.3426191699691,783.9755319283577,"[30, 0, 224]",224,a,0.1102989133214578,colour,0.5
115,21,0,1,12,1,551,788.2949244289193,788.9675065299962,"[27, 0, 227]",227,a,0.14845037378836423,colour,0.5
115,21,0,1,12,2,552,789.4831863237778,790.0394964443985,"[34, 0, 220]",220,a,0.03292551904451102,colour,0.5
115,21,0,1,12,3,553,790.561325748451,791.1274981646566,"[45, 0, 209]",209,a,0.04291542072314769,colour,0.5
115,21,0,1,12,4,554,791.6394801391289,792.6955102352658,"[39, 0, 215]",215,a,0.5326892114244401,colour,0.5
115,21,0,1,12,5,555,793.2018877823139,793.7595239820657,"[19, 0, 235]",235,a,0.03427365352399647,colour,0.5
115,21,0,1,12,6,556,794.2800713176839,795.1675081840949,"[65, 0, 189]",189,a,0.3640818033600226,colour,0.5
115,21,0,1,12,7,557,795.6781581717078,796.3275159664918,"[96, 0, 158]",158,l,0.12596925476100296,colour,0.5
115,21,0,1,12,8,558,796.834324380965,797.4555182539625,"[60, 0, 194]",194,a,0.09793136361986399,colour,0.5
115,21,0,1,12,9,559,797.9755299590761,798.6395490622381,"[44, 0, 210]",210,a,0.14062544307671487,colour,0.5
115,21,0,1,12,10,560,799.1473980175797,799.7835131371394,"[25, 0, 229]",229,a,0.11265923187602311,colour,0.5
115,21,0,1,12,11,561,800.3036721405806,800.8394995164126,"[82, 0, 172]",172,l,0.012515635695308447,colour,0.5
115,21,0,1,12,12,562,801.3504637930309,801.9195412168046,"[85, 0, 169]",169,l,0.04484447813592851,colour,0.5
115,21,0,1,12,13,563,802.429568140069,802.999603791046,"[73, 0, 181]",181,l,0.04665144323371351,colour,0.5
115,21,0,1,12,14,564,803.507751281606,804.1514881075127,"[99, 0, 155]",155,l,0.12042547971941531,colour,0.5
115,21,0,1,12,15,565,804.663921823143,805.239509913954,"[33, 0, 221]",221,a,0.05225075071211904,colour,0.5
115,21,0,1,12,16,566,805.7577012631809,806.2875094916672,"[14, 0, 240]",240,a,0.006411417736671865,colour,0.5
115,21,0,1,12,17,567,806.8063774682814,807.4635338061489,"[62, 0, 192]",192,a,0.13375125627499074,colour,0.5
115,21,0,1,12,18,568,807.9783467451343,808.8395105440868,"[43, 0, 211]",211,a,0.3378496958175674,colour,0.5
115,21,0,1,12,19,569,809.3532585236244,810.0314970398322,"[97, 0, 157]",157,l,0.15482122544199228,colour,0.5
115,21,0,1,12,20,570,810.5407862897264,811.1995227375301,"[12, 0, 242]",242,a,0.135434947675094,colour,0.5
115,21,0,1,12,21,571,811.7132427541073,812.8314764811657,"[36, 0, 218]",218,a,0.5955163005273789,colour,0.5
115,21,0,1,12,22,572,813.3377618681407,814.03951889358,"[87, 0, 167]",167,l,0.17855280521325767,colour,0.5
115,21,0,1,12,23,573,814.5563999174628,815.0875137452967,"[8, 0, 246]",246,a,0.007752857054583728,colour,0.5
115,21,0,1,12,24,574,815.6033057851018,816.5514673911966,"[86, 0, 168]",168,l,0.4249231213470921,colour,0.5
115,21,0,1,12,25,575,817.0720954651479,817.7994505062234,"[7, 0, 247]",247,a,0.20407087018247694,colour,0.5
115,21,0,1,12,26,576,818.2939303617459,818.8954532063799,"[18, 0, 236]",236,a,0.07841708592604846,colour,0.5
115,21,0,1,12,27,577,819.4032773494255,820.0795214299578,"[24, 0, 230]",230,a,0.1528208820382133,colour,0.5
115,21,0,1,12,28,578,820.5908508017892,821.2474679646548,"[10, 0, 244]",244,a,0.13186512829270214,colour,0.5
115,21,0,1,12,29,579,821.7654423047788,822.3595183107536,"[47, 0, 207]",207,a,0.0710939149139449,colour,0.5
115,21,0,1,12,30,580,822.8775454262504,823.5035048348363,"[81, 0, 173]",173,l,0.10280402540229261,colour,0.5
115,21,0,1,12,31,581,824.0183063523145,824.6475421651267,"[76, 0, 178]",178,l,0.10589217126835138,colour,0.5
115,21,0,1,12,32,582,825.1589648784138,825.8475221578265,"[17, 0, 237]",237,a,0.16558503452688456,colour,0.5
115,21,0,1,12,33,583,826.3620334108127,826.9514770009555,"[78, 0, 176]",176,l,0.06596682872623205,colour,0.5
115,21,0,1,12,34,584,827.4714461707044,828.1195810739882,"[22, 0, 232]",232,a,0.12473612325266004,colour,0.5
115,21,0,1,12,35,585,828.6276903614635,829.367485026014,"[53, 0, 201]",201,l,0.21711819793563336,colour,0.5
115,21,0,1,12,36,586,829.8778156045591,830.5674894370604,"[92, 0, 162]",162,l,0.16649324318859726,colour,0.5
115,21,0,1,12,37,587,831.0808112754021,831.6955429244554,"[63, 0, 191]",191,l,0.09124228451400995,colour,0.5
115,21,0,1,12,38,588,832.2057592876954,832.9035002662567,"[91, 0, 163]",163,l,0.1744757123524323,colour,0.5
115,21,0,1,12,39,589,833.4245493615745,834.1275005277712,"[59, 0, 195]",195,a,0.17958231852389872,colour,0.5
115,21,0,1,12,40,590,834.6433272261638,835.2235591540812,"[95, 0, 159]",159,l,0.057058427832089365,colour,0.5
115,21,0,1,12,41,591,835.7370318353642,836.3274801265216,"[0, 0, 254]",254,a,0.06702272954862565,colour,0.5
115,21,0,1,12,42,592,836.8464382938109,837.4874804258579,"[75, 0, 179]",179,l,0.11586159304715693,colour,0.5
115,21,0,1,12,43,593,838.0044591235928,838.6395006191451,"[16, 0, 238]",238,a,0.11791431799065322,colour,0.5
115,21,0,1,12,44,594,839.1545620749239,839.8075058368267,"[77, 0, 177]",177,l,0.13034448912367225,colour,0.5
115,21,0,1,12,45,595,840.3264108349103,841.1594567919383,"[4, 0, 250]",250,a,0.30975981696974486,colour,0.5
115,21,0,1,12,46,596,841.67016034259,842.3195110481465,"[48, 0, 206]",206,a,0.1259917039424181,colour,0.5
115,21,0,1,12,47,597,842.82639547484,843.5034871117678,"[89, 0, 165]",165,l,0.15382952138315886,colour,0.5
115,21,0,1,12,48,598,844.0138783425791,844.6394951053662,"[66, 0, 188]",188,l,0.10222389048431069,colour,0.5
115,21,0,1,12,49,599,845.1545778287109,845.7914810340153,"[40, 0, 214]",214,l,0.11435552628245205,colour,0.5
115,21,0,1,12,50,600,846.3107471887488,847.0074779525166,"[88, 0, 166]",166,l,0.1736198851140216,colour,0.5
115,21,0,1,13,1,601,868.5442643431015,869.1914323546225,"[41, 0, 213]",213,a,0.12300713965669274,colour,0.5
115,21,0,1,13,2,602,869.7013935056748,870.2714460919378,"[95, 0, 159]",159,l,0.0469192584278062,colour,0.5
115,21,0,1,13,3,603,870.7794640072389,871.3834558719536,"[10, 0, 244]",244,a,0.08064428460784256,colour,0.5
115,21,0,1,13,4,604,871.9044088687515,872.5194524439285,"[37, 0, 217]",217,a,0.0916672443272546,colour,0.5
115,21,0,1,13,5,605,873.033338269568,873.5994811473647,"[87, 0, 167]",167,l,0.0427586700534448,colour,0.5
115,21,0,1,13,6,606,874.0998407286825,874.6955157491611,"[47, 0, 207]",207,a,0.0711250287713483,colour,0.5
115,21,0,1,13,7,607,875.21106242307,875.9275095075136,"[21, 0, 233]",233,a,0.19319560285657644,colour,0.5
115,21,0,1,13,8,608,876.4455015707063,877.0314509598538,"[1, 0, 253]",253,a,0.06266364292241633,colour,0.5
115,21,0,1,13,9,609,877.5391927892342,878.0954513159813,"[78, 0, 176]",176,l,0.03293260827194899,colour,0.5
115,21,0,1,13,10,610,878.6017264630646,879.2234453326091,"[54, 0, 200]",200,a,0.09686797962058336,colour,0.5
115,21,0,1,13,11,611,879.7437685698969,880.3594462368637,"[58, 0, 196]",196,a,0.09303270804230124,colour,0.5
115,21,0,1,13,12,612,880.8688556097914,881.4794270645361,"[81, 0, 173]",173,l,0.08738968381658196,colour,0.5
115,21,0,1,13,13,613,881.9941120034782,882.5595030294498,"[89, 0, 165]",165,l,0.04222697811201215,colour,0.5
115,21,0,1,13,14,614,883.0722549727652,883.719628965715,"[71, 0, 183]",183,l,0.12398308992851526,colour,0.5
115,21,0,1,13,15,615,884.228454265045,884.9434350611409,"[23, 0, 231]",231,a,0.19158792379312217,colour,0.5
115,21,0,1,13,16,616,885.462881597341,886.0315238214098,"[70, 0, 184]",184,l,0.045326151652261615,colour,0.5
115,21,0,1,13,17,617,886.5409836065955,887.1754520563409,"[56, 0, 198]",198,l,0.12343564396724105,colour,0.5
115,21,0,1,13,18,618,887.6725458672736,888.3195606727386,"[48, 0, 206]",206,a,0.12370188382919878,colour,0.5
115,21,0,1,13,19,619,888.828732556547,889.4154846038437,"[27, 0, 227]",227,a,0.06339147023390979,colour,0.5
115,21,0,1,13,20,620,889.9224930920172,890.5434675927972,"[19, 0, 235]",235,a,0.09768442227505147,colour,0.5
115,21,0,1,13,21,621,891.063085845788,891.727470044163,"[20, 0, 234]",234,a,0.14106339984573424,colour,0.5
115,21,0,1,13,22,622,892.2349700520281,892.8394286241382,"[18, 0, 236]",236,a,0.08124056737869978,colour,0.5
115,21,0,1,13,23,623,893.3599877750967,894.0315383936977,"[4, 0, 250]",250,a,0.14717076846864074,colour,0.5
115,21,0,1,13,24,624,894.5490275156917,895.1754323641071,"[2, 0, 252]",252,a,0.10298204375430942,colour,0.5
115,21,0,1,13,25,625,895.6896832848433,896.383462567348,"[51, 0, 203]",203,l,0.17030724708456546,colour,0.5
115,21,0,1,13,26,626,896.8928912386764,897.5994803596986,"[92, 0, 162]",162,l,0.18330652557779104,colour,0.5
115,21,0,1,13,27,627,898.111616327893,898.7354863840155,"[66, 0, 188]",188,l,0.10057643288746476,colour,0.5
115,21,0,1,13,28,628,899.2522354695247,899.8874285958009,"[57, 0, 197]",197,l,0.11197394004557282,colour,0.5
115,21,0,1,13,29,629,900.4085237709805,901.0074452633271,"[15, 0, 239]",239,a,0.07558100146707147,colour,0.5
115,21,0,1,13,30,630,901.5178774540545,902.0794375408441,"[8, 0, 246]",246,a,0.03821723291184753,colour,0.5
115,21,0,1,13,31,631,902.595994035597,903.1994778390508,"[90, 0, 164]",164,l,0.08029533713124692,colour,0.5
115,21,0,1,13,32,632,903.7209621340735,904.3754556797212,"[94, 0, 160]",160,l,0.1312109500868246,colour,0.5
115,21,0,1,13,33,633,904.8929262909805,905.5434423866682,"[28, 0, 226]",226,a,0.12734495860058814,colour,0.5
115,21,0,1,13,34,634,906.0646651679417,906.7274216010701,"[98, 0, 156]",156,l,0.13932063151150942,colour,0.5
115,21,0,1,13,35,635,907.2365911217639,907.7834414571989,"[40, 0, 214]",214,a,0.02359137067105621,colour,0.5
115,21,0,1,13,36,636,908.2990984079661,908.9354439274175,"[6, 0, 248]",248,a,0.11299990862607956,colour,0.5
115,21,0,1,13,37,637,909.4553036079742,910.0954871559516,"[14, 0, 240]",240,a,0.11687377712223679,colour,0.5
115,21,0,1,13,38,638,910.611585607985,911.2234343049349,"[80, 0, 174]",174,l,0.08852041536010802,colour,0.5
115,21,0,1,13,39,639,911.7364517003298,912.2874752271455,"[38, 0, 216]",216,a,0.027521165320649743,colour,0.5
115,21,0,1,13,40,640,912.7868675228674,913.4154593977146,"[26, 0, 228]",228,a,0.10554440540727228,colour,0.5
115,21,0,1,13,41,641,913.9272554768249,914.7274932810105,"[62, 0, 192]",192,l,0.2771509501617402,colour,0.5
115,21,0,1,13,42,642,915.2397395260632,915.8714337252313,"[43, 0, 211]",211,a,0.10833007760811597,colour,0.5
115,21,0,1,13,43,643,916.3804342860822,916.9995108434232,"[91, 0, 163]",163,l,0.09579593117814511,colour,0.5
115,21,0,1,13,44,644,917.5210053783376,918.1755532748066,"[52, 0, 202]",202,a,0.13122591632418334,colour,0.5
115,21,0,1,13,45,645,918.6928541384405,919.2874311163323,"[76, 0, 178]",178,l,0.07132155785802752,colour,0.5
115,21,0,1,13,46,646,919.802265323,920.3434521540767,"[0, 0, 254]",254,a,0.02086004929151386,colour,0.5
115,21,0,1,13,47,647,920.8616706787143,921.3996598747326,"[9, 0, 245]",245,a,0.014658945263363421,colour,0.5
115,21,0,1,13,48,648,921.908619475551,922.5114483132493,"[72, 0, 182]",182,l,0.07959035295061767,colour,0.5
115,21,0,1,13,49,649,923.0179845801322,923.5834382276516,"[96, 0, 158]",158,l,0.04219113814178854,colour,0.5
115,21,0,1,13,50,650,924.0959991556592,924.6554584682453,"[85, 0, 169]",169,l,0.03614520945120603,colour,0.5
115,21,0,1,14,1,651,929.4702146145282,930.111398924957,"[40, 0, 214]",214,a,0.11698838626034558,colour,0.5
115,21,0,1,14,2,652,930.6273095124634,931.2313990510302,"[18, 0, 236]",236,a,0.08123269048519433,colour,0.5
115,21,0,1,14,3,653,931.7523173894733,932.3675062936964,"[55, 0, 199]",199,a,0.0918369919527322,colour,0.5
115,21,0,1,14,4,654,932.8772886387305,933.47142332769,"[60, 0, 194]",194,a,0.07097261038143188,colour,0.5
115,21,0,1,14,5,655,933.986714789411,934.5274530299939,"[99, 0, 155]",155,l,0.01743201434146613,colour,0.5
115,21,0,1,14,6,656,935.0491685125744,935.7754613511497,"[97, 0, 157]",157,l,0.20290784316603094,colour,0.5
115,21,0,1,14,7,657,936.2835028971313,936.8074999290984,"[87, 0, 167]",167,l,0.0006112487753853202,colour,0.5
115,21,0,1,14,8,658,937.3303780448623,938.0313847938087,"[63, 0, 191]",191,a,0.1776824058033526,colour,0.5
115,21,0,1,14,9,659,938.5491846601944,939.2314537955681,"[47, 0, 207]",207,a,0.15896527224685997,colour,0.5
115,21,0,1,14,10,660,939.7523193586385,940.3274171112571,"[15, 0, 239]",239,a,0.05184705869760364,colour,0.5
115,21,0,1,14,11,661,940.8460302694002,941.5914305429906,"[41, 0, 213]",213,a,0.2220617519924417,colour,0.5
115,21,0,1,14,12,662,942.1116312941303,942.727460591821,"[96, 0, 158]",158,l,0.09248683764599264,colour,0.5
115,21,0,1,14,13,663,943.2397899383213,943.8154595552478,"[69, 0, 185]",185,l,0.05232636909931898,colour,0.5
115,21,0,1,14,14,664,944.334244036465,944.9674966838211,"[26, 0, 228]",228,a,0.10983456892427057,colour,0.5
115,21,0,1,14,15,665,945.4748297010083,946.1274134878768,"[80, 0, 174]",174,l,0.12922005914151669,colour,0.5
115,21,0,1,14,16,666,946.6467202086933,947.2155069742585,"[10, 0, 244]",244,a,0.04547738854307681,colour,0.5
115,21,0,1,14,17,667,947.7259289249778,948.3514066601638,"[44, 0, 210]",210,a,0.10212306585162878,colour,0.5
115,21,0,1,14,18,668,948.8666945772711,949.4554320017342,"[36, 0, 218]",218,a,0.0654902751557529,colour,0.5
115,21,0,1,14,19,669,949.9759561003884,950.5034437887371,"[14, 0, 240]",240,a,0.004231480532325804,colour,0.5
115,21,0,1,14,20,670,951.0228229772765,951.6234005917795,"[50, 0, 204]",204,a,0.07724027440417558,colour,0.5
115,21,0,1,14,21,671,952.1321853250265,952.7114109767135,"[17, 0, 237]",237,a,0.05577055166941136,colour,0.5
115,21,0,1,14,22,672,953.2259312880924,953.8314343396341,"[35, 0, 219]",219,a,0.08220785297453403,colour,0.5
115,21,0,1,14,23,673,954.3509880019119,954.927442553686,"[33, 0, 221]",221,a,0.052999845589511096,colour,0.5
115,21,0,1,14,24,674,955.4332431163639,956.047398962779,"[19, 0, 235]",235,a,0.09092090628109872,colour,0.5
115,21,0,1,14,25,675,956.5581182672177,957.2073882344412,"[85, 0, 169]",169,l,0.12618468853179365,colour,0.5
115,21,0,1,14,26,676,957.7143789995462,958.2794852749212,"[88, 0, 166]",166,l,0.041684652329422534,colour,0.5
115,21,0,1,14,27,677,958.7924329595407,959.3914013195317,"[81, 0, 173]",173,l,0.07579289062414318,colour,0.5
115,21,0,1,14,28,678,959.9021237747511,960.5114538271446,"[90, 0, 164]",164,l,0.08621996140573174,colour,0.5
115,21,0,1,14,29,679,961.026831934927,961.6793704294832,"[62, 0, 192]",192,a,0.12918776366859674,colour,0.5
115,21,0,1,14,30,680,962.1987535564695,962.7594239452155,"[93, 0, 161]",161,l,0.035774206509813666,colour,0.5
115,21,0,1,14,31,681,963.2785266540013,963.8634469237877,"[6, 0, 248]",248,a,0.06167508976068348,colour,0.5
115,21,0,1,14,32,682,964.3722304755356,964.9834210559493,"[61, 0, 193]",193,l,0.08790956030134112,colour,0.5
115,21,0,1,14,33,683,965.4973234231584,966.5834386214847,"[92, 0, 162]",162,l,0.5629692673683167,colour,0.5
115,21,0,1,14,34,684,967.0910233062459,967.7193962027086,"[32, 0, 222]",222,a,0.10511550714727491,colour,0.5
115,21,0,1,14,35,685,968.2314892417053,968.9114244461525,"[30, 0, 224]",224,a,0.15651397523470223,colour,0.5
115,21,0,1,14,36,686,969.4191229523858,969.9673895577434,"[71, 0, 183]",183,l,0.024961954448372126,colour,0.5
115,21,0,1,14,37,687,970.4815491063055,971.2553980522789,"[16, 0, 238]",238,a,0.25076996884308755,colour,0.5
115,21,0,1,14,38,688,971.762794872513,972.3833908874076,"[39, 0, 215]",215,a,0.09725906874518842,colour,0.5
115,21,0,1,14,39,689,972.9034211032558,973.4794254890876,"[1, 0, 253]",253,a,0.05272848578169942,colour,0.5
115,21,0,1,14,40,690,973.9971713986015,974.5354288037634,"[46, 0, 208]",208,a,0.014908643555827439,colour,0.5
115,21,0,1,14,41,691,975.0439910140121,975.6314232331933,"[64, 0, 190]",190,a,0.06432685430627316,colour,0.5
115,21,0,1,14,42,692,976.125315076788,976.6794484109851,"[49, 0, 205]",205,a,0.03075148956850171,colour,0.5
115,21,0,1,14,43,693,977.1878487506183,977.751462349901,"[86, 0, 168]",168,l,0.04033651773352176,colour,0.5
115,21,0,1,14,44,694,978.266025984427,978.8795713696163,"[66, 0, 188]",188,l,0.09035810048226267,colour,0.5
115,21,0,1,14,45,695,979.3910803351318,980.0314533229684,"[37, 0, 217]",217,a,0.11740113678388298,colour,0.5
115,21,0,1,14,46,696,980.5472158244811,981.5753951062215,"[77, 0, 177]",177,l,0.5048951109638438,colour,0.5
115,21,0,1,14,47,697,982.0941405966878,982.6474007745273,"[70, 0, 184]",184,l,0.03018947143573314,colour,0.5
115,21,0,1,14,48,698,983.15659983363,983.7433932346758,"[2, 0, 252]",252,a,0.06352025782689452,colour,0.5
115,21,0,1,14,49,699,984.2502496982925,984.871412851382,"[67, 0, 187]",187,l,0.09781557298265398,colour,0.5
115,21,0,1,14,50,700,985.3826059524436,986.0234850322595,"[27, 0, 227]",227,a,0.11744879209436476,colour,0.5
115,21,0,1,15,1,701,992.1202265875181,992.847361862543,"[23, 0, 231]",231,a,0.2029539232607931,colour,0.5
115,21,0,1,15,2,702,993.3554022270255,994.2313738449011,"[15, 0, 239]",239,a,0.3532727020792663,colour,0.5
115,21,0,1,15,3,703,994.7460390916094,995.3514271400636,"[43, 0, 211]",211,a,0.08213026530575007,colour,0.5
115,21,0,1,15,4,704,995.8710091592511,996.4474046342075,"[20, 0, 234]",234,a,0.05296833801548928,colour,0.5
115,21,0,1,15,5,705,996.964748820872,997.519421330071,"[16, 0, 238]",238,a,0.03124261531047523,colour,0.5
115,21,0,1,15,6,706,998.027251774678,998.975406291429,"[5, 0, 249]",249,a,0.42504915187601,colour,0.5
115,21,0,1,15,7,707,999.4959402362583,1000.1754114902578,"[41, 0, 213]",213,a,0.15611343388445675,colour,0.5
115,21,0,1,15,8,708,1000.6834207408829,1001.2074477052083,"[47, 0, 207]",207,a,0.0005494151264429092,colour,0.5
115,21,0,1,15,9,709,1001.7303309409181,1002.30337203003,"[32, 0, 222]",222,a,0.04967775521799922,colour,0.5
115,21,0,1,15,10,710,1002.8249047680292,1003.4474109357689,"[21, 0, 233]",233,a,0.10861876665148884,colour,0.5
115,21,0,1,15,11,711,1003.9566005426459,1004.527438457706,"[70, 0, 184]",184,l,0.04742692585568875,colour,0.5
115,21,0,1,15,12,712,1005.0311918093357,1005.6954220137559,"[29, 0, 225]",225,a,0.1408550551859662,colour,0.5
115,21,0,1,15,13,713,1006.2031071293168,1006.8394396518124,"[51, 0, 203]",203,a,0.11292310862336308,colour,0.5
115,21,0,1,15,14,714,1007.3593198123854,1007.8953913726145,"[26, 0, 228]",228,a,0.012772423215210438,colour,0.5
115,21,0,1,15,15,715,1008.4062485231552,1009.0873731422471,"[75, 0, 179]",179,l,0.1577841283287853,colour,0.5
115,21,0,1,15,16,716,1009.5937179999892,1010.1433996937703,"[82, 0, 172]",172,l,0.026497559738345444,colour,0.5
115,21,0,1,15,17,717,1010.6580361897359,1011.2313600602793,"[90, 0, 164]",164,l,0.04999795195180923,colour,0.5
115,21,0,1,15,18,718,1011.7518227190012,1012.3353720111772,"[0, 0, 254]",254,a,0.060300961369648576,colour,0.5
115,21,0,1,15,19,719,1012.8454958205111,1013.3838753178716,"[40, 0, 214]",214,a,0.015046883374452591,colour,0.5
115,21,0,1,15,20,720,1013.8924840020481,1014.4633849323727,"[64, 0, 190]",190,l,0.04762857488822192,colour,0.5
115,21,0,1,15,21,721,1014.9705781342927,1015.5273667776491,"[57, 0, 197]",197,l,0.03336268791463226,colour,0.5
115,21,0,1,15,22,722,1016.0343937766738,1016.6233801117633,"[84, 0, 170]",170,l,0.06559779506642371,colour,0.5
115,21,0,1,15,23,723,1017.1438431643182,1017.6953633307712,"[48, 0, 206]",206,a,0.02830925094895065,colour,0.5
115,21,0,1,15,24,724,1018.2063390288968,1018.8956548555288,"[55, 0, 199]",199,a,0.16597494191955775,colour,0.5
115,21,0,1,15,25,725,1019.3999111483572,1020.015364323277,"[65, 0, 189]",189,a,0.09207290562335402,colour,0.5
115,21,0,1,15,26,726,1020.5269280333305,1021.3673818383832,"[91, 0, 163]",163,l,0.31715663720387965,colour,0.5
115,21,0,1,15,27,727,1021.8813294977881,1022.7593632929493,"[72, 0, 182]",182,l,0.35471693507861346,colour,0.5
115,21,0,1,15,28,728,1023.2719447008567,1023.9353486166801,"[76, 0, 178]",178,l,0.13997205265332013,colour,0.5
115,21,0,1,15,29,729,1024.4438265439821,1025.1273811925203,"[83, 0, 171]",171,l,0.16040438530035317,colour,0.5
115,21,0,1,15,30,730,1025.646926190122,1026.1913457085611,"[25, 0, 229]",229,a,0.020943150739185512,colour,0.5
115,21,0,1,15,31,731,1026.7094248116482,1027.3673625399824,"[45, 0, 209]",209,a,0.13369414873886853,colour,0.5
115,21,0,1,15,32,732,1027.882450383273,1028.543397488189,"[58, 0, 196]",196,l,0.137627094052732,colour,0.5
115,21,0,1,15,33,733,1029.054947019904,1029.6874147324124,"[33, 0, 221]",221,a,0.10907208325807005,colour,0.5
115,21,0,1,15,34,734,1030.183405380929,1030.8473882501712,"[38, 0, 216]",216,a,0.14075974456500262,colour,0.5
115,21,0,1,15,35,735,1031.355095420964,1031.9353698843624,"[36, 0, 218]",218,a,0.05692412634380162,colour,0.5
115,21,0,1,15,36,736,1032.448835870251,1033.0073519218713,"[1, 0, 253]",253,a,0.03500226861797273,colour,0.5
115,21,0,1,15,37,737,1033.5269591471879,1034.2153974850662,"[60, 0, 194]",194,l,0.16510336089413613,colour,0.5
115,21,0,1,15,38,738,1034.730128504103,1035.3033354023937,"[42, 0, 212]",212,a,0.04980693676043302,colour,0.5
115,21,0,1,15,39,739,1035.8135029287077,1036.4153770838166,"[27, 0, 227]",227,a,0.07565268140751868,colour,0.5
115,21,0,1,15,40,740,1036.925955785322,1037.4633628770243,"[97, 0, 157]",157,l,0.014084324007853866,colour,0.5
115,21,0,1,15,41,741,1037.9728939483175,1038.503369351849,"[63, 0, 191]",191,l,0.007417300250381231,colour,0.5
115,21,0,1,15,42,742,1039.0197734283283,1039.9514222564176,"[89, 0, 165]",165,l,0.4083674141438678,colour,0.5
115,21,0,1,15,43,743,1040.4728250253247,1041.215401423513,"[94, 0, 160]",160,l,0.2191835258854553,colour,0.5
115,21,0,1,15,44,744,1041.7228939483175,1042.3753666705452,"[79, 0, 175]",175,l,0.12920233595650643,colour,0.5
115,21,0,1,15,45,745,1042.8947494036984,1043.8393561564153,"[28, 0, 226]",226,a,0.42145845864433795,colour,0.5
115,21,0,1,15,46,746,1044.3478423545603,1045.0074011526303,"[35, 0, 219]",219,a,0.13609739660751075,colour,0.5
115,21,0,1,15,47,747,1045.5196458222345,1046.1593614813173,"[81, 0, 173]",173,l,0.1162822205806151,colour,0.5
115,21,0,1,15,48,748,1046.6759683883283,1047.311340320739,"[71, 0, 183]",183,l,0.11206570616923273,colour,0.5
115,21,0,1,15,49,749,1047.8253903801087,1048.4873831459554,"[61, 0, 193]",193,a,0.13860146887600422,colour,0.5
115,21,0,1,15,50,750,1048.9989133791532,1049.5994204950985,"[98, 0, 156]",156,l,0.07712527131661773,colour,0.5
115,21,0,1,16,1,751,1057.841977594886,1058.5593549434561,"[26, 0, 228]",228,a,0.19338110426906496,colour,0.5
115,21,0,1,16,2,752,1059.077155203675,1059.9113630062202,"[54, 0, 200]",200,a,0.31110598240047693,colour,0.5
115,21,0,1,16,3,753,1060.4208491791505,1061.0313678584062,"[60, 0, 194]",194,a,0.08718133927322924,colour,0.5
115,21,0,1,16,4,754,1061.5458747791126,1062.1433839399833,"[84, 0, 170]",170,l,0.0741584300994873,colour,0.5
115,21,0,1,16,5,755,1062.6552839943906,1063.3433312433772,"[23, 0, 231]",231,a,0.1647646534256637,colour,0.5
115,21,0,1,16,6,756,1063.8583615852986,1064.5273518115282,"[89, 0, 165]",165,l,0.14569148316513747,colour,0.5
115,21,0,1,16,7,757,1065.0458590252092,1065.6713253387716,"[21, 0, 233]",233,a,0.10217584110796452,colour,0.5
115,21,0,1,16,8,758,1066.1864962837426,1066.7673583651194,"[71, 0, 183]",183,l,0.05758381821215153,colour,0.5
115,21,0,1,16,9,759,1067.2802761174971,1067.9113488277653,"[41, 0, 213]",213,a,0.10778381326235831,colour,0.5
115,21,0,1,16,10,760,1068.4208464222029,1068.991328694392,"[20, 0, 234]",234,a,0.04722960898652673,colour,0.5
115,21,0,1,16,11,761,1069.4989287391072,1070.0553904903354,"[85, 0, 169]",169,l,0.03306809114292264,colour,0.5
115,21,0,1,16,12,762,1070.5771032159682,1071.2393287448213,"[37, 0, 217]",217,a,0.13905045331921428,colour,0.5
115,21,0,1,16,13,763,1071.7365879709832,1072.271337784361,"[70, 0, 184]",184,l,0.011463673203252256,colour,0.5
115,21,0,1,16,14,764,1072.7841885829112,1073.4153128869366,"[91, 0, 163]",163,l,0.10847501282114536,colour,0.5
115,21,0,1,16,15,765,1073.9240117617883,1074.551335452823,"[31, 0, 223]",223,a,0.1039898955496028,colour,0.5
115,21,0,1,16,16,766,1075.0646131803514,1075.6873568369774,"[9, 0, 245]",245,a,0.09929131355602294,colour,0.5
115,21,0,1,16,17,767,1076.2052295649191,1076.815357549116,"[28, 0, 226]",226,a,0.0867343241116032,colour,0.5
115,21,0,1,16,18,768,1077.3302953372477,1078.3354110019282,"[40, 0, 214]",214,a,0.4816684416728094,colour,0.5
115,21,0,1,16,19,769,1078.8458636726718,1079.43933039892,"[15, 0, 239]",239,a,0.06974617415107787,colour,0.5
115,21,0,1,16,20,770,1079.9553280264372,1080.47942273214,"[34, 0, 220]",220,a,0.0007593348855152726,colour,0.5
115,21,0,1,16,21,771,1081.0021173156565,1081.5753443001304,"[62, 0, 192]",192,l,0.049887281260453165,colour,0.5
115,21,0,1,16,22,772,1082.0958573711105,1082.8873242265545,"[3, 0, 251]",251,a,0.26812006311956793,colour,0.5
115,21,0,1,16,23,773,1083.408401678782,1084.0313505291706,"[6, 0, 248]",248,a,0.09960599651094526,colour,0.5
115,21,0,1,16,24,774,1084.5489719833713,1085.215370309772,"[42, 0, 212]",212,a,0.14292314019985497,colour,0.5
115,21,0,1,16,25,775,1085.7364942356944,1086.303347217734,"[63, 0, 191]",191,l,0.04351879272144288,colour,0.5
115,21,0,1,16,26,776,1086.8146336602513,1087.4233248945093,"[10, 0, 244]",244,a,0.08535704493988305,colour,0.5
115,21,0,1,16,27,777,1087.9396419310942,1090.1593890504446,"[88, 0, 166]",166,l,1.6967382468283176,colour,0.5
115,21,0,1,16,28,778,1090.674073201837,1091.2713243935723,"[61, 0, 193]",193,l,0.07393078703898937,colour,0.5
115,21,0,1,16,29,779,1091.7834225526312,1092.8553644177737,"[75, 0, 179]",179,l,0.5486604511970654,colour,0.5
115,21,0,1,16,30,780,1093.3615040818695,1093.9673143331893,"[53, 0, 201]",201,a,0.08266313886269927,colour,0.5
115,21,0,1,16,31,781,1094.4864576080581,1095.119351461879,"[81, 0, 173]",173,l,0.10950688924640417,colour,0.5
115,21,0,1,16,32,782,1095.62713306956,1096.4713075369364,"[55, 0, 199]",199,a,0.321514148497954,colour,0.5
115,21,0,1,16,33,783,1096.9864583957242,1097.5834315322572,"[87, 0, 167]",167,l,0.07361728569958359,colour,0.5
115,21,0,1,16,34,784,1098.095835315762,1098.6553663082886,"[39, 0, 215]",215,a,0.036170415580272675,colour,0.5
115,21,0,1,16,35,785,1099.1739802542143,1100.5753324847901,"[99, 0, 155]",155,l,0.8780944474274293,colour,0.5
115,21,0,1,16,36,786,1101.0958337403135,1101.639335991582,"[45, 0, 209]",209,a,0.020060148206539452,colour,0.5
115,21,0,1,16,37,787,1102.1582933710888,1102.7833256664453,"[1, 0, 253]",253,a,0.10162485064938664,colour,0.5
115,21,0,1,16,38,788,1103.2988877004245,1103.9033320940798,"[93, 0, 161]",161,l,0.0809471522225067,colour,0.5
115,21,0,1,16,39,789,1104.4239377188496,1104.9913720174227,"[7, 0, 247]",247,l,0.04407884168904275,colour,0.5
115,21,0,1,16,40,790,1105.5021055003162,1106.0792981192935,"[35, 0, 219]",219,a,0.05290374718606472,colour,0.5
115,21,0,1,16,41,791,1106.5970030688914,1107.1513975228881,"[52, 0, 202]",202,a,0.02998742845375091,colour,0.5
115,21,0,1,16,42,792,1107.6604733082931,1108.5513716866262,"[4, 0, 250]",250,a,0.36764571513049304,colour,0.5
115,21,0,1,16,43,793,1109.0679935598746,1109.72731723194,"[65, 0, 189]",189,l,0.136024535051547,colour,0.5
115,21,0,1,16,44,794,1110.2398840675596,1111.3033480054,"[59, 0, 195]",195,a,0.5401313239708543,colour,0.5
115,21,0,1,16,45,795,1111.817952599842,1112.415314068552,"[90, 0, 164]",164,l,0.0739823809126392,colour,0.5
115,21,0,1,16,46,796,1112.9273338521598,1113.4553091218695,"[11, 0, 243]",243,a,0.0048021633410826325,colour,0.5
115,21,0,1,16,47,797,1113.9742755598854,1114.975376359187,"[22, 0, 232]",232,a,0.4778276561992243,colour,0.5
115,21,0,1,16,48,798,1115.4904874394415,1116.1433473122306,"[56, 0, 198]",198,a,0.12824686570093036,colour,0.5
115,21,0,1,16,49,799,1116.6637233248912,1117.279297804227,"[98, 0, 156]",156,l,0.0923663207795471,colour,0.5
115,21,0,1,16,50,800,1117.7813150830334,1118.3913367288187,"[29, 0, 225]",225,a,0.08666579495184124,colour,0.5
