id,age,condition,counterbalance,block,trialinblock,trial,tstart,tend,trialstim,trialintensity,response,RT,trialtype,colourfreq
116,26,0,1,Practice,1,NA,5.799985956400633e-06,1.2626479000027757,"[48, 0, 206]",206,l,0.7021517000102904,colour,0.5
116,26,0,1,Practice,2,NA,1.767067099979613,2.7667308999807574,"[53, 0, 201]",201,l,0.4857117999927141,colour,0.5
116,26,0,1,Practice,3,NA,3.272612600005232,4.102679599978728,"[56, 0, 198]",198,l,0.3114720999728888,colour,0.5
116,26,0,1,Practice,4,NA,4.6111620999872684,5.462684500002069,"[10, 0, 244]",244,l,0.33841369999572635,colour,0.5
116,26,0,1,Practice,5,NA,5.97812200000044,7.830647499999031,"[46, 0, 208]",208,l,1.3403143000032287,colour,0.5
116,26,0,1,Practice,6,NA,8.335835799982306,9.878709699987667,"[69, 0, 185]",185,a,1.027504500001669,colour,0.5
116,26,0,1,Practice,7,NA,10.39972869999474,11.014675699989311,"[90, 0, 164]",164,a,0.09188110000104643,colour,0.5
116,26,0,1,Practice,8,NA,11.532414099987363,12.102628099994035,"[13, 0, 241]",241,l,0.05301949998829514,colour,0.5
116,26,0,1,Practice,9,NA,12.597106600005645,19.534657699987292,"[22, 0, 232]",232,l,6.420878100005211,colour,0.5
116,26,0,1,Practice,10,NA,20.049374099995475,21.046619700005976,"[89, 0, 165]",165,a,0.4738227000052575,colour,0.5
116,26,0,1,1,1,1,4.051742200012086,5.039933699998073,"[61, 0, 193]",193,l,0.4668068999890238,colour,0.5
116,26,0,1,1,2,2,5.5576799000264145,7.111948600009782,"[43, 0, 211]",211,l,1.0314170999918133,colour,0.5
116,26,0,1,1,3,3,7.624425700021675,8.39990950000356,"[7, 0, 247]",247,a,0.2562826999928802,colour,0.5
116,26,0,1,1,4,4,8.90949720001663,9.863912900007563,"[55, 0, 199]",199,l,0.43940909998491406,colour,0.5
116,26,0,1,1,5,5,10.377053900010651,10.959914300008677,"[66, 0, 188]",188,a,0.06749759998638183,colour,0.5
116,26,0,1,1,6,6,11.474372100026812,12.079935000016121,"[91, 0, 163]",163,l,0.08733189999475144,colour,0.5
116,26,0,1,1,7,7,12.587444900011178,16.351932700024918,"[95, 0, 159]",159,l,3.249018900009105,colour,0.5
116,26,0,1,1,8,8,16.857352200022433,17.4639289000188,"[49, 0, 205]",205,a,0.08740370001760311,colour,0.5
116,26,0,1,1,9,9,17.97414520001621,18.711896200024057,"[13, 0, 241]",241,a,0.21860030002426356,colour,0.5
116,26,0,1,1,10,10,19.21948010000051,19.775885800016113,"[34, 0, 220]",220,a,0.04123350000008941,colour,0.5
116,26,0,1,1,11,11,20.272770800016588,20.863962600007653,"[89, 0, 165]",165,l,0.0697634999814909,colour,0.5
116,26,0,1,1,12,12,21.391917900007684,22.615904200007208,"[83, 0, 171]",171,l,0.7128742999921087,colour,0.5
116,26,0,1,1,13,13,23.12569970000186,23.719967100012582,"[58, 0, 196]",196,a,0.0723534999997355,colour,0.5
116,26,0,1,1,14,14,24.226430800015805,24.91196029999992,"[19, 0, 235]",235,a,0.16428839997388422,colour,0.5
116,26,0,1,1,15,15,25.424179400026333,26.0638948000269,"[63, 0, 191]",191,l,0.12001490002148785,colour,0.5
116,26,0,1,1,16,16,26.57898840002599,27.135913500009337,"[81, 0, 173]",173,a,0.04038089999812655,colour,0.5
116,26,0,1,1,17,17,27.643719100015005,28.223919000010937,"[37, 0, 217]",217,l,0.0594660000060685,colour,0.5
116,26,0,1,1,18,18,28.733389400003944,29.679966700001387,"[39, 0, 215]",215,l,0.4271428999782074,colour,0.5
116,26,0,1,1,19,19,30.1900306000025,30.839976600022055,"[48, 0, 206]",206,l,0.13203530001919717,colour,0.5
116,26,0,1,1,20,20,31.344625600002473,31.864003200025763,"[45, 0, 209]",209,l,0.011007200024323538,colour,0.5
116,26,0,1,1,21,21,32.377630100003444,34.223927700018976,"[85, 0, 169]",169,a,1.3293937999987975,colour,0.5
116,26,0,1,1,22,22,34.74046190001536,36.135888000018895,"[57, 0, 197]",197,a,0.8759351000189781,colour,0.5
116,26,0,1,1,23,23,36.64208230000804,37.231910700007575,"[88, 0, 166]",166,l,0.07556579998345114,colour,0.5
116,26,0,1,1,24,24,37.73437520000152,38.983935800002655,"[3, 0, 251]",251,a,0.7336738999874797,colour,0.5
116,26,0,1,1,25,25,39.49214880002546,40.24792220001109,"[18, 0, 236]",236,a,0.2315775000024587,colour,0.5
116,26,0,1,1,26,26,40.76218780002091,41.47993650002172,"[32, 0, 222]",222,a,0.20512130000861362,colour,0.5
116,26,0,1,1,27,27,41.98360010000761,43.00797400000738,"[21, 0, 233]",233,a,0.5096419999899808,colour,0.5
116,26,0,1,1,28,28,43.523827700002585,44.57594270000118,"[93, 0, 161]",161,l,0.5281359999789856,colour,0.5
116,26,0,1,1,29,29,45.08947590002208,45.7758522000222,"[24, 0, 230]",230,a,0.1608295000041835,colour,0.5
116,26,0,1,1,30,30,46.289316300011706,47.263897600001656,"[5, 0, 249]",249,a,0.4436379999970086,colour,0.5
116,26,0,1,1,31,31,47.77396200000658,48.391868300008355,"[71, 0, 183]",183,l,0.0991955999925267,colour,0.5
116,26,0,1,1,32,32,48.90722150000511,50.2559088000271,"[67, 0, 187]",187,l,0.8148423000238836,colour,0.5
116,26,0,1,1,33,33,50.77382790000411,51.67194739999832,"[35, 0, 219]",219,l,0.3789161999884527,colour,0.5
116,26,0,1,1,34,34,52.18349500000477,53.3199019000167,"[96, 0, 158]",158,l,0.6079946999961976,colour,0.5
116,26,0,1,1,35,35,53.83967929999926,54.407941700017545,"[4, 0, 250]",250,a,0.04375360000994988,colour,0.5
116,26,0,1,1,36,36,54.91575240000384,55.76787830001558,"[86, 0, 168]",168,a,0.33945430000312626,colour,0.5
116,26,0,1,1,37,37,56.284623500017915,57.11985060002189,"[17, 0, 237]",237,a,0.30572470001061447,colour,0.5
116,26,0,1,1,38,38,57.639527400024235,58.927884500008076,"[82, 0, 172]",172,l,0.773056899983203,colour,0.5
116,26,0,1,1,39,39,59.439605300023686,60.27991170002497,"[97, 0, 157]",157,l,0.3149408000172116,colour,0.5
116,26,0,1,1,40,40,60.79046110002673,61.60785840000608,"[92, 0, 162]",162,l,0.2863632999942638,colour,0.5
116,26,0,1,1,41,41,62.123729700018885,62.77590800001053,"[29, 0, 225]",225,a,0.12756210000952706,colour,0.5
116,26,0,1,1,42,42,63.28401050000684,64.14383380001527,"[80, 0, 174]",174,l,0.3289163000008557,colour,0.5
116,26,0,1,1,43,43,64.65789030000451,65.51188880001428,"[26, 0, 228]",228,a,0.3392812999954913,colour,0.5
116,26,0,1,1,44,44,66.0190777000098,66.81588120001834,"[47, 0, 207]",207,l,0.2775825000135228,colour,0.5
116,26,0,1,1,45,45,67.31841800000984,67.96787790002418,"[42, 0, 212]",212,a,0.13802880002185702,colour,0.5
116,26,0,1,1,46,46,68.47998550001648,69.15188460002537,"[70, 0, 184]",184,l,0.15331439999863505,colour,0.5
116,26,0,1,1,47,47,69.65890210002544,70.35190840001451,"[87, 0, 167]",167,a,0.17149030001019128,colour,0.5
116,26,0,1,1,48,48,70.86015960000805,71.61582440001075,"[31, 0, 223]",223,a,0.2341690000030212,colour,0.5
116,26,0,1,1,49,49,72.1247198000201,73.23991170001682,"[12, 0, 242]",242,a,0.6013627999927849,colour,0.5
116,26,0,1,1,50,50,73.75777090000338,74.51984980000998,"[53, 0, 201]",201,l,0.24411460000555962,colour,0.5
116,26,0,1,2,1,51,79.1574166000064,79.89589850002085,"[84, 0, 170]",170,a,0.22077330001047812,colour,0.5
116,26,0,1,2,2,52,80.40709300001618,80.99199390001013,"[69, 0, 185]",185,l,0.061332999990554526,colour,0.5
116,26,0,1,2,3,53,81.4885894000181,82.31189360001008,"[89, 0, 165]",165,a,0.31036539998603985,colour,0.5
116,26,0,1,2,4,54,82.82264030000078,83.36792770001921,"[27, 0, 227]",227,l,0.023722800018731505,colour,0.5
116,26,0,1,2,5,55,83.87966170001891,84.65588580002077,"[29, 0, 225]",225,a,0.25923320002038963,colour,0.5
116,26,0,1,2,6,56,85.16060860001016,86.00788090002607,"[67, 0, 187]",187,l,0.3254317000100855,colour,0.5
116,26,0,1,2,7,57,86.51136510001379,87.37592880000011,"[6, 0, 248]",248,l,0.34410989997559227,colour,0.5
116,26,0,1,2,8,58,87.88345069999923,88.63184340001317,"[54, 0, 200]",200,a,0.23315009998623282,colour,0.5
116,26,0,1,2,9,59,89.14047540002503,89.95988600002602,"[64, 0, 190]",190,a,0.2877359000267461,colour,0.5
116,26,0,1,2,10,60,90.4714167000202,91.19991640001535,"[68, 0, 186]",186,l,0.21280189999379218,colour,0.5
116,26,0,1,2,11,61,91.70602340000914,92.68787550000707,"[60, 0, 194]",194,a,0.45716109999921173,colour,0.5
116,26,0,1,2,12,62,93.20694490001188,94.047862300009,"[34, 0, 220]",220,l,0.31764989998191595,colour,0.5
116,26,0,1,2,13,63,94.55728480001562,95.40787690001889,"[80, 0, 174]",174,a,0.31963480002013966,colour,0.5
116,26,0,1,2,14,64,95.92713350002305,96.63187140002265,"[19, 0, 235]",235,l,0.1890051000227686,colour,0.5
116,26,0,1,2,15,65,97.14165130001493,97.98392769999919,"[37, 0, 217]",217,a,0.31961569999111816,colour,0.5
116,26,0,1,2,16,66,98.48984120000387,99.18385940001463,"[20, 0, 234]",234,a,0.16328320000320673,colour,0.5
116,26,0,1,2,17,67,99.69158230000176,100.4159375000163,"[35, 0, 219]",219,l,0.20161350001581013,colour,0.5
116,26,0,1,2,18,68,100.92993920002482,101.78382580002653,"[90, 0, 164]",164,a,0.3354185000061989,colour,0.5
116,26,0,1,2,19,69,102.29024990001926,103.14386480001849,"[70, 0, 184]",184,l,0.33624659999622963,colour,0.5
116,26,0,1,2,20,70,103.65782270001364,104.19990500001586,"[74, 0, 180]",180,l,0.019025999994482845,colour,0.5
116,26,0,1,2,21,71,104.7078659000108,105.59987410000758,"[65, 0, 189]",189,l,0.36923439998645335,colour,0.5
116,26,0,1,2,22,72,106.1061910999997,106.83190030002152,"[16, 0, 238]",238,a,0.19534269999712706,colour,0.5
116,26,0,1,2,23,73,107.3396215000248,108.1438746000058,"[31, 0, 223]",223,l,0.2836618000001181,colour,0.5
116,26,0,1,2,24,74,108.6607526000007,109.59987480001291,"[57, 0, 197]",197,l,0.41954299999633804,colour,0.5
116,26,0,1,2,25,75,110.10753900001873,110.91982140002074,"[11, 0, 243]",243,a,0.3007798000180628,colour,0.5
116,26,0,1,2,26,76,111.43501370001468,112.2238639999996,"[0, 0, 254]",254,l,0.25456399997347035,colour,0.5
116,26,0,1,2,27,77,112.73255830002017,113.44788180000614,"[23, 0, 231]",231,l,0.20015069999499246,colour,0.5
116,26,0,1,2,28,78,113.95734350002022,114.71983929999988,"[58, 0, 196]",196,a,0.23923769997782074,colour,0.5
116,26,0,1,2,29,79,115.23554300001706,115.81591170001775,"[51, 0, 203]",203,l,0.06794420001097023,colour,0.5
116,26,0,1,2,30,80,116.31036360000144,117.05585350000183,"[52, 0, 202]",202,l,0.237577699997928,colour,0.5
116,26,0,1,2,31,81,117.57451330000185,118.09581840000465,"[72, 0, 182]",182,l,0.0027784999983850867,colour,0.5
116,26,0,1,2,32,82,118.62096300002304,119.21585300000152,"[8, 0, 246]",246,l,0.07893199997488409,colour,0.5
116,26,0,1,2,33,83,119.72489460001816,120.407790199999,"[48, 0, 206]",206,a,0.17460199998458847,colour,0.5
116,26,0,1,2,34,84,120.92427930000122,121.49594440002693,"[78, 0, 176]",176,a,0.039318100025411695,colour,0.5
116,26,0,1,2,35,85,122.00961249999818,122.53586150001502,"[15, 0, 239]",239,a,0.01694830000633374,colour,0.5
116,26,0,1,2,36,86,123.05716710002162,123.79980570002226,"[7, 0, 247]",247,a,0.2124838000163436,colour,0.5
116,26,0,1,2,37,87,124.30835110001499,125.06380460000946,"[71, 0, 183]",183,a,0.2323720999993384,colour,0.5
116,26,0,1,2,38,88,125.58266949999961,126.21580940001877,"[97, 0, 157]",157,l,0.11451169999781996,colour,0.5
116,26,0,1,2,39,89,126.72451930001262,127.39989739999874,"[81, 0, 173]",173,l,0.16747529999702238,colour,0.5
116,26,0,1,2,40,90,127.90840770001523,128.70379050000338,"[2, 0, 252]",252,l,0.2813865999924019,colour,0.5
116,26,0,1,2,41,91,129.20814750000136,129.84782940000878,"[13, 0, 241]",241,l,0.13097229998675175,colour,0.5
116,26,0,1,2,42,92,130.3573069999984,130.90381660001003,"[45, 0, 209]",209,l,0.0277590999903623,colour,0.5
116,26,0,1,2,43,93,131.4087677000207,131.9198413999984,"[12, 0, 242]",242,l,0.00406259999726899,colour,0.5
116,26,0,1,2,44,94,132.44714930001646,133.0718421000056,"[41, 0, 213]",213,l,0.1014662999950815,colour,0.5
116,26,0,1,2,45,95,133.59439030001522,134.32783100000233,"[21, 0, 233]",233,l,0.21293039998272434,colour,0.5
116,26,0,1,2,46,96,134.84052820000215,135.58382090000669,"[22, 0, 232]",232,l,0.2225429999816697,colour,0.5
116,26,0,1,2,47,97,136.10732910002116,136.85586010001134,"[95, 0, 159]",159,a,0.23060439998516813,colour,0.5
116,26,0,1,2,48,98,137.3604668000189,138.03981700001168,"[86, 0, 168]",168,a,0.17144149998784997,colour,0.5
116,26,0,1,2,49,99,138.5393461000058,139.19182190002175,"[77, 0, 177]",177,a,0.14205630001379177,colour,0.5
116,26,0,1,2,50,100,139.69451440000557,140.3918736000196,"[1, 0, 253]",253,a,0.17713590001221746,colour,0.5
116,26,0,1,3,1,101,144.99230130002252,145.60780570001225,"[69, 0, 185]",185,a,0.09507720000692643,colour,0.5
116,26,0,1,3,2,102,146.12960130002466,146.7517767000245,"[25, 0, 229]",229,a,0.10415810000267811,colour,0.5
116,26,0,1,3,3,103,147.25736110002617,147.96778970002197,"[23, 0, 231]",231,a,0.18769000002066605,colour,0.5
116,26,0,1,3,4,104,148.47532960001263,149.06380930001615,"[0, 0, 254]",254,a,0.07145529999979772,colour,0.5
116,26,0,1,3,5,105,149.5649851000053,150.21580420000828,"[61, 0, 193]",193,l,0.13876400000299327,colour,0.5
116,26,0,1,3,6,106,150.72452390001854,151.3438398000144,"[18, 0, 236]",236,a,0.10484590000123717,colour,0.5
116,26,0,1,3,7,107,151.85460109999985,152.92781780002406,"[72, 0, 182]",182,l,0.5468508000194561,colour,0.5
116,26,0,1,3,8,108,153.4409690000175,154.03979980002623,"[60, 0, 194]",194,l,0.08379810000769794,colour,0.5
116,26,0,1,3,9,109,154.55618170002708,155.5918039000244,"[97, 0, 157]",157,l,0.5267305000161286,colour,0.5
116,26,0,1,3,10,110,156.1034312999982,157.0797744000156,"[50, 0, 204]",204,l,0.46199770001112483,colour,0.5
116,26,0,1,3,11,111,157.58996370001114,158.1838075000269,"[33, 0, 221]",221,l,0.07843190000858158,colour,0.5
116,26,0,1,3,12,112,158.6935092000058,159.3278021000151,"[91, 0, 163]",163,a,0.1033813999965787,colour,0.5
116,26,0,1,3,13,113,159.83369570001378,160.43180820002453,"[74, 0, 180]",180,l,0.07198730000527576,colour,0.5
116,26,0,1,3,14,114,160.94276230002288,161.9437785000191,"[56, 0, 198]",198,l,0.492662200005725,colour,0.5
116,26,0,1,3,15,115,162.45740579999983,163.40782340001897,"[36, 0, 218]",218,a,0.4321009000123013,colour,0.5
116,26,0,1,3,16,116,163.92681580001954,164.57575650000945,"[15, 0, 239]",239,a,0.12777880000066943,colour,0.5
116,26,0,1,3,17,117,165.0922675000038,165.8157659000135,"[20, 0, 234]",234,a,0.20260550000239164,colour,0.5
116,26,0,1,3,18,118,166.34657370002242,166.94382270000642,"[13, 0, 241]",241,a,0.07988959999056533,colour,0.5
116,26,0,1,3,19,119,167.4467611,168.07179660000838,"[26, 0, 228]",228,a,0.11656399999628775,colour,0.5
116,26,0,1,3,20,120,168.5911772000254,169.14386750000995,"[78, 0, 176]",176,l,0.019377099990379065,colour,0.5
116,26,0,1,3,21,121,169.65000260001398,170.44781730000977,"[85, 0, 169]",169,l,0.2857748999958858,colour,0.5
116,26,0,1,3,22,122,170.95715980001842,171.87186550002662,"[59, 0, 195]",195,l,0.3956105000106618,colour,0.5
116,26,0,1,3,23,123,172.39098210001248,173.02385310002137,"[51, 0, 203]",203,l,0.11030670002219267,colour,0.5
116,26,0,1,3,24,124,173.52692120001302,174.04846040002303,"[92, 0, 162]",162,a,0.0010631000041030347,colour,0.5
116,26,0,1,3,25,125,174.57918490000884,175.18380690002232,"[7, 0, 247]",247,a,0.08776160000707023,colour,0.5
116,26,0,1,3,26,126,175.7130733000231,176.27981760000694,"[86, 0, 168]",168,l,0.04897479998180643,colour,0.5
116,26,0,1,3,27,127,176.79384720002417,177.36783450000803,"[84, 0, 170]",170,l,0.058337199996458367,colour,0.5
116,26,0,1,3,28,128,177.87445570001728,178.59980200001155,"[27, 0, 227]",227,l,0.21249860001262277,colour,0.5
116,26,0,1,3,29,129,179.1077665000048,179.81574560000445,"[95, 0, 159]",159,l,0.18683309998596087,colour,0.5
116,26,0,1,3,30,130,180.323841800011,180.97577150000143,"[34, 0, 220]",220,l,0.12834919997840188,colour,0.5
116,26,0,1,3,31,131,181.4826232000196,182.09588470001472,"[4, 0, 250]",250,a,0.09089880000101402,colour,0.5
116,26,0,1,3,32,132,182.60304170000018,183.15181470001698,"[53, 0, 201]",201,a,0.020851700013736263,colour,0.5
116,26,0,1,3,33,133,183.64711200000602,184.2557660000166,"[6, 0, 248]",248,l,0.09617229999275878,colour,0.5
116,26,0,1,3,34,134,184.77445190001163,185.45575690001715,"[44, 0, 210]",210,l,0.16674909999710508,colour,0.5
116,26,0,1,3,35,135,185.97386420000112,186.7758206000144,"[28, 0, 226]",226,l,0.2782741000119131,colour,0.5
116,26,0,1,3,36,136,187.28184080001665,188.00779950001743,"[16, 0, 238]",238,l,0.2122193000104744,colour,0.5
116,26,0,1,3,37,137,188.50255790000665,189.02388480000081,"[3, 0, 251]",251,l,0.012494700000388548,colour,0.5
116,26,0,1,3,38,138,189.52802880000672,190.15181070001563,"[47, 0, 207]",207,l,0.11490519999642856,colour,0.5
116,26,0,1,3,39,139,190.66886650002562,191.59979480001493,"[17, 0, 237]",237,a,0.39675200000056066,colour,0.5
116,26,0,1,3,40,140,192.1033480000042,192.70376010000473,"[64, 0, 190]",190,a,0.08868230000371113,colour,0.5
116,26,0,1,3,41,141,193.20973250002135,193.86379780000425,"[66, 0, 188]",188,a,0.1228992999822367,colour,0.5
116,26,0,1,3,42,142,194.3738065000216,195.12773360000574,"[80, 0, 174]",174,a,0.2299347999796737,colour,0.5
116,26,0,1,3,43,143,195.6248727000202,196.175830400025,"[10, 0, 244]",244,l,0.02706580000813119,colour,0.5
116,26,0,1,3,44,144,196.67185930002597,197.431804700027,"[65, 0, 189]",189,l,0.245186600019224,colour,0.5
116,26,0,1,3,45,145,197.94051610000315,198.66376090000267,"[90, 0, 164]",164,a,0.19223139999667183,colour,0.5
116,26,0,1,3,46,146,199.174176600005,199.95173600001726,"[58, 0, 196]",196,a,0.2533081000146922,colour,0.5
116,26,0,1,3,47,147,200.47376780002378,201.11978060001275,"[2, 0, 252]",252,a,0.12670429999707267,colour,0.5
116,26,0,1,3,48,148,201.62869920002413,202.5117723000003,"[76, 0, 178]",178,a,0.36418350000167266,colour,0.5
116,26,0,1,3,49,149,203.02384570002323,203.63976430002367,"[39, 0, 215]",215,l,0.09204920000047423,colour,0.5
116,26,0,1,3,50,150,204.14871860001585,204.72778410001774,"[22, 0, 232]",232,a,0.06179659999907017,colour,0.5
116,26,0,1,4,1,151,209.7122855000198,210.28773000001092,"[84, 0, 170]",170,a,0.05594809999456629,colour,0.5
116,26,0,1,4,2,152,210.81008640001528,211.39176040000166,"[21, 0, 233]",233,a,0.07287849998101592,colour,0.5
116,26,0,1,4,3,153,211.89965140001732,212.55973610002548,"[2, 0, 252]",252,l,0.15110630000708625,colour,0.5
116,26,0,1,4,4,154,213.07384840000304,213.9678160000185,"[45, 0, 209]",209,l,0.36186190001899377,colour,0.5
116,26,0,1,4,5,155,214.4799531000026,215.15976730000693,"[10, 0, 244]",244,l,0.15151429999968968,colour,0.5
116,26,0,1,4,6,156,215.6607309000101,216.22376480000094,"[46, 0, 208]",208,a,0.049887599976500496,colour,0.5
116,26,0,1,4,7,157,216.74770680000074,217.4477704000019,"[91, 0, 163]",163,a,0.18247770000016317,colour,0.5
116,26,0,1,4,8,158,217.95725980002317,219.5278211000259,"[83, 0, 171]",171,l,1.0513345000217669,colour,0.5
116,26,0,1,4,9,159,220.04060550002032,220.5838286000071,"[76, 0, 178]",178,l,0.022072099993238226,colour,0.5
116,26,0,1,4,10,160,221.1071792000148,221.71180520000053,"[27, 0, 227]",227,l,0.08551739997346886,colour,0.5
116,26,0,1,4,11,161,222.22123370002373,222.96781590001774,"[79, 0, 175]",175,l,0.23112260000198148,colour,0.5
116,26,0,1,4,12,162,223.4755765000009,224.0637437000114,"[87, 0, 167]",167,l,0.06870720000006258,colour,0.5
116,26,0,1,4,13,163,224.55800040002214,225.08776960000978,"[69, 0, 185]",185,a,0.020889500010525808,colour,0.5
116,26,0,1,4,14,164,225.60739270001068,226.17574279999826,"[80, 0, 174]",174,a,0.04428939998615533,colour,0.5
116,26,0,1,4,15,165,226.67941450001672,227.34371280000778,"[18, 0, 236]",236,a,0.14604890000191517,colour,0.5
116,26,0,1,4,16,166,227.86576230000355,228.49579539999831,"[65, 0, 189]",189,l,0.10969149999436922,colour,0.5
116,26,0,1,4,17,167,229.00013890000992,229.6157402000099,"[3, 0, 251]",251,l,0.09525169999687932,colour,0.5
116,26,0,1,4,18,168,230.1245612000057,230.72775710001588,"[0, 0, 254]",254,l,0.08789439999964088,colour,0.5
116,26,0,1,4,19,169,231.22513080001227,231.9037160000007,"[35, 0, 219]",219,a,0.15614279999863356,colour,0.5
116,26,0,1,4,20,170,232.41027420002501,233.07975560001796,"[71, 0, 183]",183,a,0.14802340001915582,colour,0.5
116,26,0,1,4,21,171,233.5789488000155,234.31181870002183,"[56, 0, 198]",198,a,0.2139733000076376,colour,0.5
116,26,0,1,4,22,172,234.81763590002083,235.43978960000095,"[6, 0, 248]",248,a,0.1025171999935992,colour,0.5
116,26,0,1,4,23,173,235.93866000001435,236.50374140002532,"[8, 0, 246]",246,a,0.04076510001323186,colour,0.5
116,26,0,1,4,24,174,237.00949310002034,237.75171350000892,"[49, 0, 205]",205,a,0.23332939998363145,colour,0.5
116,26,0,1,4,25,175,238.27041310002096,238.8237150000059,"[78, 0, 176]",176,l,0.03495739999925718,colour,0.5
116,26,0,1,4,26,176,239.32889130001422,239.92772900001728,"[23, 0, 231]",231,a,0.09140350000234321,colour,0.5
116,26,0,1,4,27,177,240.42531980000786,241.16776060001575,"[4, 0, 250]",250,l,0.22199890000047162,colour,0.5
116,26,0,1,4,28,178,241.67675240000244,242.23980300000403,"[73, 0, 181]",181,l,0.042592599987983704,colour,0.5
116,26,0,1,4,29,179,242.74016100002336,243.62375379999867,"[86, 0, 168]",168,l,0.3569586999947205,colour,0.5
116,26,0,1,4,30,180,244.13268540002173,244.81573310002568,"[34, 0, 220]",220,l,0.1682425000180956,colour,0.5
116,26,0,1,4,31,181,245.331889699999,246.0317121000262,"[58, 0, 196]",196,l,0.1688097000005655,colour,0.5
116,26,0,1,4,32,182,246.53580350000993,247.1597534000175,"[95, 0, 159]",159,a,0.09582780001801439,colour,0.5
116,26,0,1,4,33,183,247.6666640000185,248.1997515000112,"[36, 0, 218]",218,a,0.017620400001760572,colour,0.5
116,26,0,1,4,34,184,248.70623780001188,249.39180820001638,"[60, 0, 194]",194,a,0.161030799994478,colour,0.5
116,26,0,1,4,35,185,249.90098240002408,250.5757644000114,"[93, 0, 161]",161,l,0.15540089999558404,colour,0.5
116,26,0,1,4,36,186,251.09100100002252,251.903710100014,"[19, 0, 235]",235,a,0.2831400000141002,colour,0.5
116,26,0,1,4,37,187,252.42412680000416,253.04770020002616,"[77, 0, 177]",177,a,0.10532400000374764,colour,0.5
116,26,0,1,4,38,188,253.56887050002115,254.2156704000081,"[55, 0, 199]",199,l,0.12993100000312552,colour,0.5
116,26,0,1,4,39,189,254.72420650001732,255.27161880000494,"[17, 0, 237]",237,a,0.028487100003985688,colour,0.5
116,26,0,1,4,40,190,255.77526990001206,256.391718400002,"[16, 0, 238]",238,a,0.10791069999686442,colour,0.5
116,26,0,1,4,41,191,256.8939578999998,257.5037060000177,"[88, 0, 166]",166,a,0.10086669999873266,colour,0.5
116,26,0,1,4,42,192,258.02275150001515,259.75175950000994,"[64, 0, 190]",190,l,1.2086476999975275,colour,0.5
116,26,0,1,4,43,193,260.2736170999997,263.45573700001114,"[15, 0, 239]",239,l,2.658191499998793,colour,0.5
116,26,0,1,4,44,194,263.9795777000254,264.5117286000168,"[81, 0, 173]",173,l,0.023387799999909475,colour,0.5
116,26,0,1,4,45,195,265.02720110001974,266.47973849999835,"[92, 0, 162]",162,l,0.9447820999776013,colour,0.5
116,26,0,1,4,46,196,266.99047509999946,267.5277561000257,"[11, 0, 243]",243,l,0.013587000023107976,colour,0.5
116,26,0,1,4,47,197,268.04277250001905,268.9437206000148,"[37, 0, 217]",217,l,0.39085560000967234,colour,0.5
116,26,0,1,4,48,198,269.45709010001156,270.0637924000039,"[26, 0, 228]",228,l,0.08778559998609126,colour,0.5
116,26,0,1,4,49,199,270.5756250000268,271.16770450002514,"[70, 0, 184]",184,l,0.0715537000214681,colour,0.5
116,26,0,1,4,50,200,271.6752153999987,272.26379130000714,"[9, 0, 245]",245,l,0.06592689998797141,colour,0.5
116,26,0,1,5,1,201,276.9898792000022,278.5517559,"[80, 0, 174]",174,l,1.042274899984477,colour,0.5
116,26,0,1,5,2,202,279.05853440001374,280.5917871000129,"[61, 0, 193]",193,l,1.0107422999863047,colour,0.5
116,26,0,1,5,3,203,281.10101410001516,282.27972650001175,"[52, 0, 202]",202,a,0.6657970999949612,colour,0.5
116,26,0,1,5,4,204,282.78633850000915,283.6077156000247,"[69, 0, 185]",185,l,0.30219500002567656,colour,0.5
116,26,0,1,5,5,205,284.1241091999982,284.9757098000264,"[99, 0, 155]",155,l,0.3279218000243418,colour,0.5
116,26,0,1,5,6,206,285.4912683000148,286.3997327000252,"[66, 0, 188]",188,l,0.3858454000146594,colour,0.5
116,26,0,1,5,7,207,286.92040480001015,287.6957350000157,"[96, 0, 158]",158,l,0.26289499999256805,colour,0.5
116,26,0,1,5,8,208,288.1928171000036,289.03173210000386,"[83, 0, 171]",171,l,0.31830809998791665,colour,0.5
116,26,0,1,5,9,209,289.54079610001645,290.29576830001315,"[50, 0, 204]",204,a,0.23505109999678098,colour,0.5
116,26,0,1,5,10,210,290.81133980001323,291.53564740001457,"[56, 0, 198]",198,a,0.20931559999007732,colour,0.5
116,26,0,1,5,11,211,292.05452460001106,293.0077623000252,"[33, 0, 221]",221,a,0.42672400001902133,colour,0.5
116,26,0,1,5,12,212,293.52403790000244,294.36770719999913,"[0, 0, 254]",254,a,0.3282053000002634,colour,0.5
116,26,0,1,5,13,213,294.8790133000002,295.62376760001644,"[36, 0, 218]",218,l,0.22616379999089986,colour,0.5
116,26,0,1,5,14,214,296.14133770001354,297.07971190000535,"[29, 0, 225]",225,l,0.4228815999813378,colour,0.5
116,26,0,1,5,15,215,297.59486940002535,298.37565580001683,"[47, 0, 207]",207,l,0.26611970001249574,colour,0.5
116,26,0,1,5,16,216,298.8926599000115,299.7516729000199,"[20, 0, 234]",234,l,0.3351109999930486,colour,0.5
116,26,0,1,5,17,217,300.2639681000146,301.0957946999988,"[15, 0, 239]",239,l,0.3148534999927506,colour,0.5
116,26,0,1,5,18,218,301.6065482000122,302.4476830000058,"[25, 0, 229]",229,l,0.3284673999878578,colour,0.5
116,26,0,1,5,19,219,302.96378080002614,303.911797400011,"[41, 0, 213]",213,l,0.42956419999245554,colour,0.5
116,26,0,1,5,20,220,304.42032900001504,305.27172900000005,"[92, 0, 162]",162,l,0.3400825999851804,colour,0.5
116,26,0,1,5,21,221,305.7835861000058,306.5997219000128,"[98, 0, 156]",156,a,0.29669879999710247,colour,0.5
116,26,0,1,5,22,222,307.1089406000101,308.0957339000015,"[73, 0, 181]",181,l,0.4799087999854237,colour,0.5
116,26,0,1,5,23,223,308.60771900002146,309.20772110001417,"[23, 0, 231]",231,l,0.07689009999739937,colour,0.5
116,26,0,1,5,24,224,309.7102651000023,310.6556831000198,"[59, 0, 195]",195,l,0.42710540001280606,colour,0.5
116,26,0,1,5,25,225,311.174095400027,312.03167680001934,"[19, 0, 235]",235,l,0.3408569000021089,colour,0.5
116,26,0,1,5,26,226,312.5413530000078,313.22371120000025,"[32, 0, 222]",222,a,0.15932219999376684,colour,0.5
116,26,0,1,5,27,227,313.72972870001104,314.2637133000244,"[95, 0, 159]",159,l,0.015796300023794174,colour,0.5
116,26,0,1,5,28,228,314.77913760000956,315.33570580001106,"[7, 0, 247]",247,a,0.038335799996275455,colour,0.5
116,26,0,1,5,29,229,315.84459360002074,316.6957942000008,"[82, 0, 172]",172,a,0.33787749998737127,colour,0.5
116,26,0,1,5,30,230,317.2044272000203,318.06368230000953,"[54, 0, 200]",200,a,0.34940939999069087,colour,0.5
116,26,0,1,5,31,231,318.57028810001793,319.14371070000925,"[84, 0, 170]",170,l,0.04528049999498762,colour,0.5
116,26,0,1,5,32,232,319.65684550002334,320.6557442000194,"[86, 0, 168]",168,l,0.48067030002130195,colour,0.5
116,26,0,1,5,33,233,321.16826880001463,321.9996906000015,"[24, 0, 230]",230,l,0.3120442999934312,colour,0.5
116,26,0,1,5,34,234,322.5173722000036,323.4637116000231,"[22, 0, 232]",232,l,0.4184876000217628,colour,0.5
116,26,0,1,5,35,235,323.97164170001633,324.82368720002705,"[27, 0, 227]",227,l,0.325715000013588,colour,0.5
116,26,0,1,5,36,236,325.3385858000256,326.1596738000226,"[46, 0, 208]",208,l,0.29478140000719577,colour,0.5
116,26,0,1,5,37,237,326.6715909000195,327.2637481999991,"[9, 0, 245]",245,a,0.06108329998096451,colour,0.5
116,26,0,1,5,38,238,327.7606521000271,328.35169480001787,"[1, 0, 253]",253,l,0.07719370000995696,colour,0.5
116,26,0,1,5,39,239,328.8596643000201,329.51967520001926,"[55, 0, 199]",199,l,0.15150120001635514,colour,0.5
116,26,0,1,5,40,240,330.02843980002217,330.7836520000128,"[12, 0, 242]",242,l,0.23605820001102984,colour,0.5
116,26,0,1,5,41,241,331.2913771000167,332.10369630000787,"[48, 0, 206]",206,l,0.3034075000032317,colour,0.5
116,26,0,1,5,42,242,332.61245630000485,333.271673500014,"[74, 0, 180]",180,a,0.1468516000022646,colour,0.5
116,26,0,1,5,43,243,333.77726830000756,334.38366750002024,"[28, 0, 226]",226,l,0.08854799999971874,colour,0.5
116,26,0,1,5,44,244,334.8908752000134,335.70370260000345,"[51, 0, 203]",203,l,0.28267019998747855,colour,0.5
116,26,0,1,5,45,245,336.2236400000111,336.9756050000142,"[39, 0, 215]",215,l,0.2399890999950003,colour,0.5
116,26,0,1,5,46,246,337.49434460001066,338.0318751000159,"[18, 0, 236]",236,l,0.01927560000331141,colour,0.5
116,26,0,1,5,47,247,338.5333540000138,339.1596476000268,"[68, 0, 186]",186,a,0.10661070002242923,colour,0.5
116,26,0,1,5,48,248,339.6629124000028,340.44765830002143,"[70, 0, 184]",184,a,0.26548420000472106,colour,0.5
116,26,0,1,5,49,249,340.95799819999957,341.95967740000924,"[94, 0, 160]",160,a,0.48692470000241883,colour,0.5
116,26,0,1,5,50,250,342.4693984000187,343.31968320001033,"[14, 0, 240]",240,l,0.32066940001095645,colour,0.5
116,26,0,1,6,1,251,348.23091030001524,349.4236493000062,"[12, 0, 242]",242,l,0.6705807999824174,colour,0.5
116,26,0,1,6,2,252,349.9315989000024,350.52769110002555,"[65, 0, 189]",189,l,0.07969900002353825,colour,0.5
116,26,0,1,6,3,253,351.03915210001287,351.71161240001675,"[83, 0, 171]",171,l,0.1619234000099823,colour,0.5
116,26,0,1,6,4,254,352.22497690000455,352.8395625000121,"[49, 0, 205]",205,l,0.09562219999497756,colour,0.5
116,26,0,1,6,5,255,353.3560677000205,354.10362600002554,"[40, 0, 214]",214,l,0.222957200021483,colour,0.5
116,26,0,1,6,6,256,354.60622720001265,355.44765230000485,"[35, 0, 219]",219,l,0.33330989998648874,colour,0.5
116,26,0,1,6,7,257,355.9571394000086,356.59163350000745,"[3, 0, 251]",251,l,0.11543380000512116,colour,0.5
116,26,0,1,6,8,258,357.09221900001285,357.67972150002606,"[86, 0, 168]",168,a,0.06325590002234094,colour,0.5
116,26,0,1,6,9,259,358.1995786000043,358.97564650001004,"[29, 0, 225]",225,l,0.25928749999729916,colour,0.5
116,26,0,1,6,10,260,359.482388000004,360.1436671000265,"[79, 0, 175]",175,a,0.13622949999989942,colour,0.5
116,26,0,1,6,11,261,360.65798280001036,361.2876708000258,"[70, 0, 184]",184,l,0.10970390000147745,colour,0.5
116,26,0,1,6,12,262,361.78827640000964,362.73575700001675,"[33, 0, 221]",221,a,0.42002900000079535,colour,0.5
116,26,0,1,6,13,263,363.2442907000077,363.81570420000935,"[28, 0, 226]",226,a,0.05050690000643954,colour,0.5
116,26,0,1,6,14,264,364.33167900002445,365.2077150000259,"[66, 0, 188]",188,l,0.35963090002769604,colour,0.5
116,26,0,1,6,15,265,365.72416660000454,366.5756563000032,"[71, 0, 183]",183,a,0.3209848999977112,colour,0.5
116,26,0,1,6,16,266,367.08826129999943,367.6796420000028,"[88, 0, 166]",166,l,0.06018259999109432,colour,0.5
116,26,0,1,6,17,267,368.177301800024,368.8396422000078,"[24, 0, 230]",230,a,0.1462967999977991,colour,0.5
116,26,0,1,6,18,268,369.3490764000162,369.9597111000039,"[57, 0, 197]",197,a,0.09412530000554398,colour,0.5
116,26,0,1,6,19,269,370.47467290001805,371.12753880000673,"[99, 0, 155]",155,l,0.14328739998745732,colour,0.5
116,26,0,1,6,20,270,371.64086290000705,372.3356063000101,"[27, 0, 227]",227,l,0.17100410000421107,colour,0.5
116,26,0,1,6,21,271,372.8433950000035,373.64762940001674,"[10, 0, 244]",244,a,0.2971516000106931,colour,0.5
116,26,0,1,6,22,272,374.1577287000255,374.9596583000093,"[67, 0, 187]",187,l,0.27053959999466315,colour,0.5
116,26,0,1,6,23,273,375.473759000015,376.3356146000151,"[21, 0, 233]",233,l,0.3383847000077367,colour,0.5
116,26,0,1,6,24,274,376.85492940002587,377.4795813000237,"[36, 0, 218]",218,a,0.09886640001786873,colour,0.5
116,26,0,1,6,25,275,377.9981778000074,378.6555908000155,"[26, 0, 228]",228,a,0.1412555999995675,colour,0.5
116,26,0,1,6,26,276,379.1713412000099,379.7915685000189,"[64, 0, 190]",190,l,0.10068530001444742,colour,0.5
116,26,0,1,6,27,277,380.28540270001395,380.86365210000076,"[62, 0, 192]",192,l,0.06532009999500588,colour,0.5
116,26,0,1,6,28,278,381.36140250001336,382.04757730002166,"[68, 0, 186]",186,l,0.16574920000857674,colour,0.5
116,26,0,1,6,29,279,382.55786300002364,383.0716750000138,"[93, 0, 161]",161,l,0.0049276000063400716,colour,0.5
116,26,0,1,6,30,280,383.5976413000026,384.1597032000136,"[37, 0, 217]",217,a,0.03926590000628494,colour,0.5
116,26,0,1,6,31,281,384.66019930000766,385.23963240001467,"[74, 0, 180]",180,a,0.0642408000130672,colour,0.5
116,26,0,1,6,32,282,385.73885110000265,386.27185420002206,"[94, 0, 160]",160,a,0.02443180000409484,colour,0.5
116,26,0,1,6,33,283,386.7731352999981,387.31161430000793,"[46, 0, 208]",208,l,0.029489000007743016,colour,0.5
116,26,0,1,6,34,284,387.82360390000395,388.3676841999986,"[41, 0, 213]",213,l,0.012965899979462847,colour,0.5
116,26,0,1,6,35,285,388.87965100002475,389.46365250000963,"[7, 0, 247]",247,a,0.06056899999384768,colour,0.5
116,26,0,1,6,36,286,389.9706967000093,390.5196397000109,"[13, 0, 241]",241,l,0.037187400012044236,colour,0.5
116,26,0,1,6,37,287,391.02472690001014,391.679545800027,"[20, 0, 234]",234,a,0.14628330001141876,colour,0.5
116,26,0,1,6,38,288,392.17630170000484,392.7916524000175,"[97, 0, 157]",157,l,0.10694170001079328,colour,0.5
116,26,0,1,6,39,289,393.30375730001833,393.8556626000209,"[8, 0, 246]",246,l,0.023989400011487305,colour,0.5
116,26,0,1,6,40,290,394.36304780002683,394.9756070000003,"[81, 0, 173]",173,l,0.0911502999952063,colour,0.5
116,26,0,1,6,41,291,395.4911697000207,396.07168390002334,"[60, 0, 194]",194,a,0.04674770002020523,colour,0.5
116,26,0,1,6,42,292,396.574205300014,397.1835568000097,"[44, 0, 210]",210,l,0.10078169999178499,colour,0.5
116,26,0,1,6,43,293,397.6941144000157,398.27157480001915,"[23, 0, 231]",231,a,0.06927579999319278,colour,0.5
116,26,0,1,6,44,294,398.784396300005,399.3116830000072,"[69, 0, 185]",185,a,0.007900500000687316,colour,0.5
116,26,0,1,6,45,295,399.8120617000095,400.5275758000207,"[22, 0, 232]",232,l,0.20274950002203695,colour,0.5
116,26,0,1,6,46,296,401.04082970001036,401.7276197000174,"[90, 0, 164]",164,a,0.1681819999939762,colour,0.5
116,26,0,1,6,47,297,402.23927440002444,403.0315937999985,"[56, 0, 198]",198,a,0.26214299999992363,colour,0.5
116,26,0,1,6,48,298,403.526662600023,404.3595880000212,"[51, 0, 203]",203,l,0.3106016000092495,colour,0.5
116,26,0,1,6,49,299,404.87110270000994,405.3996592000185,"[4, 0, 250]",250,l,0.0017556000093463808,colour,0.5
116,26,0,1,6,50,300,405.9134227000177,406.44760210000095,"[91, 0, 163]",163,l,0.021491199993761256,colour,0.5
116,26,0,1,7,1,301,411.11143170000287,411.87176710000494,"[15, 0, 239]",239,a,0.2407649999950081,colour,0.5
116,26,0,1,7,2,302,412.37573290002183,413.0396105000109,"[89, 0, 165]",165,a,0.14105159998871386,colour,0.5
116,26,0,1,7,3,303,413.5450530000089,414.2155918000208,"[63, 0, 191]",191,l,0.15720560000045225,colour,0.5
116,26,0,1,7,4,304,414.72789120001835,415.4076572000049,"[60, 0, 194]",194,a,0.1614566000062041,colour,0.5
116,26,0,1,7,5,305,415.9242615000112,416.5116154999996,"[12, 0, 242]",242,l,0.0711371999932453,colour,0.5
116,26,0,1,7,6,306,417.009615500021,417.6556376000226,"[81, 0, 173]",173,l,0.13768280000658706,colour,0.5
116,26,0,1,7,7,307,418.1688839000126,418.7756168000051,"[51, 0, 203]",203,a,0.0933867999992799,colour,0.5
116,26,0,1,7,8,308,419.27571800001897,419.89560280001024,"[4, 0, 250]",250,a,0.10033779998775572,colour,0.5
116,26,0,1,7,9,309,420.4042769000225,420.951610100019,"[79, 0, 175]",175,a,0.016473399999085814,colour,0.5
116,26,0,1,7,10,310,421.462946500018,422.0236039000156,"[40, 0, 214]",214,l,0.05271700001321733,colour,0.5
116,26,0,1,7,11,311,422.52531620001537,423.1275569999998,"[83, 0, 171]",171,l,0.0796451999922283,colour,0.5
116,26,0,1,7,12,312,423.6414736000006,424.35155620001024,"[22, 0, 232]",232,l,0.2022106999938842,colour,0.5
116,26,0,1,7,13,313,424.8566281000094,425.4715525000065,"[94, 0, 160]",160,a,0.09116579999681562,colour,0.5
116,26,0,1,7,14,314,425.9900779000018,426.655622100021,"[56, 0, 198]",198,a,0.13479549999465235,colour,0.5
116,26,0,1,7,15,315,427.15902130000177,427.7918019000208,"[30, 0, 224]",224,l,0.12465720000909641,colour,0.5
116,26,0,1,7,16,316,428.30298440001206,428.8475693000073,"[88, 0, 166]",166,l,0.03085149999242276,colour,0.5
116,26,0,1,7,17,317,429.35889310002676,430.0315401000262,"[43, 0, 211]",211,a,0.16546250000828877,colour,0.5
116,26,0,1,7,18,318,430.53015780000715,431.11961010002415,"[39, 0, 215]",215,l,0.06528290000278503,colour,0.5
116,26,0,1,7,19,319,431.6271022000001,432.34364230002393,"[25, 0, 229]",229,l,0.18934910002280958,colour,0.5
116,26,0,1,7,20,320,432.85736510000424,433.6155971000262,"[21, 0, 233]",233,l,0.23485100001562387,colour,0.5
116,26,0,1,7,21,321,434.12663090002025,434.7996286000125,"[37, 0, 217]",217,l,0.14211980000254698,colour,0.5
116,26,0,1,7,22,322,435.30912560000434,436.271619200008,"[90, 0, 164]",164,a,0.4408168999943882,colour,0.5
116,26,0,1,7,23,323,436.77511909999885,437.37558770002215,"[54, 0, 200]",200,a,0.07796940000844188,colour,0.5
116,26,0,1,7,24,324,437.8863754000049,438.7195759000024,"[82, 0, 172]",172,l,0.3203780999756418,colour,0.5
116,26,0,1,7,25,325,439.2300131000229,440.327632200002,"[52, 0, 202]",202,a,0.5784486999909859,colour,0.5
116,26,0,1,7,26,326,440.8302378000226,441.59157270001015,"[18, 0, 236]",236,a,0.2420323999831453,colour,0.5
116,26,0,1,7,27,327,442.09805330002564,442.7996084000042,"[29, 0, 225]",225,a,0.1926374000031501,colour,0.5
116,26,0,1,7,28,328,443.3074487000122,444.0556024000107,"[74, 0, 180]",180,l,0.2349372000026051,colour,0.5
116,26,0,1,7,29,329,444.5746646000189,445.2156341000227,"[38, 0, 216]",216,a,0.12207760001183487,colour,0.5
116,26,0,1,7,30,330,445.71268950001104,446.25560180001776,"[36, 0, 218]",218,a,0.026165999996010214,colour,0.5
116,26,0,1,7,31,331,446.7506534999993,447.8076122000057,"[3, 0, 251]",251,a,0.548830599989742,colour,0.5
116,26,0,1,7,32,332,448.3240599000128,449.13564960000804,"[19, 0, 235]",235,a,0.28047030000016093,colour,0.5
116,26,0,1,7,33,333,449.65726250002626,450.43159860000014,"[8, 0, 246]",246,a,0.2504248999757692,colour,0.5
116,26,0,1,7,34,334,450.93672960001277,451.96758280001814,"[73, 0, 181]",181,a,0.50301230000332,colour,0.5
116,26,0,1,7,35,335,452.4747269000218,453.6716561000212,"[72, 0, 182]",182,l,0.6880910000181757,colour,0.5
116,26,0,1,7,36,336,454.1818396000017,454.87155670000357,"[70, 0, 184]",184,l,0.17357659997651353,colour,0.5
116,26,0,1,7,37,337,455.3840973000042,456.0235782000236,"[77, 0, 177]",177,l,0.10373830000753514,colour,0.5
116,26,0,1,7,38,338,456.5449169000203,457.59163760000956,"[41, 0, 213]",213,a,0.5384855000011157,colour,0.5
116,26,0,1,7,39,339,458.1074323000212,458.96759850002127,"[98, 0, 156]",156,l,0.3359368999954313,colour,0.5
116,26,0,1,7,40,340,459.4779974000121,460.15156800000113,"[7, 0, 247]",247,a,0.15339429999585263,colour,0.5
116,26,0,1,7,41,341,460.6758581000031,461.6316236999992,"[31, 0, 223]",223,a,0.43392989999847487,colour,0.5
116,26,0,1,7,42,342,462.14383520002593,462.9515574000252,"[45, 0, 209]",209,a,0.2863556000229437,colour,0.5
116,26,0,1,7,43,343,463.4586998000159,464.18361380000715,"[27, 0, 227]",227,a,0.20286590000614524,colour,0.5
116,26,0,1,7,44,344,464.6968819000176,465.39958690002095,"[65, 0, 189]",189,l,0.18632140001864173,colour,0.5
116,26,0,1,7,45,345,465.9025634000136,466.5515747000172,"[33, 0, 221]",221,a,0.13429710001219064,colour,0.5
116,26,0,1,7,46,346,467.0583361000172,467.65554980002344,"[9, 0, 245]",245,l,0.08787860002485104,colour,0.5
116,26,0,1,7,47,347,468.15858460002346,468.7595573000144,"[61, 0, 193]",193,a,0.08704859999124892,colour,0.5
116,26,0,1,7,48,348,469.2585931000067,470.1836336000124,"[95, 0, 159]",159,l,0.4039350000093691,colour,0.5
116,26,0,1,7,49,349,470.70091790001607,471.48764260002645,"[84, 0, 170]",170,l,0.27235470002051443,colour,0.5
116,26,0,1,7,50,350,472.00432730000466,472.68748050002614,"[57, 0, 197]",197,a,0.1565081000153441,colour,0.5
116,26,0,1,8,1,351,476.9124449000228,477.55159720001393,"[49, 0, 205]",205,a,0.1197622999898158,colour,0.5
116,26,0,1,8,2,352,478.0664808000147,479.1356331999996,"[7, 0, 247]",247,a,0.5484787999885157,colour,0.5
116,26,0,1,8,3,353,479.6575408000208,480.22361370001454,"[53, 0, 201]",201,l,0.053823199996259063,colour,0.5
116,26,0,1,8,4,354,480.72733930000686,482.0715960000234,"[17, 0, 237]",237,a,0.8363425999996252,colour,0.5
116,26,0,1,8,5,355,482.57975850001094,483.1756077000173,"[64, 0, 190]",190,l,0.07678510001278482,colour,0.5
116,26,0,1,8,6,356,483.69092260001344,484.3355662000249,"[5, 0, 249]",249,a,0.12660509999841452,colour,0.5
116,26,0,1,8,7,357,484.8533187000139,485.4235846000083,"[76, 0, 178]",178,l,0.041881099983584136,colour,0.5
116,26,0,1,8,8,358,485.92949020001106,486.54354020001483,"[72, 0, 182]",182,l,0.09229749999940395,colour,0.5
116,26,0,1,8,9,359,487.0508356000064,487.59157760001835,"[61, 0, 193]",193,l,0.039300300006289035,colour,0.5
116,26,0,1,8,10,360,488.10803000000305,488.96757710000384,"[84, 0, 170]",170,l,0.3366268999816384,colour,0.5
116,26,0,1,8,11,361,489.47726480002166,490.2875552000187,"[81, 0, 173]",173,l,0.28970079999999143,colour,0.5
116,26,0,1,8,12,362,490.79849580000155,491.7675673000049,"[21, 0, 233]",233,l,0.4472922999993898,colour,0.5
116,26,0,1,8,13,363,492.2753901000251,493.3995909000223,"[44, 0, 210]",210,l,0.6011180000205059,colour,0.5
116,26,0,1,8,14,364,493.9052483999985,494.5755640999996,"[10, 0, 244]",244,a,0.14407429998391308,colour,0.5
116,26,0,1,8,15,365,495.09089920000406,496.1035394000064,"[95, 0, 159]",159,l,0.4806947000033688,colour,0.5
116,26,0,1,8,16,366,496.6084033000225,497.88754809999955,"[52, 0, 202]",202,a,0.7564641999779269,colour,0.5
116,26,0,1,8,17,367,498.39926630002446,499.47166670000297,"[54, 0, 200]",200,l,0.5530904000042938,colour,0.5
116,26,0,1,8,18,368,499.9850823000015,500.5595898000174,"[14, 0, 240]",240,a,0.060500599996885285,colour,0.5
116,26,0,1,8,19,369,501.06188280001516,502.0155451000028,"[8, 0, 246]",246,a,0.44145669997669756,colour,0.5
116,26,0,1,8,20,370,502.51672290000715,503.34359260002384,"[39, 0, 215]",215,a,0.31849550001788884,colour,0.5
116,26,0,1,8,21,371,503.8574403000239,504.51156470002024,"[55, 0, 199]",199,l,0.13051040002028458,colour,0.5
116,26,0,1,8,22,372,505.0293725000229,505.75159230001736,"[2, 0, 252]",252,a,0.20396650000475347,colour,0.5
116,26,0,1,8,23,373,506.26300370000536,507.31159620001563,"[48, 0, 206]",206,l,0.5301258999970742,colour,0.5
116,26,0,1,8,24,374,507.81915020002634,508.61560840002494,"[0, 0, 254]",254,a,0.2787980000139214,colour,0.5
116,26,0,1,8,25,375,509.1260840000177,510.231569399999,"[6, 0, 248]",248,a,0.5828941999934614,colour,0.5
116,26,0,1,8,26,376,510.7402367000177,511.43962690001354,"[58, 0, 196]",196,l,0.17490129999350756,colour,0.5
116,26,0,1,8,27,377,511.96041920001153,513.5196010000072,"[42, 0, 212]",212,a,1.037017199996626,colour,0.5
116,26,0,1,8,28,378,514.0294541000039,514.6315776999982,"[97, 0, 157]",157,l,0.0831006999942474,colour,0.5
116,26,0,1,8,29,379,515.1449231000151,515.8955546000216,"[77, 0, 177]",177,a,0.2309448000160046,colour,0.5
116,26,0,1,8,30,380,516.4119830999989,517.9355123999994,"[43, 0, 211]",211,a,1.0057558999978937,colour,0.5
116,26,0,1,8,31,381,518.4416940000083,519.0235476000234,"[9, 0, 245]",245,a,0.058959900023182854,colour,0.5
116,26,0,1,8,32,382,519.5279264000128,520.0795488000149,"[94, 0, 160]",160,l,0.04636569999274798,colour,0.5
116,26,0,1,8,33,383,520.5962953000271,521.2156006000005,"[83, 0, 171]",171,l,0.10239619997446425,colour,0.5
116,26,0,1,8,34,384,521.7340617000009,522.7355756000034,"[13, 0, 241]",241,a,0.48921379999956116,colour,0.5
116,26,0,1,8,35,385,523.2407532000216,524.1835001000145,"[57, 0, 197]",197,l,0.41131830000085756,colour,0.5
116,26,0,1,8,36,386,524.6906805000035,525.687628100015,"[62, 0, 192]",192,l,0.4732543000136502,colour,0.5
116,26,0,1,8,37,387,526.2063838000176,527.3756419999991,"[50, 0, 204]",204,l,0.64358789997641,colour,0.5
116,26,0,1,8,38,388,527.8925361000001,528.5515585000103,"[96, 0, 158]",158,a,0.13752809999277815,colour,0.5
116,26,0,1,8,39,389,529.0594066000194,529.8716033000092,"[99, 0, 155]",155,a,0.29026390000944957,colour,0.5
116,26,0,1,8,40,390,530.3845201000222,531.0235519000271,"[4, 0, 250]",250,l,0.10970740002812818,colour,0.5
116,26,0,1,8,41,391,531.5410203000065,534.0715693000238,"[15, 0, 239]",239,a,2.012369600008242,colour,0.5
116,26,0,1,8,42,392,534.5914197000093,535.5435495999991,"[38, 0, 216]",216,a,0.4291137999971397,colour,0.5
116,26,0,1,8,43,393,536.057300800021,536.6395358000009,"[63, 0, 191]",191,l,0.05859569998574443,colour,0.5
116,26,0,1,8,44,394,537.1388575000165,538.0315681000066,"[33, 0, 221]",221,a,0.36710089998086914,colour,0.5
116,26,0,1,8,45,395,538.5411049000104,539.3835529000207,"[24, 0, 230]",230,a,0.3184004000213463,colour,0.5
116,26,0,1,8,46,396,539.8966229000071,540.519547200005,"[92, 0, 162]",162,l,0.10506410000380129,colour,0.5
116,26,0,1,8,47,397,541.0233402000158,541.6795618000033,"[46, 0, 208]",208,l,0.1369940000004135,colour,0.5
116,26,0,1,8,48,398,542.1915430000226,543.0155783000228,"[40, 0, 214]",214,a,0.3034541000088211,colour,0.5
116,26,0,1,8,49,399,543.5286103000108,544.4795292000053,"[93, 0, 161]",161,l,0.43553269997937605,colour,0.5
116,26,0,1,8,50,400,544.9905215000035,545.9195169000013,"[59, 0, 195]",195,a,0.4048019999754615,colour,0.5
116,26,0,1,9,1,401,550.1415606000228,551.0154993000033,"[22, 0, 232]",232,a,0.35612579999724403,colour,0.5
116,26,0,1,9,2,402,551.5295105000259,552.0876189000264,"[92, 0, 162]",162,l,0.042974600015440956,colour,0.5
116,26,0,1,9,3,403,552.6025068000017,553.4955325000046,"[24, 0, 230]",230,a,0.3584664999798406,colour,0.5
116,26,0,1,9,4,404,554.0103830000153,554.8875220000045,"[14, 0, 240]",240,l,0.3566205999813974,colour,0.5
116,26,0,1,9,5,405,555.407136200025,556.5276066000224,"[98, 0, 156]",156,a,0.6014952000114135,colour,0.5
116,26,0,1,9,6,406,557.0333847000147,559.1915691000177,"[50, 0, 204]",204,a,1.6424374000052921,colour,0.5
116,26,0,1,9,7,407,559.7071221000224,560.2955216000264,"[18, 0, 236]",236,a,0.06351680000079796,colour,0.5
116,26,0,1,9,8,408,560.8075051000051,561.4315164000145,"[61, 0, 193]",193,l,0.09949940000660717,colour,0.5
116,26,0,1,9,9,409,561.94667450001,562.5754733000067,"[29, 0, 225]",225,a,0.11003250000067055,colour,0.5
116,26,0,1,9,10,410,563.0907512000122,563.9435747000098,"[17, 0, 237]",237,a,0.33419329999014735,colour,0.5
116,26,0,1,9,11,411,564.4574726000137,565.2796156000113,"[16, 0, 238]",238,a,0.2985776999848895,colour,0.5
116,26,0,1,9,12,412,565.7913763000106,566.4396164000209,"[23, 0, 231]",231,l,0.12560490000760183,colour,0.5
116,26,0,1,9,13,413,566.946417500003,567.8075836000207,"[41, 0, 213]",213,l,0.3491793000139296,colour,0.5
116,26,0,1,9,14,414,568.3247427000024,569.2875013000157,"[95, 0, 159]",159,l,0.44438369999988936,colour,0.5
116,26,0,1,9,15,415,569.8073699000233,570.3355364000017,"[72, 0, 182]",182,a,0.0044812999840360135,colour,0.5
116,26,0,1,9,16,416,570.8515551000019,572.0875412000169,"[57, 0, 197]",197,l,0.7273935000121128,colour,0.5
116,26,0,1,9,17,417,572.5919705000124,573.479524400027,"[81, 0, 173]",173,l,0.36534430002211593,colour,0.5
116,26,0,1,9,18,418,573.9908751000185,575.1515339000034,"[15, 0, 239]",239,a,0.6413862000044901,colour,0.5
116,26,0,1,9,19,419,575.6576834000007,576.7914953000145,"[47, 0, 207]",207,a,0.6146637999918312,colour,0.5
116,26,0,1,9,20,420,577.3050355000014,577.9354868000082,"[78, 0, 176]",176,l,0.10365529998671263,colour,0.5
116,26,0,1,9,21,421,578.4575232000207,579.3835441000119,"[87, 0, 167]",167,l,0.4069230000022799,colour,0.5
116,26,0,1,9,22,422,579.8975325000065,580.5114923000219,"[28, 0, 226]",226,a,0.09516850000363775,colour,0.5
116,26,0,1,9,23,423,581.0248524000053,582.3995141000196,"[40, 0, 214]",214,l,0.8446920000133105,colour,0.5
116,26,0,1,9,24,424,582.9082390000112,584.1115148000245,"[52, 0, 202]",202,l,0.6887226000253577,colour,0.5
116,26,0,1,9,25,425,584.6240567000059,585.3754774000263,"[32, 0, 222]",222,l,0.2326834000123199,colour,0.5
116,26,0,1,9,26,426,585.8884241000051,586.8395659000089,"[58, 0, 196]",196,l,0.4248477999935858,colour,0.5
116,26,0,1,9,27,427,587.3581130000239,588.4395520000253,"[31, 0, 223]",223,a,0.5564364000165369,colour,0.5
116,26,0,1,9,28,428,588.9581027000095,589.8154730000242,"[12, 0, 242]",242,a,0.33366010000463575,colour,0.5
116,26,0,1,9,29,429,590.3315423000022,590.9355166000023,"[85, 0, 169]",169,l,0.08671109998249449,colour,0.5
116,26,0,1,9,30,430,591.4429545000021,592.0154997000063,"[79, 0, 175]",175,l,0.05101460000150837,colour,0.5
116,26,0,1,9,31,431,592.5274233000237,593.5515068000241,"[74, 0, 180]",180,l,0.5159545000060461,colour,0.5
116,26,0,1,9,32,432,594.0586973000027,594.6155515999999,"[20, 0, 234]",234,a,0.034222699992824346,colour,0.5
116,26,0,1,9,33,433,595.1293871000235,595.8314631000103,"[25, 0, 229]",229,a,0.18114289999357425,colour,0.5
116,26,0,1,9,34,434,596.3401666000136,597.5835134000226,"[3, 0, 251]",251,a,0.7128772000141907,colour,0.5
116,26,0,1,9,35,435,598.0965803000145,598.6635351000004,"[88, 0, 166]",166,l,0.03826349999872036,colour,0.5
116,26,0,1,9,36,436,599.1702378000191,600.2955062000256,"[70, 0, 184]",184,l,0.6078360000101384,colour,0.5
116,26,0,1,9,37,437,600.8064319000114,601.5435069000232,"[63, 0, 191]",191,l,0.2228346000192687,colour,0.5
116,26,0,1,9,38,438,602.0572996000119,603.1674383000063,"[80, 0, 174]",174,l,0.5804229000059422,colour,0.5
116,26,0,1,9,39,439,603.6752852000063,604.3034661000129,"[5, 0, 249]",249,a,0.11358139998628758,colour,0.5
116,26,0,1,9,40,440,604.8241076999984,605.6475546000001,"[66, 0, 188]",188,l,0.3045195999729913,colour,0.5
116,26,0,1,9,41,441,606.154895500018,606.7675036000146,"[6, 0, 248]",248,a,0.10156300000380725,colour,0.5
116,26,0,1,9,42,442,607.2747303000069,608.4555065000022,"[48, 0, 206]",206,l,0.6623947999905795,colour,0.5
116,26,0,1,9,43,443,608.9624393999984,609.8554481000174,"[59, 0, 195]",195,l,0.3743950999923982,colour,0.5
116,26,0,1,9,44,444,610.3620148000191,611.0315485000028,"[26, 0, 228]",228,a,0.15038079998339526,colour,0.5
116,26,0,1,9,45,445,611.5438992000127,612.247460500017,"[37, 0, 217]",217,a,0.19456900001387112,colour,0.5
116,26,0,1,9,46,446,612.7523879000219,613.4235442000208,"[13, 0, 241]",241,l,0.15717469999799505,colour,0.5
116,26,0,1,9,47,447,613.9272299000004,614.8795014000207,"[65, 0, 189]",189,l,0.4307766999991145,colour,0.5
116,26,0,1,9,48,448,615.3910581000091,616.0474875000073,"[91, 0, 163]",163,l,0.13773759998730384,colour,0.5
116,26,0,1,9,49,449,616.5575339000206,617.8234849,"[64, 0, 190]",190,l,0.7427122999797575,colour,0.5
116,26,0,1,9,50,450,618.3336986000068,618.9274498000159,"[69, 0, 185]",185,l,0.0746285000059288,colour,0.5
116,26,0,1,10,1,451,626.8736521000101,627.9354580000218,"[42, 0, 212]",212,a,0.5422548000060488,colour,0.5
116,26,0,1,10,2,452,628.4425771000097,629.0554516000266,"[52, 0, 202]",202,l,0.0912438000086695,colour,0.5
116,26,0,1,10,3,453,629.5696051000268,630.4875341000152,"[10, 0, 244]",244,l,0.3999390999961179,colour,0.5
116,26,0,1,10,4,454,630.9972335000057,631.9834605000215,"[93, 0, 161]",161,a,0.4683052000182215,colour,0.5
116,26,0,1,10,5,455,632.4962394000031,633.2794689000002,"[95, 0, 159]",159,a,0.26409069998771884,colour,0.5
116,26,0,1,10,6,456,633.790610600001,634.3275071000098,"[99, 0, 155]",155,a,0.015165199991315603,colour,0.5
116,26,0,1,10,7,457,634.8373395000235,635.7594401000242,"[28, 0, 226]",226,l,0.39501830001245253,colour,0.5
116,26,0,1,10,8,458,636.2740930000145,636.9835260000254,"[76, 0, 178]",178,l,0.18546340000466444,colour,0.5
116,26,0,1,10,9,459,637.4925646000193,638.1594476000173,"[87, 0, 167]",167,a,0.15954409999540076,colour,0.5
116,26,0,1,10,10,460,638.6670875000127,639.5354463000258,"[65, 0, 189]",189,l,0.3445524000271689,colour,0.5
116,26,0,1,10,11,461,640.0574618000246,640.9755194000027,"[37, 0, 217]",217,l,0.397023800003808,colour,0.5
116,26,0,1,10,12,462,641.4885856000183,642.1594341000018,"[68, 0, 186]",186,l,0.1505736999970395,colour,0.5
116,26,0,1,10,13,463,642.6742097000242,644.9674928000022,"[34, 0, 220]",220,l,1.7694954999897163,colour,0.5
116,26,0,1,10,14,464,645.4905204000243,646.0795027000131,"[45, 0, 209]",209,a,0.0726612999860663,colour,0.5
116,26,0,1,10,15,465,646.5906359000073,647.511459500005,"[20, 0, 234]",234,l,0.40741139999590814,colour,0.5
116,26,0,1,10,16,466,648.0338776000135,648.9834104000183,"[39, 0, 215]",215,l,0.42198340001050383,colour,0.5
116,26,0,1,10,17,467,649.4986274000257,650.0314185000025,"[73, 0, 181]",181,a,0.0017340999911539257,colour,0.5
116,26,0,1,10,18,468,650.554601300013,651.2074605000089,"[19, 0, 235]",235,l,0.13636169998790137,colour,0.5
116,26,0,1,10,19,469,651.7248024000146,652.4154613999999,"[11, 0, 243]",243,a,0.15711089997785166,colour,0.5
116,26,0,1,10,20,470,652.9135646000213,653.5194488000125,"[64, 0, 190]",190,a,0.08829970000078902,colour,0.5
116,26,0,1,10,21,471,654.0254094999982,654.8153772000223,"[30, 0, 224]",224,a,0.27689470001496375,colour,0.5
116,26,0,1,10,22,472,655.3292733000126,656.2873945000174,"[67, 0, 187]",187,a,0.42720390000613406,colour,0.5
116,26,0,1,10,23,473,656.7920016999997,657.5513965999999,"[46, 0, 208]",208,a,0.24519999997573905,colour,0.5
116,26,0,1,10,24,474,658.0584005000128,658.6474227000144,"[15, 0, 239]",239,a,0.0660619999980554,colour,0.5
116,26,0,1,10,25,475,659.1595761000062,659.983435400005,"[31, 0, 223]",223,l,0.3022319999872707,colour,0.5
116,26,0,1,10,26,476,660.4966668999987,661.2154012000246,"[43, 0, 211]",211,l,0.1989385000197217,colour,0.5
116,26,0,1,10,27,477,661.7271412000118,662.4314584000094,"[69, 0, 185]",185,l,0.18543439998757094,colour,0.5
116,26,0,1,10,28,478,662.9378299000091,663.7674246000242,"[57, 0, 197]",197,l,0.3155374000198208,colour,0.5
116,26,0,1,10,29,479,664.274087400001,665.0394428000145,"[3, 0, 251]",251,l,0.23458109999774024,colour,0.5
116,26,0,1,10,30,480,665.557709900022,666.1114468000014,"[66, 0, 188]",188,l,0.03784409997751936,colour,0.5
116,26,0,1,10,31,481,666.6262149000249,668.743440100021,"[23, 0, 231]",231,l,1.5935897000017576,colour,0.5
116,26,0,1,10,32,482,669.250025300018,670.0554812000191,"[25, 0, 229]",229,l,0.28944769999361597,colour,0.5
116,26,0,1,10,33,483,670.5610494000139,671.4555152000103,"[77, 0, 177]",177,l,0.376767599984305,colour,0.5
116,26,0,1,10,34,484,671.962181800016,672.7674084000173,"[80, 0, 174]",174,l,0.28617880001547746,colour,0.5
116,26,0,1,10,35,485,673.27685200001,675.1594509000133,"[50, 0, 204]",204,l,1.3596503000007942,colour,0.5
116,26,0,1,10,36,486,675.6758856000088,676.1994614000141,"[16, 0, 238]",238,l,0.016634500003419816,colour,0.5
116,26,0,1,10,37,487,676.7130943000084,677.4074844999996,"[84, 0, 170]",170,l,0.17671689999406226,colour,0.5
116,26,0,1,10,38,488,677.913672100025,678.8234206000052,"[38, 0, 216]",216,l,0.39491849998012185,colour,0.5
116,26,0,1,10,39,489,679.3348372000037,680.4073708000069,"[78, 0, 176]",176,l,0.5426182000082918,colour,0.5
116,26,0,1,10,40,490,680.9106615000055,681.4874157000158,"[26, 0, 228]",228,l,0.05634979999740608,colour,0.5
116,26,0,1,10,41,491,681.9998516000051,682.5834865000215,"[82, 0, 172]",172,l,0.06807880001724698,colour,0.5
116,26,0,1,10,42,492,683.0821998000029,683.8474125000066,"[92, 0, 162]",162,l,0.2562808000075165,colour,0.5
116,26,0,1,10,43,493,684.3584519000142,684.9994434000109,"[4, 0, 250]",250,l,0.12566099999821745,colour,0.5
116,26,0,1,10,44,494,685.5088345000113,686.2314370000095,"[29, 0, 225]",225,l,0.19184739998308942,colour,0.5
116,26,0,1,10,45,495,686.7415927000111,687.2714330000163,"[74, 0, 180]",180,l,0.01634339999873191,colour,0.5
116,26,0,1,10,46,496,687.7797764000134,688.5273827000055,"[90, 0, 164]",164,l,0.22999049999634735,colour,0.5
116,26,0,1,10,47,497,689.0433321000019,689.6713961000205,"[48, 0, 206]",206,a,0.10666660001152195,colour,0.5
116,26,0,1,10,48,498,690.1964951000118,690.8794133000192,"[51, 0, 203]",203,a,0.16650510000181384,colour,0.5
116,26,0,1,10,49,499,691.3846659999981,691.9754093000083,"[40, 0, 214]",214,a,0.07548090000636876,colour,0.5
116,26,0,1,10,50,500,692.4914057000133,693.0234484000248,"[98, 0, 156]",156,a,0.0018774000054690987,colour,0.5
116,26,0,1,11,1,501,697.5531971000019,698.8234469000017,"[75, 0, 179]",179,a,0.7502080999838654,colour,0.5
116,26,0,1,11,2,502,699.331577200006,700.159400900011,"[71, 0, 183]",183,l,0.3087750999839045,colour,0.5
116,26,0,1,11,3,503,700.6646394999989,701.2794805000012,"[92, 0, 162]",162,a,0.09713670000201091,colour,0.5
116,26,0,1,11,4,504,701.7893721,702.3754708000051,"[26, 0, 228]",228,l,0.055437999981222674,colour,0.5
116,26,0,1,11,5,505,702.8755137000117,703.5674028000212,"[54, 0, 200]",200,l,0.16924310001195408,colour,0.5
116,26,0,1,11,6,506,704.0784627000103,704.6634366000071,"[73, 0, 181]",181,l,0.07081159998779185,colour,0.5
116,26,0,1,11,7,507,705.1651294000039,706.2394138000091,"[15, 0, 239]",239,l,0.5417613000026904,colour,0.5
116,26,0,1,11,8,508,706.7575875000039,707.5593846999982,"[74, 0, 180]",180,l,0.2836916999949608,colour,0.5
116,26,0,1,11,9,509,708.0589429000102,708.5914358000155,"[64, 0, 190]",190,a,0.009509700001217425,colour,0.5
116,26,0,1,11,10,510,709.1135404000233,709.8393873000168,"[7, 0, 247]",247,a,0.20168980001471937,colour,0.5
116,26,0,1,11,11,511,710.3528500000248,710.9834218000178,"[50, 0, 204]",204,a,0.09982770000351593,colour,0.5
116,26,0,1,11,12,512,711.479491200007,712.0154093000165,"[79, 0, 175]",175,a,0.01602959999581799,colour,0.5
116,26,0,1,11,13,513,712.5301053000148,713.5913640000217,"[10, 0, 244]",244,a,0.5440361000073608,colour,0.5
116,26,0,1,11,14,514,714.1071560000128,714.6874165000045,"[14, 0, 240]",240,l,0.04848999998648651,colour,0.5
116,26,0,1,11,15,515,715.2494847000053,715.9593903000059,"[35, 0, 219]",219,l,0.18573909997940063,colour,0.5
116,26,0,1,11,16,516,716.4663596000173,717.1594488000264,"[32, 0, 222]",222,a,0.16505330000654794,colour,0.5
116,26,0,1,11,17,517,717.6743394000223,718.3273874000006,"[34, 0, 220]",220,l,0.13407299999380484,colour,0.5
116,26,0,1,11,18,518,718.8410003000172,719.4954103000055,"[52, 0, 202]",202,l,0.1346585999999661,colour,0.5
116,26,0,1,11,19,519,720.0105097000196,720.7033899000089,"[47, 0, 207]",207,l,0.17933449998963624,colour,0.5
116,26,0,1,11,20,520,721.2147211999982,721.791374100023,"[80, 0, 174]",174,l,0.05960810001124628,colour,0.5
116,26,0,1,11,21,521,722.2967820000194,722.9753865000093,"[19, 0, 235]",235,a,0.16963940000277944,colour,0.5
116,26,0,1,11,22,522,723.4847974000149,724.0874420000182,"[51, 0, 203]",203,a,0.09405800001695752,colour,0.5
116,26,0,1,11,23,523,724.5873334000062,725.2634480000124,"[78, 0, 176]",176,a,0.16716310000629164,colour,0.5
116,26,0,1,11,24,524,725.7759658000141,726.439377200004,"[55, 0, 199]",199,a,0.1487364999775309,colour,0.5
116,26,0,1,11,25,525,726.9420720000053,727.5273973000003,"[29, 0, 225]",225,a,0.07751909998478368,colour,0.5
116,26,0,1,11,26,526,728.0428754000168,728.655467900011,"[98, 0, 156]",156,l,0.09096649999264628,colour,0.5
116,26,0,1,11,27,527,729.159197800007,729.7833624000195,"[53, 0, 201]",201,l,0.11065260000759736,colour,0.5
116,26,0,1,11,28,528,730.2929903000186,730.8234022000106,"[86, 0, 168]",168,l,0.008792999986326322,colour,0.5
116,26,0,1,11,29,529,731.3441774000239,731.9353746999986,"[87, 0, 167]",167,l,0.070938799995929,colour,0.5
116,26,0,1,11,30,530,732.4397569000139,733.1913965000131,"[27, 0, 227]",227,a,0.22594720000051893,colour,0.5
116,26,0,1,11,31,531,733.7080836000096,734.4634115000081,"[17, 0, 237]",237,a,0.22672659999807365,colour,0.5
116,26,0,1,11,32,532,734.9880509000213,735.7513460000046,"[2, 0, 252]",252,l,0.2481246999814175,colour,0.5
116,26,0,1,11,33,533,736.2608997000207,736.9914665000106,"[57, 0, 197]",197,l,0.20933109999168664,colour,0.5
116,26,0,1,11,34,534,737.5059543000243,738.1433915000234,"[38, 0, 216]",216,l,0.10627540000132285,colour,0.5
116,26,0,1,11,35,535,738.661452100001,739.3993778000004,"[46, 0, 208]",208,l,0.22930119998636656,colour,0.5
116,26,0,1,11,36,536,739.9092632000102,740.6393399000226,"[58, 0, 196]",196,a,0.216795300017111,colour,0.5
116,26,0,1,11,37,537,741.1523361,741.7913670000271,"[63, 0, 191]",191,a,0.11073850002139807,colour,0.5
116,26,0,1,11,38,538,742.2993862000003,744.0233995000017,"[40, 0, 214]",214,l,1.20813429998816,colour,0.5
116,26,0,1,11,39,539,744.5301762000017,745.383335200022,"[44, 0, 210]",210,l,0.33388300001388416,colour,0.5
116,26,0,1,11,40,540,745.8908939000103,746.7273690000002,"[22, 0, 232]",232,l,0.31806869999854825,colour,0.5
116,26,0,1,11,41,541,747.2409381000034,747.895385700016,"[83, 0, 171]",171,l,0.1407820000022184,colour,0.5
116,26,0,1,11,42,542,748.4131477000192,749.1833243000146,"[45, 0, 209]",209,l,0.24363030001404695,colour,0.5
116,26,0,1,11,43,543,749.6991479000135,750.2393891000247,"[91, 0, 163]",163,l,0.025128400011453778,colour,0.5
116,26,0,1,11,44,544,750.7469841999991,751.3753760000109,"[76, 0, 178]",178,l,0.11670769998454489,colour,0.5
116,26,0,1,11,45,545,751.8909904000175,752.687333400012,"[95, 0, 159]",159,l,0.2651409000100102,colour,0.5
116,26,0,1,11,46,546,753.1941032000177,753.7753737000166,"[25, 0, 229]",229,l,0.06062579998979345,colour,0.5
116,26,0,1,11,47,547,754.2722290000238,754.8633880999987,"[1, 0, 253]",253,l,0.07215249998262152,colour,0.5
116,26,0,1,11,48,548,755.3754152000183,756.2233129000233,"[16, 0, 238]",238,l,0.3399748000083491,colour,0.5
116,26,0,1,11,49,549,756.7301707000006,757.2873505000025,"[13, 0, 241]",241,a,0.04225229998701252,colour,0.5
116,26,0,1,11,50,550,757.791609500011,758.5193750000035,"[30, 0, 224]",224,a,0.21320269998977892,colour,0.5
116,26,0,1,12,1,551,767.3407512000122,768.5353339000139,"[7, 0, 247]",247,l,0.6708832000149414,colour,0.5
116,26,0,1,12,2,552,769.0428089000052,769.5833818000101,"[26, 0, 228]",228,l,0.02693250001175329,colour,0.5
116,26,0,1,12,3,553,770.0822312000091,770.7834166000248,"[34, 0, 220]",220,l,0.18479680002201349,colour,0.5
116,26,0,1,12,4,554,771.2924900000216,771.8393871000153,"[41, 0, 213]",213,a,0.040198200003942475,colour,0.5
116,26,0,1,12,5,555,772.3472353000252,772.8873793000239,"[53, 0, 201]",201,a,0.01807990000816062,colour,0.5
116,26,0,1,12,6,556,773.3937828000053,774.079361000011,"[56, 0, 198]",198,a,0.17397750000236556,colour,0.5
116,26,0,1,12,7,557,774.592126100004,775.279385700007,"[19, 0, 235]",235,a,0.16549829998984933,colour,0.5
116,26,0,1,12,8,558,775.7904577000008,776.3992977000016,"[71, 0, 183]",183,a,0.08482170000206679,colour,0.5
116,26,0,1,12,9,559,776.893592700013,777.8233134000038,"[65, 0, 189]",189,a,0.41138730000238866,colour,0.5
116,26,0,1,12,10,560,778.3348441000271,778.9833624000021,"[1, 0, 253]",253,l,0.11327949998667464,colour,0.5
116,26,0,1,12,11,561,779.4921028000244,780.4793793999997,"[52, 0, 202]",202,l,0.4791867999883834,colour,0.5
116,26,0,1,12,12,562,780.9911353000207,781.5194153000193,"[14, 0, 240]",240,a,0.009574900002917275,colour,0.5
116,26,0,1,12,13,563,782.0153300000238,782.6554452000128,"[55, 0, 199]",199,l,0.12765199999557808,colour,0.5
116,26,0,1,12,14,564,783.1679742000124,783.9113519000239,"[62, 0, 192]",192,a,0.21944490002351813,colour,0.5
116,26,0,1,12,15,565,784.4274527000089,784.9913647000212,"[20, 0, 234]",234,a,0.03355439999722876,colour,0.5
116,26,0,1,12,16,566,785.5115261000174,786.1993615000101,"[43, 0, 211]",211,a,0.17998119999538176,colour,0.5
116,26,0,1,12,17,567,786.7068331000046,787.3033226000261,"[15, 0, 239]",239,a,0.07246820000000298,colour,0.5
116,26,0,1,12,18,568,787.8131957000005,789.4633860000176,"[11, 0, 243]",243,a,1.1412197000172455,colour,0.5
116,26,0,1,12,19,569,789.9708464000141,790.8233308000199,"[37, 0, 217]",217,a,0.33817000000271946,colour,0.5
116,26,0,1,12,20,570,791.3353118000086,792.1674017000187,"[9, 0, 245]",245,a,0.30306870001368225,colour,0.5
116,26,0,1,12,21,571,792.6905723000236,793.3193404000194,"[50, 0, 204]",204,l,0.10955039999680594,colour,0.5
116,26,0,1,12,22,572,793.8275946000067,794.6953482000099,"[24, 0, 230]",230,l,0.3599867000011727,colour,0.5
116,26,0,1,12,23,573,795.2079928000167,796.3753090000246,"[46, 0, 208]",208,l,0.6431051000254229,colour,0.5
116,26,0,1,12,24,574,796.8863014000235,797.5913637000194,"[10, 0, 244]",244,a,0.19111569999950007,colour,0.5
116,26,0,1,12,25,575,798.1075809000176,799.0953766000166,"[22, 0, 232]",232,l,0.46867760000168346,colour,0.5
116,26,0,1,12,26,576,799.607526000007,800.775317200023,"[95, 0, 159]",159,a,0.6441907999978866,colour,0.5
116,26,0,1,12,27,577,801.2765943000268,801.983300300024,"[58, 0, 196]",196,l,0.19086650002282113,colour,0.5
116,26,0,1,12,28,578,802.4914256000193,803.1273822000076,"[89, 0, 165]",165,l,0.11379989999113604,colour,0.5
116,26,0,1,12,29,579,803.6249001000251,804.2233038000122,"[16, 0, 238]",238,l,0.08581469999626279,colour,0.5
116,26,0,1,12,30,580,804.7322702000092,805.3593266000098,"[73, 0, 181]",181,l,0.10995519999414682,colour,0.5
116,26,0,1,12,31,581,805.8743993000244,806.6553179000039,"[91, 0, 163]",163,a,0.26204129998222925,colour,0.5
116,26,0,1,12,32,582,807.1688948000083,808.4153510000033,"[74, 0, 180]",180,a,0.7248396999784745,colour,0.5
116,26,0,1,12,33,583,808.9292355000216,809.8873881000036,"[85, 0, 169]",169,a,0.43953619999228977,colour,0.5
116,26,0,1,12,34,584,810.3916857000149,811.10333730001,"[87, 0, 167]",167,a,0.19962140001007356,colour,0.5
116,26,0,1,12,35,585,811.6243011000042,812.3673035000102,"[47, 0, 207]",207,l,0.23098880000179633,colour,0.5
116,26,0,1,12,36,586,812.8755217000144,813.6473119000148,"[6, 0, 248]",248,a,0.2583413000102155,colour,0.5
116,26,0,1,12,37,587,814.1543468000018,814.8073010000226,"[81, 0, 173]",173,l,0.13978240001597442,colour,0.5
116,26,0,1,12,38,588,815.3086216000083,815.9353058999986,"[61, 0, 193]",193,a,0.11458999998285435,colour,0.5
116,26,0,1,12,39,589,816.44088010001,817.2953357000079,"[3, 0, 251]",251,l,0.3310590999899432,colour,0.5
116,26,0,1,12,40,590,817.8083907000255,818.5195231000253,"[70, 0, 184]",184,l,0.1992727000033483,colour,0.5
116,26,0,1,12,41,591,819.0275120000006,819.6072971000103,"[75, 0, 179]",179,a,0.0673868999874685,colour,0.5
116,26,0,1,12,42,592,820.1029044000024,820.6953134000069,"[12, 0, 242]",242,a,0.06642119999742135,colour,0.5
116,26,0,1,12,43,593,821.2082291000115,821.8793371000211,"[93, 0, 161]",161,a,0.14722579999943264,colour,0.5
116,26,0,1,12,44,594,822.3894172,822.911311200005,"[35, 0, 219]",219,a,0.0027270999853499234,colour,0.5
116,26,0,1,12,45,595,823.4298601000046,824.1673384000023,"[42, 0, 212]",212,a,0.21461409999756142,colour,0.5
116,26,0,1,12,46,596,824.681935200002,825.2713534000213,"[66, 0, 188]",188,a,0.07031460001599044,colour,0.5
116,26,0,1,12,47,597,825.776526600006,826.4952748000214,"[94, 0, 160]",160,a,0.21118000001297332,colour,0.5
116,26,0,1,12,48,598,827.0023127000022,827.8152986000059,"[38, 0, 216]",216,a,0.29882399999769405,colour,0.5
116,26,0,1,12,49,599,828.3134627000254,828.8633253000153,"[92, 0, 162]",162,a,0.04107110001496039,colour,0.5
116,26,0,1,12,50,600,829.3698540000187,829.9113201000146,"[59, 0, 195]",195,l,0.03323219998856075,colour,0.5
116,26,0,1,13,1,601,834.8651167000062,835.4713116000057,"[53, 0, 201]",201,a,0.08917580000706948,colour,0.5
116,26,0,1,13,2,602,835.9885676000267,836.9753097000066,"[88, 0, 166]",166,l,0.4657625999825541,colour,0.5
116,26,0,1,13,3,603,837.490683800017,838.1673562000215,"[24, 0, 230]",230,a,0.15213950001634657,colour,0.5
116,26,0,1,13,4,604,838.6615982000076,839.727369500004,"[20, 0, 234]",234,a,0.544534599990584,colour,0.5
116,26,0,1,13,5,605,840.2410399000219,840.9513001000159,"[1, 0, 253]",253,a,0.18700420000823215,colour,0.5
116,26,0,1,13,6,606,841.4747356000007,842.5672480000067,"[47, 0, 207]",207,a,0.5630080999981146,colour,0.5
116,26,0,1,13,7,607,843.0916365000012,844.1513354000053,"[33, 0, 221]",221,a,0.546551899984479,colour,0.5
116,26,0,1,13,8,608,844.6653451000166,845.3913107000117,"[84, 0, 170]",170,l,0.20180619999882765,colour,0.5
116,26,0,1,13,9,609,845.8954360000207,846.8713168000104,"[8, 0, 246]",246,a,0.45225120001123287,colour,0.5
116,26,0,1,13,10,610,847.3832084000169,848.1993513000198,"[44, 0, 210]",210,a,0.2978791000205092,colour,0.5
116,26,0,1,13,11,611,848.7076357000042,849.2872969000018,"[97, 0, 157]",157,l,0.059835099993506446,colour,0.5
116,26,0,1,13,12,612,849.7910903000156,850.7912951000035,"[17, 0, 237]",237,a,0.48728750000009313,colour,0.5
116,26,0,1,13,13,613,851.2993157000165,854.3353677999985,"[48, 0, 206]",206,a,2.5159948999935295,colour,0.5
116,26,0,1,13,14,614,854.84266200001,855.5192901999981,"[75, 0, 179]",179,a,0.16972099998383783,colour,0.5
116,26,0,1,13,15,615,856.0302146000031,856.9192818000156,"[45, 0, 209]",209,a,0.3579334999958519,colour,0.5
116,26,0,1,13,16,616,857.4288108000183,858.0073259000201,"[25, 0, 229]",229,l,0.04887349999626167,colour,0.5
116,26,0,1,13,17,617,858.5161031000025,859.3432603000256,"[52, 0, 202]",202,a,0.31192590002319776,colour,0.5
116,26,0,1,13,18,618,859.8581096999987,860.6392496000044,"[66, 0, 188]",188,l,0.24862830000347458,colour,0.5
116,26,0,1,13,19,619,861.1533266000042,861.9753710000077,"[74, 0, 180]",180,l,0.302800000004936,colour,0.5
116,26,0,1,13,20,620,862.4888727000216,863.0312949000217,"[31, 0, 223]",223,a,0.01644560002023354,colour,0.5
116,26,0,1,13,21,621,863.5435685999983,864.2073652000108,"[76, 0, 178]",178,a,0.1408438000071328,colour,0.5
116,26,0,1,13,22,622,864.724935700011,865.5512612000166,"[91, 0, 163]",163,l,0.30330460000550374,colour,0.5
116,26,0,1,13,23,623,866.0740317000018,866.7352887000015,"[50, 0, 204]",204,l,0.13705439999466762,colour,0.5
116,26,0,1,13,24,624,867.2405990000116,867.9112776000111,"[77, 0, 177]",177,l,0.15024079999420792,colour,0.5
116,26,0,1,13,25,625,868.424242100009,869.0391839000222,"[89, 0, 165]",165,a,0.096421599999303,colour,0.5
116,26,0,1,13,26,626,869.550158900005,870.1992602000246,"[68, 0, 186]",186,l,0.1276951000036206,colour,0.5
116,26,0,1,13,27,627,870.707183200022,871.3992502000183,"[36, 0, 218]",218,a,0.17980090001947246,colour,0.5
116,26,0,1,13,28,628,871.9125001000066,872.6153365000209,"[40, 0, 214]",214,l,0.18685230001574382,colour,0.5
116,26,0,1,13,29,629,873.1243456000229,873.783219200006,"[12, 0, 242]",242,a,0.12787520000711083,colour,0.5
116,26,0,1,13,30,630,874.2797686000122,874.9112440000172,"[46, 0, 208]",208,l,0.12348720000591129,colour,0.5
116,26,0,1,13,31,631,875.4220857000037,875.9912690000201,"[60, 0, 194]",194,a,0.05476759999874048,colour,0.5
116,26,0,1,13,32,632,876.4999495000229,877.0152957000246,"[72, 0, 182]",182,a,0.006484600016847253,colour,0.5
116,26,0,1,13,33,633,877.5239632000157,878.0633708000241,"[16, 0, 238]",238,l,0.02225950002321042,colour,0.5
116,26,0,1,13,34,634,878.5691457000212,879.1273239000002,"[27, 0, 227]",227,a,0.042669399990700185,colour,0.5
116,26,0,1,13,35,635,879.6335264000227,880.2792625000002,"[15, 0, 239]",239,a,0.13016359999892302,colour,0.5
116,26,0,1,13,36,636,880.7967114000057,881.3432753000234,"[7, 0, 247]",247,l,0.03747170002316125,colour,0.5
116,26,0,1,13,37,637,881.8455171000096,882.4872101000219,"[62, 0, 192]",192,a,0.12091250001685694,colour,0.5
116,26,0,1,13,38,638,882.9968747000094,883.7512619000045,"[28, 0, 226]",226,a,0.2365853999799583,colour,0.5
116,26,0,1,13,39,639,884.2644394000235,884.8232369000034,"[57, 0, 197]",197,l,0.03207980000297539,colour,0.5
116,26,0,1,13,40,640,885.3274964000157,885.9832850000239,"[3, 0, 251]",251,l,0.1477675000205636,colour,0.5
116,26,0,1,13,41,641,886.4765130000014,887.1912537000026,"[55, 0, 199]",199,l,0.20584519999101758,colour,0.5
116,26,0,1,13,42,642,887.7062791000062,888.3272610999993,"[73, 0, 181]",181,a,0.0899920999945607,colour,0.5
116,26,0,1,13,43,643,888.8319421000197,889.503323300014,"[39, 0, 215]",215,a,0.1491614000115078,colour,0.5
116,26,0,1,13,44,644,890.0110954999982,890.5832527000166,"[38, 0, 216]",216,l,0.05206410001846962,colour,0.5
116,26,0,1,13,45,645,891.0789922000258,891.6793324000027,"[96, 0, 158]",158,a,0.09197739997762255,colour,0.5
116,26,0,1,13,46,646,892.1942941000161,892.7991761000012,"[58, 0, 196]",196,l,0.09008669998729602,colour,0.5
116,26,0,1,13,47,647,893.3087508000026,893.9912550000008,"[93, 0, 161]",161,l,0.1600365999911446,colour,0.5
116,26,0,1,13,48,648,894.4954264000116,895.127249400015,"[92, 0, 162]",162,l,0.12286550001590513,colour,0.5
116,26,0,1,13,49,649,895.6302636000037,896.2393427000206,"[69, 0, 185]",185,l,0.07642910000868142,colour,0.5
116,26,0,1,13,50,650,896.7344642000098,897.4072497000161,"[9, 0, 245]",245,a,0.158228100015549,colour,0.5
116,26,0,1,14,1,651,901.8906590000261,902.4791738000058,"[98, 0, 156]",156,l,0.0648759999894537,colour,0.5
116,26,0,1,14,2,652,902.9778665000049,903.5992483000155,"[72, 0, 182]",182,l,0.09975449999910779,colour,0.5
116,26,0,1,14,3,653,904.0942751000111,904.6632677000016,"[3, 0, 251]",251,a,0.060126999975182116,colour,0.5
116,26,0,1,14,4,654,905.1732798000157,905.7912172000215,"[61, 0, 193]",193,l,0.103541899996344,colour,0.5
116,26,0,1,14,5,655,906.308233400021,906.9432810000144,"[73, 0, 181]",181,l,0.12220010001328774,colour,0.5
116,26,0,1,14,6,656,907.457808600011,918.4952567,"[5, 0, 249]",249,l,10.521208399994066,colour,0.5
116,26,0,1,14,7,657,919.0042809000006,920.3352844000037,"[51, 0, 203]",203,a,0.7983571999939159,colour,0.5
116,26,0,1,14,8,658,920.843100099999,921.9512692000135,"[84, 0, 170]",170,l,0.5868364000052679,colour,0.5
116,26,0,1,14,9,659,922.4570959999983,923.1032796000072,"[56, 0, 198]",198,l,0.12735709999105893,colour,0.5
116,26,0,1,14,10,660,923.619310900016,924.2792173000053,"[25, 0, 229]",229,a,0.14108719999785535,colour,0.5
116,26,0,1,14,11,661,924.7932883000176,925.5112394000171,"[49, 0, 205]",205,a,0.18670029999339022,colour,0.5
116,26,0,1,14,12,662,926.0301008000097,926.6472031000012,"[7, 0, 247]",247,a,0.1094213999749627,colour,0.5
116,26,0,1,14,13,663,927.1569067000237,928.5752526000142,"[83, 0, 171]",171,a,0.9093948999943677,colour,0.5
116,26,0,1,14,14,664,929.0912530000205,929.759280600003,"[38, 0, 216]",216,a,0.15414769999915734,colour,0.5
116,26,0,1,14,15,665,930.2750397000054,931.7113759000204,"[75, 0, 179]",179,l,0.9137355000129901,colour,0.5
116,26,0,1,14,16,666,932.2278197999985,933.0233099000179,"[77, 0, 177]",177,l,0.2764137999911327,colour,0.5
116,26,0,1,14,17,667,933.525020800007,934.1352171000035,"[93, 0, 161]",161,l,0.09979809998185374,colour,0.5
116,26,0,1,14,18,668,934.6444769000227,935.3912859999982,"[66, 0, 188]",188,l,0.2241737999720499,colour,0.5
116,26,0,1,14,19,669,935.9078171000001,936.5032167000172,"[4, 0, 250]",250,a,0.061509599996497855,colour,0.5
116,26,0,1,14,20,670,937.0015512000246,937.7272267000226,"[22, 0, 232]",232,a,0.21714870000141673,colour,0.5
116,26,0,1,14,21,671,938.2414237000048,939.023241500021,"[74, 0, 180]",180,l,0.25765499999397434,colour,0.5
116,26,0,1,14,22,672,939.5306317000068,940.3193901000195,"[14, 0, 240]",240,a,0.27027649999945424,colour,0.5
116,26,0,1,14,23,673,940.8255997000088,941.415226800018,"[21, 0, 233]",233,a,0.0678708000050392,colour,0.5
116,26,0,1,14,24,674,941.9270782000094,942.4792920000036,"[48, 0, 206]",206,a,0.030918499978724867,colour,0.5
116,26,0,1,14,25,675,942.9948041000171,943.6792748000007,"[99, 0, 155]",155,l,0.17620909999823198,colour,0.5
116,26,0,1,14,26,676,944.1920318000193,944.8232221000071,"[15, 0, 239]",239,a,0.11641009998857044,colour,0.5
116,26,0,1,14,27,677,945.3439331000263,945.9752407000051,"[43, 0, 211]",211,a,0.10841309998068027,colour,0.5
116,26,0,1,14,28,678,946.476640000008,947.2631954000099,"[32, 0, 222]",222,a,0.27891590000945143,colour,0.5
116,26,0,1,14,29,679,947.7713211000082,948.4872353000101,"[19, 0, 235]",235,a,0.19676950000575744,colour,0.5
116,26,0,1,14,30,680,948.9917372000054,949.7512033000239,"[53, 0, 201]",201,a,0.23634640002273954,colour,0.5
116,26,0,1,14,31,681,950.2528234000201,950.7912492000032,"[13, 0, 241]",241,a,0.014291100000264123,colour,0.5
116,26,0,1,14,32,682,951.307890600001,952.0711965000082,"[81, 0, 173]",173,a,0.23742099999799393,colour,0.5
116,26,0,1,14,33,683,952.5880073000153,953.3832151000097,"[16, 0, 238]",238,a,0.2633239999995567,colour,0.5
116,26,0,1,14,34,684,953.8918667000253,954.6392306000052,"[44, 0, 210]",210,a,0.2333803999936208,colour,0.5
116,26,0,1,14,35,685,955.1454772000143,955.8232443000015,"[45, 0, 209]",209,a,0.15365100000053644,colour,0.5
116,26,0,1,14,36,686,956.3207423000131,957.0552349000063,"[27, 0, 227]",227,a,0.22016229998553172,colour,0.5
116,26,0,1,14,37,687,957.5756742000231,958.1352298000129,"[57, 0, 197]",197,a,0.037147299997741356,colour,0.5
116,26,0,1,14,38,688,958.643476600002,959.6472248000209,"[91, 0, 163]",163,a,0.4826648000162095,colour,0.5
116,26,0,1,14,39,689,960.1593598000181,960.9752353000222,"[58, 0, 196]",196,l,0.29371850000461563,colour,0.5
116,26,0,1,14,40,690,961.4865451000223,962.0711936000152,"[10, 0, 244]",244,l,0.05685369999264367,colour,0.5
116,26,0,1,14,41,691,962.5781412000069,963.0952076000103,"[40, 0, 214]",214,l,0.006206299993209541,colour,0.5
116,26,0,1,14,42,692,963.62215380001,964.3511485000199,"[8, 0, 246]",246,a,0.21223590002045967,colour,0.5
116,26,0,1,14,43,693,964.8501269000117,965.3752695000148,"[50, 0, 204]",204,a,0.016387700015911832,colour,0.5
116,26,0,1,14,44,694,965.8911107000022,966.4551692000241,"[35, 0, 219]",219,l,0.041790900024352595,colour,0.5
116,26,0,1,14,45,695,966.9625266000221,967.5831940000062,"[76, 0, 178]",178,a,0.11343860000488348,colour,0.5
116,26,0,1,14,46,696,968.0888316000055,968.7191928000248,"[52, 0, 202]",202,a,0.10480290002305992,colour,0.5
116,26,0,1,14,47,697,969.2339256000123,969.887318699999,"[9, 0, 245]",245,l,0.144786099990597,colour,0.5
116,26,0,1,14,48,698,970.3969886000268,971.0391546000028,"[86, 0, 168]",168,a,0.12427249999018386,colour,0.5
116,26,0,1,14,49,699,971.5463240000245,972.1272628000006,"[85, 0, 169]",169,a,0.06162449999828823,colour,0.5
116,26,0,1,14,50,700,972.6287265999999,973.3671988999995,"[70, 0, 184]",184,a,0.2180932999763172,colour,0.5
116,26,0,1,15,1,701,977.9237785000005,978.447622800013,"[33, 0, 221]",221,l,0.004420000012032688,colour,0.5
116,26,0,1,15,2,702,978.9579117000103,979.6471790000214,"[61, 0, 193]",193,a,0.15571360001922585,colour,0.5
116,26,0,1,15,3,703,980.1563853000116,980.767206700024,"[97, 0, 157]",157,l,0.10097950001363643,colour,0.5
116,26,0,1,15,4,704,981.2883518000017,981.9912205,"[65, 0, 189]",189,l,0.18739029997959733,colour,0.5
116,26,0,1,15,5,705,982.5093828000245,983.0951889000135,"[37, 0, 217]",217,l,0.07852760000969283,colour,0.5
116,26,0,1,15,6,706,983.6099699000188,984.1672116000263,"[16, 0, 238]",238,l,0.037451100011821836,colour,0.5
116,26,0,1,15,7,707,984.6621267000155,985.4551942000107,"[92, 0, 162]",162,a,0.28434079998987727,colour,0.5
116,26,0,1,15,8,708,985.9636732000217,986.5512125000241,"[78, 0, 176]",176,l,0.06857660002424382,colour,0.5
116,26,0,1,15,9,709,987.0454833000258,987.7911801000009,"[85, 0, 169]",169,l,0.23680449998937547,colour,0.5
116,26,0,1,15,10,710,988.3025949000148,988.8951996000251,"[23, 0, 231]",231,a,0.07385420001810417,colour,0.5
116,26,0,1,15,11,711,989.408677600004,989.9911832000071,"[81, 0, 173]",173,l,0.07446849998086691,colour,0.5
116,26,0,1,15,12,712,990.5078588000033,991.2151846000052,"[62, 0, 192]",192,a,0.19288849999429658,colour,0.5
116,26,0,1,15,13,713,991.7221203000227,992.2871942000056,"[46, 0, 208]",208,a,0.03339510000660084,colour,0.5
116,26,0,1,15,14,714,992.8030811000208,993.3512399000174,"[34, 0, 220]",220,a,0.01943260000552982,colour,0.5
116,26,0,1,15,15,715,993.863348200015,994.5271823000221,"[84, 0, 170]",170,l,0.15567750000627711,colour,0.5
116,26,0,1,15,16,716,995.0278411000036,995.6391704000125,"[49, 0, 205]",205,a,0.09545560000697151,colour,0.5
116,26,0,1,15,17,717,996.1444952000165,996.935194700025,"[45, 0, 209]",209,a,0.2648854000144638,colour,0.5
116,26,0,1,15,18,718,997.4425919000059,998.0391721000196,"[55, 0, 199]",199,l,0.07480339999892749,colour,0.5
116,26,0,1,15,19,719,998.5535990000062,999.3991735000163,"[15, 0, 239]",239,a,0.3335430000151973,colour,0.5
116,26,0,1,15,20,720,999.9074225000222,1000.5351788000262,"[41, 0, 213]",213,a,0.09684900002321228,colour,0.5
116,26,0,1,15,21,721,1001.0331074999995,1002.1991778000083,"[67, 0, 187]",187,a,0.6493852999992669,colour,0.5
116,26,0,1,15,22,722,1002.706387400016,1003.5432277000218,"[77, 0, 177]",177,l,0.3117476000043098,colour,0.5
116,26,0,1,15,23,723,1004.0516397000174,1004.7031851000211,"[27, 0, 227]",227,l,0.13763070001732558,colour,0.5
116,26,0,1,15,24,724,1005.208502500027,1006.6391853000096,"[98, 0, 156]",156,a,0.9075710999895819,colour,0.5
116,26,0,1,15,25,725,1007.1497789999994,1008.0792063000263,"[59, 0, 195]",195,a,0.4090666000265628,colour,0.5
116,26,0,1,15,26,726,1008.5886999000213,1009.2071976000152,"[0, 0, 254]",254,a,0.09570269999676384,colour,0.5
116,26,0,1,15,27,727,1009.7168845999986,1010.591152900015,"[42, 0, 212]",212,a,0.3593492000072729,colour,0.5
116,26,0,1,15,28,728,1011.1033332000079,1011.8631761000142,"[48, 0, 206]",206,a,0.23426900000777096,colour,0.5
116,26,0,1,15,29,729,1012.3749002000259,1012.9592080000148,"[14, 0, 240]",240,a,0.058626500016544014,colour,0.5
116,26,0,1,15,30,730,1013.4745766000124,1014.2152217000257,"[6, 0, 248]",248,a,0.21463540001423098,colour,0.5
116,26,0,1,15,31,731,1014.7267365000152,1015.2951730000204,"[93, 0, 161]",161,l,0.049581100000068545,colour,0.5
116,26,0,1,15,32,732,1015.8046612000035,1016.3512101000233,"[94, 0, 160]",160,l,0.015424800018081442,colour,0.5
116,26,0,1,15,33,733,1016.8599772000161,1017.6791768000112,"[82, 0, 172]",172,l,0.2971192999975756,colour,0.5
116,26,0,1,15,34,734,1018.1873071000155,1018.7991375999991,"[38, 0, 216]",216,a,0.07908759999554604,colour,0.5
116,26,0,1,15,35,735,1019.3011644000071,1019.983198300004,"[73, 0, 181]",181,a,0.16734149999683723,colour,0.5
116,26,0,1,15,36,736,1020.4912873000139,1021.1831686000223,"[11, 0, 243]",243,a,0.16229070001281798,colour,0.5
116,26,0,1,15,37,737,1021.6780113000132,1022.6711624000163,"[4, 0, 250]",250,a,0.47767059999750927,colour,0.5
116,26,0,1,15,38,738,1023.1795655000024,1023.81517050002,"[72, 0, 182]",182,a,0.11394750000908971,colour,0.5
116,26,0,1,15,39,739,1024.3251149000134,1025.3911628000205,"[91, 0, 163]",163,a,0.5542817999958061,colour,0.5
116,26,0,1,15,40,740,1025.9137966000126,1026.7111735000217,"[25, 0, 229]",229,l,0.280316300020786,colour,0.5
116,26,0,1,15,41,741,1027.2178536000138,1027.9911619000195,"[17, 0, 237]",237,a,0.258636500017019,colour,0.5
116,26,0,1,15,42,742,1028.5031641000242,1029.023145700019,"[7, 0, 247]",247,l,0.004669799993280321,colour,0.5
116,26,0,1,15,43,743,1029.5389431000222,1030.4231451000087,"[69, 0, 185]",185,a,0.3529058999847621,colour,0.5
116,26,0,1,15,44,744,1030.9412708000164,1031.7111529000103,"[96, 0, 158]",158,l,0.25166119998903014,colour,0.5
116,26,0,1,15,45,745,1032.217378900008,1032.7431508000009,"[8, 0, 246]",246,a,0.01027189998421818,colour,0.5
116,26,0,1,15,46,746,1033.257407099998,1033.9831538000144,"[70, 0, 184]",184,l,0.2125755000161007,colour,0.5
116,26,0,1,15,47,747,1034.4963233000017,1035.1591412000125,"[74, 0, 180]",180,a,0.1387436999939382,colour,0.5
116,26,0,1,15,48,748,1035.6605464000022,1036.2631491000066,"[21, 0, 233]",233,a,0.08177590000559576,colour,0.5
116,26,0,1,15,49,749,1036.766570000007,1037.367163100018,"[90, 0, 164]",164,l,0.08259800000814721,colour,0.5
116,26,0,1,15,50,750,1037.8632971000043,1038.4071857000235,"[31, 0, 223]",223,a,0.020532499998807907,colour,0.5
116,26,0,1,16,1,751,1043.075582200021,1043.751248400018,"[3, 0, 251]",251,a,0.1555238000000827,colour,0.5
116,26,0,1,16,2,752,1044.2595078000159,1045.1111543000152,"[50, 0, 204]",204,a,0.3357243000064045,colour,0.5
116,26,0,1,16,3,753,1045.627401900012,1046.2151552000141,"[62, 0, 192]",192,a,0.06983459999901243,colour,0.5
116,26,0,1,16,4,754,1046.726713800017,1047.3912216000026,"[6, 0, 248]",248,a,0.14493369997944683,colour,0.5
116,26,0,1,16,5,755,1047.9085907000117,1048.7031081000168,"[64, 0, 190]",190,l,0.263285499997437,colour,0.5
116,26,0,1,16,6,756,1049.2036330000265,1049.7271770000225,"[10, 0, 244]",244,l,0.01053719999617897,colour,0.5
116,26,0,1,16,7,757,1050.2471456000058,1051.0951276000123,"[9, 0, 245]",245,a,0.3390408999985084,colour,0.5
116,26,0,1,16,8,758,1051.6087980000011,1052.239212000015,"[72, 0, 182]",182,l,0.10760779998963699,colour,0.5
116,26,0,1,16,9,759,1052.7511716000154,1053.3511256000202,"[70, 0, 184]",184,l,0.07720030000200495,colour,0.5
116,26,0,1,16,10,760,1053.8595017000043,1054.3992108000093,"[42, 0, 212]",212,a,0.008744899998418987,colour,0.5
116,26,0,1,16,11,761,1054.9278790000244,1055.663128300017,"[22, 0, 232]",232,l,0.21543300000485033,colour,0.5
116,26,0,1,16,12,762,1056.1657682000077,1056.8231047000154,"[86, 0, 168]",168,l,0.1414949999889359,colour,0.5
116,26,0,1,16,13,763,1057.3254675000207,1057.8791200999985,"[66, 0, 188]",188,l,0.045148199977120385,colour,0.5
116,26,0,1,16,14,764,1058.3964496000262,1058.9351601000235,"[43, 0, 211]",211,l,0.031037000007927418,colour,0.5
116,26,0,1,16,15,765,1059.4454088000057,1060.095131900016,"[84, 0, 170]",170,a,0.14206240000203252,colour,0.5
116,26,0,1,16,16,766,1060.6036450000247,1061.3191257000144,"[61, 0, 193]",193,l,0.20696889999089763,colour,0.5
116,26,0,1,16,17,767,1061.8234992000216,1062.5030889000045,"[91, 0, 163]",163,a,0.15492070000618696,colour,0.5
116,26,0,1,16,18,768,1063.0111042000062,1063.6311167000094,"[36, 0, 218]",218,l,0.11203749998821877,colour,0.5
116,26,0,1,16,19,769,1064.1464519000147,1064.6872000000149,"[28, 0, 226]",226,l,0.03250480000860989,colour,0.5
116,26,0,1,16,20,770,1065.193896700017,1065.7271566000127,"[88, 0, 166]",166,l,0.0026879000070039183,colour,0.5
116,26,0,1,16,21,771,1066.2408686999988,1066.7671073000238,"[96, 0, 158]",158,l,0.007201800006441772,colour,0.5
116,26,0,1,16,22,772,1067.2910142000183,1067.8791434000013,"[51, 0, 203]",203,a,0.07126089997473173,colour,0.5
116,26,0,1,16,23,773,1068.3942484,1068.9270471000054,"[80, 0, 174]",174,l,0.01779240000178106,colour,0.5
116,26,0,1,16,24,774,1069.4373011999996,1069.9911362999992,"[4, 0, 250]",250,a,0.028102599986596033,colour,0.5
116,26,0,1,16,25,775,1070.4970362000167,1071.183045600017,"[39, 0, 215]",215,a,0.17903210001531988,colour,0.5
116,26,0,1,16,26,776,1071.6986682999996,1072.2550379000022,"[1, 0, 253]",253,l,0.04012160000274889,colour,0.5
116,26,0,1,16,27,777,1072.7574453999987,1073.455176700023,"[2, 0, 252]",252,l,0.18636230000993237,colour,0.5
116,26,0,1,16,28,778,1073.9692173000076,1074.6151772000012,"[33, 0, 221]",221,a,0.11118849998456426,colour,0.5
116,26,0,1,16,29,779,1075.1344645000063,1075.775151000009,"[38, 0, 216]",216,l,0.1185737999912817,colour,0.5
116,26,0,1,16,30,780,1076.2920196000196,1076.9511209000193,"[37, 0, 217]",217,a,0.13879130000714213,colour,0.5
116,26,0,1,16,31,781,1077.457940799999,1078.0870469000074,"[23, 0, 231]",231,l,0.11445689998799935,colour,0.5
116,26,0,1,16,32,782,1078.5925611999992,1079.1990600000136,"[45, 0, 209]",209,a,0.09852229998796247,colour,0.5
116,26,0,1,16,33,783,1079.7056797000114,1080.3351922000002,"[55, 0, 199]",199,l,0.11066929998924024,colour,0.5
116,26,0,1,16,34,784,1080.8375224000192,1081.3911231000093,"[81, 0, 173]",173,a,0.028401599993230775,colour,0.5
116,26,0,1,16,35,785,1081.8853875000204,1082.4791025000159,"[54, 0, 200]",200,l,0.07666150000295602,colour,0.5
116,26,0,1,16,36,786,1082.9807648000133,1083.671041100024,"[56, 0, 198]",198,l,0.16793310001958162,colour,0.5
116,26,0,1,16,37,787,1084.177672800026,1084.7191444000055,"[25, 0, 229]",229,a,0.021471699990797788,colour,0.5
116,26,0,1,16,38,788,1085.2248773000028,1085.9030376000155,"[76, 0, 178]",178,l,0.16622040001675487,colour,0.5
116,26,0,1,16,39,789,1086.4241614000057,1087.0071454000135,"[16, 0, 238]",238,l,0.06390539999119937,colour,0.5
116,26,0,1,16,40,790,1087.5250081000268,1088.1191319000209,"[67, 0, 187]",187,a,0.07629440000164323,colour,0.5
116,26,0,1,16,41,791,1088.6216918000137,1089.1991118000005,"[57, 0, 197]",197,l,0.061762899975292385,colour,0.5
116,26,0,1,16,42,792,1089.707851300016,1090.263214400009,"[94, 0, 160]",160,a,0.024495999998180196,colour,0.5
116,26,0,1,16,43,793,1090.7631917000108,1091.3990790000244,"[60, 0, 194]",194,a,0.1274571000249125,colour,0.5
116,26,0,1,16,44,794,1091.9128457000188,1092.7670625000028,"[49, 0, 205]",205,l,0.331140599999344,colour,0.5
116,26,0,1,16,45,795,1093.2790231000108,1093.9270835000207,"[48, 0, 206]",206,a,0.12676559999817982,colour,0.5
116,26,0,1,16,46,796,1094.4417565000185,1095.110955400014,"[40, 0, 214]",214,a,0.1392094999901019,colour,0.5
116,26,0,1,16,47,797,1095.6266880000185,1096.1912566000246,"[93, 0, 161]",161,l,0.05681500001810491,colour,0.5
116,26,0,1,16,48,798,1096.7111391000217,1097.2791734000202,"[46, 0, 208]",208,a,0.05945570001495071,colour,0.5
116,26,0,1,16,49,799,1097.7764865000208,1098.311148000008,"[90, 0, 164]",164,l,0.02610309998271987,colour,0.5
116,26,0,1,16,50,800,1098.8167325000104,1099.4473035999981,"[18, 0, 236]",236,a,0.1097839999711141,colour,0.5
