id,age,condition,counterbalance,block,trialinblock,trial,tstart,tend,trialstim,trialintensity,response,RT,trialtype,colourfreq
135,28,1,2,Practice,1,NA,5.600042641162872e-06,1.4874382000416517,"[66, 0, 188]",188,l,0.962778800050728,colour,0.5
135,28,1,2,Practice,2,NA,1.9947497999528423,2.5914030999410897,"[15, 0, 239]",239,a,0.07344759989064187,colour,0.5
135,28,1,2,Practice,3,NA,3.105898999958299,3.7114670999580994,"[50, 0, 204]",204,a,0.08231590001378208,colour,0.5
135,28,1,2,Practice,4,NA,4.23074429994449,6.991472400026396,"[70, 0, 184]",184,l,2.237440300057642,colour,0.5
135,28,1,2,Practice,5,NA,7.511946200043894,8.111411500023678,"[96, 0, 158]",158,l,0.07327190006617457,colour,0.5
135,28,1,2,Practice,6,NA,8.624685600050725,11.279429799993522,"[23, 0, 231]",231,a,2.1272621999960393,colour,0.5
135,28,1,2,Practice,7,NA,11.80084259994328,12.919414500007406,"[36, 0, 218]",218,a,0.595600500004366,colour,0.5
135,28,1,2,Practice,8,NA,13.428656399948522,13.975476899999194,"[42, 0, 212]",212,a,0.022529499954544008,colour,0.5
135,28,1,2,Practice,9,NA,14.494601399987005,17.01544680004008,"[55, 0, 199]",199,a,1.9976507000392303,colour,0.5
135,28,1,2,Practice,10,NA,17.525767900049686,18.591418799944222,"[22, 0, 232]",232,a,0.5423926999792457,colour,0.5
135,28,1,2,1,1,1,4.500601999927312,5.303954700008035,"[43, 0, 211]",211,a,0.27937410003505647,colour,0.5
135,28,1,2,1,2,2,5.818074299953878,6.647952299914323,"[55, 0, 199]",199,a,0.30984109989367425,colour,0.5
135,28,1,2,1,3,3,7.158669400028884,8.103986399946734,"[60, 0, 194]",194,a,0.41933720000088215,colour,0.5
135,28,1,2,1,4,4,8.614555399981327,9.463991299970075,"[49, 0, 205]",205,a,0.3261806999798864,colour,0.5
135,28,1,2,1,5,5,9.973930099979043,10.815957500017248,"[23, 0, 231]",231,a,0.31887730001471937,colour,0.5
135,28,1,2,1,6,6,11.33305479993578,12.191986699937843,"[39, 0, 215]",215,a,0.33568169991485775,colour,0.5
135,28,1,2,1,7,7,12.69927659991663,13.223991899983957,"[75, 0, 179]",179,l,0.0013645000290125608,colour,0.5
135,28,1,2,1,8,8,13.746003199950792,14.655958199989982,"[79, 0, 175]",175,l,0.3870248000603169,colour,0.5
135,28,1,2,1,9,9,15.167995600029826,16.071962399990298,"[97, 0, 157]",157,l,0.38097860000561923,colour,0.5
135,28,1,2,1,10,10,16.589533200021833,17.55195100000128,"[69, 0, 185]",185,l,0.43628590006846935,colour,0.5
135,28,1,2,1,11,11,18.061180499964394,18.871995299938135,"[54, 0, 200]",200,a,0.2876795999472961,colour,0.5
135,28,1,2,1,12,12,19.379870599950664,20.223938999930397,"[42, 0, 212]",212,a,0.32079029991291463,colour,0.5
135,28,1,2,1,13,13,20.739143899991177,21.567976500024088,"[53, 0, 201]",201,a,0.30564050003886223,colour,0.5
135,28,1,2,1,14,14,22.082829299964942,22.951944099972025,"[26, 0, 228]",228,a,0.3459162999643013,colour,0.5
135,28,1,2,1,15,15,23.457630099961534,24.431953500024974,"[32, 0, 222]",222,a,0.4492985000833869,colour,0.5
135,28,1,2,1,16,16,24.943710900028236,25.823953700019047,"[58, 0, 196]",196,a,0.3570580000523478,colour,0.5
135,28,1,2,1,17,17,26.33429599995725,27.383980899932794,"[19, 0, 235]",235,a,0.5266038000117987,colour,0.5
135,28,1,2,1,18,18,27.89846589998342,28.82393139996566,"[17, 0, 237]",237,a,0.40227730001788586,colour,0.5
135,28,1,2,1,19,19,29.326507200021297,30.255928799975663,"[47, 0, 207]",207,a,0.4062264000531286,colour,0.5
135,28,1,2,1,20,20,30.76388450001832,31.65598089993,"[96, 0, 158]",158,l,0.37173209991306067,colour,0.5
135,28,1,2,1,21,21,32.16727540001739,33.031930599943735,"[44, 0, 210]",210,a,0.3414318999275565,colour,0.5
135,28,1,2,1,22,22,33.542106300010346,34.4319008999737,"[88, 0, 166]",166,l,0.3665565999690443,colour,0.5
135,28,1,2,1,23,23,34.948246699990705,35.959914800012484,"[67, 0, 187]",187,l,0.48543680005241185,colour,0.5
135,28,1,2,1,24,24,36.46683309995569,37.311945799971,"[11, 0, 243]",243,a,0.321938700042665,colour,0.5
135,28,1,2,1,25,25,37.82622289995197,38.74392619996797,"[3, 0, 251]",251,a,0.3945584000321105,colour,0.5
135,28,1,2,1,26,26,39.26394410000648,40.17590069992002,"[34, 0, 220]",220,a,0.38776599999982864,colour,0.5
135,28,1,2,1,27,27,40.686733999988064,41.639972299919464,"[20, 0, 234]",234,a,0.43020619999151677,colour,0.5
135,28,1,2,1,28,28,42.155399499926716,42.99191759992391,"[45, 0, 209]",209,a,0.31341649999376386,colour,0.5
135,28,1,2,1,29,29,43.499863200006075,44.37593909993302,"[50, 0, 204]",204,a,0.3529176999581978,colour,0.5
135,28,1,2,1,30,30,44.890402199933305,45.72795309999492,"[82, 0, 172]",172,l,0.3143736000638455,colour,0.5
135,28,1,2,1,31,31,46.23588649998419,47.11996189993806,"[25, 0, 229]",229,a,0.36087859992403537,colour,0.5
135,28,1,2,1,32,32,47.62645620002877,48.67990619991906,"[36, 0, 218]",218,a,0.530272499890998,colour,0.5
135,28,1,2,1,33,33,49.19182079995517,50.13591469998937,"[7, 0, 247]",247,a,0.4207996999612078,colour,0.5
135,28,1,2,1,34,34,50.64479139994364,51.55190409999341,"[29, 0, 225]",225,a,0.3841051000636071,colour,0.5
135,28,1,2,1,35,35,52.06655300001148,53.26389810000546,"[51, 0, 203]",203,a,0.6740621000062674,colour,0.5
135,28,1,2,1,36,36,53.78515599993989,54.695897400029935,"[93, 0, 161]",161,l,0.38748650008346885,colour,0.5
135,28,1,2,1,37,37,55.20686489995569,56.27194889995735,"[61, 0, 193]",193,l,0.5418958000373095,colour,0.5
135,28,1,2,1,38,38,56.784971299930476,57.80791109998245,"[56, 0, 198]",198,l,0.49677570001222193,colour,0.5
135,28,1,2,1,39,39,58.31904480000958,58.97592569992412,"[5, 0, 249]",249,a,0.14300649997312576,colour,0.5
135,28,1,2,1,40,40,59.497068500029854,60.47993459994905,"[68, 0, 186]",186,l,0.45971429999917746,colour,0.5
135,28,1,2,1,41,41,60.9969821999548,61.887924399925396,"[78, 0, 176]",176,l,0.36774759995751083,colour,0.5
135,28,1,2,1,42,42,62.403086800011806,63.20790259994101,"[16, 0, 238]",238,a,0.2817020999500528,colour,0.5
135,28,1,2,1,43,43,63.71547769999597,64.5919040000299,"[62, 0, 192]",192,l,0.35318800003733486,colour,0.5
135,28,1,2,1,44,44,65.10594629996922,65.86390240001492,"[28, 0, 226]",226,a,0.2349679000908509,colour,0.5
135,28,1,2,1,45,45,66.37133679992985,67.16791479999665,"[4, 0, 250]",250,a,0.2731824000366032,colour,0.5
135,28,1,2,1,46,46,67.68394539994188,68.48786320001818,"[98, 0, 156]",156,l,0.28065570001490414,colour,0.5
135,28,1,2,1,47,47,68.9962605999317,69.80792619998101,"[76, 0, 178]",178,l,0.28864789998624474,colour,0.5
135,28,1,2,1,48,48,70.32428339996841,71.16787489992566,"[89, 0, 165]",165,l,0.3204543999163434,colour,0.5
135,28,1,2,1,49,49,71.68354789994191,72.43192799994722,"[24, 0, 230]",230,a,0.22512760001700372,colour,0.5
135,28,1,2,1,50,50,72.94907289999537,73.76791489997413,"[85, 0, 169]",169,l,0.2956250000279397,colour,0.5
135,28,1,2,2,1,51,78.7915327999508,79.44788699992932,"[68, 0, 186]",186,l,0.132383199990727,colour,0.5
135,28,1,2,2,2,52,79.964077899931,81.05593839997891,"[13, 0, 241]",241,a,0.5686282999813557,colour,0.5
135,28,1,2,2,3,53,81.57496989995707,82.34387620002963,"[85, 0, 169]",169,l,0.24643280007876456,colour,0.5
135,28,1,2,2,4,54,82.85605019994546,84.39192099997308,"[55, 0, 199]",199,l,1.0126481000334024,colour,0.5
135,28,1,2,2,5,55,84.90280059992801,85.72789729991928,"[38, 0, 216]",216,a,0.29900319990701973,colour,0.5
135,28,1,2,2,6,56,86.23374379996676,87.07188699999824,"[47, 0, 207]",207,a,0.31485059997066855,colour,0.5
135,28,1,2,2,7,57,87.58167410001624,88.40788249997422,"[46, 0, 208]",208,a,0.3037756000412628,colour,0.5
135,28,1,2,2,8,58,88.92188499995973,89.79190469998866,"[60, 0, 194]",194,l,0.3468111000256613,colour,0.5
135,28,1,2,2,9,59,90.31247509992681,91.07987919996958,"[63, 0, 191]",191,l,0.24447809997946024,colour,0.5
135,28,1,2,2,10,60,91.59376459999476,92.3759485000046,"[5, 0, 249]",249,a,0.2597529999911785,colour,0.5
135,28,1,2,2,11,61,92.89058120001573,93.63183119997848,"[92, 0, 162]",162,l,0.21498679998330772,colour,0.5
135,28,1,2,2,12,62,94.13110889995005,94.9358994999202,"[4, 0, 250]",250,a,0.28154429991263896,colour,0.5
135,28,1,2,2,13,63,95.44355450000148,96.32794510002714,"[53, 0, 201]",201,l,0.3613006001105532,colour,0.5
135,28,1,2,2,14,64,96.83404119999614,97.63990720000584,"[19, 0, 235]",235,a,0.2826066000852734,colour,0.5
135,28,1,2,2,15,65,98.14646369998809,98.93594150000717,"[64, 0, 190]",190,l,0.26635689998511225,colour,0.5
135,28,1,2,2,16,66,99.44919159996789,100.25596480001695,"[33, 0, 221]",221,a,0.28365100000519305,colour,0.5
135,28,1,2,2,17,67,100.77773299999535,101.53593779995572,"[77, 0, 177]",177,l,0.23540210002101958,colour,0.5
135,28,1,2,2,18,68,102.04284289991483,102.92791149998084,"[91, 0, 163]",163,l,0.36186059995088726,colour,0.5
135,28,1,2,2,19,69,103.4490278000012,104.19193400000222,"[49, 0, 205]",205,a,0.2197936000302434,colour,0.5
135,28,1,2,2,20,70,104.69888179993723,105.49590879993048,"[37, 0, 217]",217,a,0.2738351000007242,colour,0.5
135,28,1,2,2,21,71,106.01385139999911,106.83187949995045,"[22, 0, 232]",232,a,0.29479439998976886,colour,0.5
135,28,1,2,2,22,72,107.34185199998319,108.07986449997406,"[86, 0, 168]",168,l,0.214748700032942,colour,0.5
135,28,1,2,2,23,73,108.58263730001636,109.43982369999867,"[90, 0, 164]",164,l,0.3340067000826821,colour,0.5
135,28,1,2,2,24,74,109.95764689997304,110.71186419995502,"[20, 0, 234]",234,a,0.23109200003091246,colour,0.5
135,28,1,2,2,25,75,111.2176591999596,111.9758884999901,"[98, 0, 156]",156,l,0.2350130999693647,colour,0.5
135,28,1,2,2,26,76,112.48312719992828,113.25590939994436,"[28, 0, 226]",226,a,0.24950899998657405,colour,0.5
135,28,1,2,2,27,77,113.76427429995965,114.53585939994082,"[16, 0, 238]",238,a,0.24842680001165718,colour,0.5
135,28,1,2,2,28,78,115.04828320001252,115.85583259991836,"[42, 0, 212]",212,a,0.28443729993887246,colour,0.5
135,28,1,2,2,29,79,116.37621189991478,117.11993759998586,"[66, 0, 188]",188,l,0.22922430001199245,colour,0.5
135,28,1,2,2,30,80,117.6329975000117,118.39987720001955,"[83, 0, 171]",171,l,0.24369020003359765,colour,0.5
135,28,1,2,2,31,81,118.91408919997048,119.71187360002659,"[6, 0, 248]",248,a,0.27366600011009723,colour,0.5
135,28,1,2,2,32,82,120.22741319995839,121.04787709994707,"[23, 0, 231]",231,a,0.30004130001179874,colour,0.5
135,28,1,2,2,33,83,121.56822040001862,122.30383929994423,"[67, 0, 187]",187,l,0.20939690002705902,colour,0.5
135,28,1,2,2,34,84,122.81603330001235,123.59186799998861,"[32, 0, 222]",222,a,0.2608273000223562,colour,0.5
135,28,1,2,2,35,85,124.1046275999397,124.81589079997502,"[84, 0, 170]",170,l,0.1884176000021398,colour,0.5
135,28,1,2,2,36,86,125.3160337000154,126.0479085999541,"[14, 0, 240]",240,a,0.20877409994136542,colour,0.5
135,28,1,2,2,37,87,126.56587389996275,127.39986729994416,"[24, 0, 230]",230,a,0.3107863999903202,colour,0.5
135,28,1,2,2,38,88,127.90963250002824,128.68788270000368,"[18, 0, 236]",236,a,0.2551060999976471,colour,0.5
135,28,1,2,2,39,89,129.20630600000732,129.95982719992753,"[79, 0, 175]",175,l,0.23031849996186793,colour,0.5
135,28,1,2,2,40,90,130.47187739994843,131.23988579993602,"[17, 0, 237]",237,a,0.24486400000751019,colour,0.5
135,28,1,2,2,41,91,131.7406529999571,132.56792349996977,"[61, 0, 193]",193,l,0.3040739999851212,colour,0.5
135,28,1,2,2,42,92,133.08429359993897,133.84787349996623,"[12, 0, 242]",242,a,0.24037010001484305,colour,0.5
135,28,1,2,2,43,93,134.36551159992814,135.10386869998183,"[76, 0, 178]",178,l,0.21528320002835244,colour,0.5
135,28,1,2,2,44,94,135.61666649999097,136.14389860001393,"[57, 0, 197]",197,a,0.004044000059366226,colour,0.5
135,28,1,2,2,45,95,136.66340710001532,137.79987540002912,"[81, 0, 173]",173,l,0.613245900021866,colour,0.5
135,28,1,2,2,46,96,138.3213778999634,139.0638772000093,"[44, 0, 210]",210,a,0.21928840002510697,colour,0.5
135,28,1,2,2,47,97,139.57132729992736,140.359828799963,"[41, 0, 213]",213,a,0.2653131999541074,colour,0.5
135,28,1,2,2,48,98,140.85871719999705,141.55187059997115,"[80, 0, 174]",174,l,0.1698892000131309,colour,0.5
135,28,1,2,2,49,99,142.0618991999654,142.83984279993456,"[70, 0, 184]",184,l,0.2550273999804631,colour,0.5
135,28,1,2,2,50,100,143.3585754999658,144.1118509999942,"[87, 0, 167]",167,l,0.23066020000260323,colour,0.5
135,28,1,2,3,1,101,148.70206009992398,149.47185590001754,"[7, 0, 247]",247,a,0.24582990002818406,colour,0.5
135,28,1,2,3,2,102,149.9840852000052,150.71993489994202,"[90, 0, 164]",164,l,0.21263399999588728,colour,0.5
135,28,1,2,3,3,103,151.2340326999547,151.88788019993808,"[55, 0, 199]",199,a,0.13069189991801977,colour,0.5
135,28,1,2,3,4,104,152.3963765000226,153.1758466999745,"[3, 0, 251]",251,a,0.25643740000668913,colour,0.5
135,28,1,2,3,5,105,153.69315950002056,154.3278548999224,"[13, 0, 241]",241,a,0.111488499911502,colour,0.5
135,28,1,2,3,6,106,154.8343207000289,155.75182459992357,"[46, 0, 208]",208,l,0.3942494000075385,colour,0.5
135,28,1,2,3,7,107,156.27164489997085,157.04786219995003,"[70, 0, 184]",184,l,0.25292489991988987,colour,0.5
135,28,1,2,3,8,108,157.56842809997033,158.3439015999902,"[68, 0, 186]",186,l,0.2522563000675291,colour,0.5
135,28,1,2,3,9,109,158.86517829995137,159.59181070001796,"[17, 0, 237]",237,a,0.20405870000831783,colour,0.5
135,28,1,2,3,10,110,160.0994049999863,160.86388650001027,"[35, 0, 219]",219,a,0.24140940001234412,colour,0.5
135,28,1,2,3,11,111,161.38061529991683,162.31182870001066,"[56, 0, 198]",198,l,0.40805740002542734,colour,0.5
135,28,1,2,3,12,112,162.8198177999584,163.5998739999486,"[74, 0, 180]",180,l,0.2568879999453202,colour,0.5
135,28,1,2,3,13,113,164.11653879994992,164.89584499993362,"[84, 0, 170]",170,l,0.2560773999430239,colour,0.5
135,28,1,2,3,14,114,165.41334049997386,166.1918612999143,"[22, 0, 232]",232,a,0.25527939992025495,colour,0.5
135,28,1,2,3,15,115,166.7101022999268,167.48780589993112,"[15, 0, 239]",239,a,0.2544997999211773,colour,0.5
135,28,1,2,3,16,116,168.00682399992365,168.71187320002355,"[98, 0, 156]",156,l,0.19112870004028082,colour,0.5
135,28,1,2,3,17,117,169.2318117999239,170.20783750002738,"[18, 0, 236]",236,a,0.45327960001304746,colour,0.5
135,28,1,2,3,18,118,170.7160150000127,171.56783670000732,"[40, 0, 214]",214,a,0.3267700000433251,colour,0.5
135,28,1,2,3,19,119,172.06766579998657,172.83983539999463,"[27, 0, 227]",227,a,0.2490269000409171,colour,0.5
135,28,1,2,3,20,120,173.34873929992318,174.11184589995537,"[86, 0, 168]",168,l,0.23981599998660386,colour,0.5
135,28,1,2,3,21,121,174.62990860000718,175.5038355999859,"[73, 0, 181]",181,l,0.35070339997764677,colour,0.5
135,28,1,2,3,22,122,176.02043629996479,176.81582879996859,"[23, 0, 231]",231,a,0.2721657999791205,colour,0.5
135,28,1,2,3,23,123,177.32457749999594,178.07990240002982,"[53, 0, 201]",201,a,0.23205170000437647,colour,0.5
135,28,1,2,3,24,124,178.59009840001818,179.35985839995556,"[20, 0, 234]",234,a,0.2465187000343576,colour,0.5
135,28,1,2,3,25,125,179.8712828999851,180.6238672999898,"[76, 0, 178]",178,l,0.22938589996192604,colour,0.5
135,28,1,2,3,26,126,181.13675930001773,181.7918196999235,"[9, 0, 245]",245,a,0.12922219990286976,colour,0.5
135,28,1,2,3,27,127,182.31190530001186,183.07987909996882,"[21, 0, 233]",233,a,0.25610510003753006,colour,0.5
135,28,1,2,3,28,128,183.58482819993515,184.4318017999176,"[51, 0, 203]",203,l,0.3237620999570936,colour,0.5
135,28,1,2,3,29,129,184.94412599992938,185.92784289992414,"[83, 0, 171]",171,l,0.46058169996831566,colour,0.5
135,28,1,2,3,30,130,186.4458156999899,187.17579050001223,"[67, 0, 187]",187,l,0.2071124000940472,colour,0.5
135,28,1,2,3,31,131,187.6989362000022,188.76783989998512,"[1, 0, 253]",253,a,0.5457562999799848,colour,0.5
135,28,1,2,3,32,132,189.26615809998475,190.02388939994853,"[96, 0, 158]",158,l,0.23448520002420992,colour,0.5
135,28,1,2,3,33,133,190.5317790999543,191.71182109997608,"[47, 0, 207]",207,l,0.6569494999712333,colour,0.5
135,28,1,2,3,34,134,192.2190477999393,192.94384439999703,"[12, 0, 242]",242,a,0.20140410005114973,colour,0.5
135,28,1,2,3,35,135,193.44411239994224,194.22385189996567,"[25, 0, 229]",229,a,0.2564771999605,colour,0.5
135,28,1,2,3,36,136,194.742795499973,195.44780879991595,"[63, 0, 191]",191,l,0.18172749993391335,colour,0.5
135,28,1,2,3,37,137,195.9510540999472,196.78382709994912,"[81, 0, 173]",173,l,0.3095744999591261,colour,0.5
135,28,1,2,3,38,138,197.2946461000247,197.9997823999729,"[41, 0, 213]",213,a,0.181966400006786,colour,0.5
135,28,1,2,3,39,139,198.5132795999525,199.28780399996322,"[64, 0, 190]",190,l,0.2629273999482393,colour,0.5
135,28,1,2,3,40,140,199.79846600000747,200.55986529996153,"[79, 0, 175]",175,l,0.23836119996849447,colour,0.5
135,28,1,2,3,41,141,201.07951039995532,201.7598474000115,"[8, 0, 246]",246,a,0.15736930002458394,colour,0.5
135,28,1,2,3,42,142,202.26695840002503,203.02382340002805,"[95, 0, 159]",159,l,0.23372400004882365,colour,0.5
135,28,1,2,3,43,143,203.5324103999883,204.46382239996456,"[61, 0, 193]",193,a,0.4082774999551475,colour,0.5
135,28,1,2,3,44,144,204.9698237000266,205.65579340001568,"[78, 0, 176]",176,l,0.16289889998733997,colour,0.5
135,28,1,2,3,45,145,206.17293210001662,206.71977540000807,"[38, 0, 216]",216,a,0.019069000030867755,colour,0.5
135,28,1,2,3,46,146,207.23997380002402,207.95975339994766,"[82, 0, 172]",172,l,0.1967455999692902,colour,0.5
135,28,1,2,3,47,147,208.46550149994437,209.08780149999075,"[2, 0, 252]",252,a,0.09917549998499453,colour,0.5
135,28,1,2,3,48,148,209.60600279993378,210.44776629994158,"[62, 0, 192]",192,l,0.31861359998583794,colour,0.5
135,28,1,2,3,49,149,210.9702819000231,211.6558139999397,"[0, 0, 254]",254,a,0.162309099920094,colour,0.5
135,28,1,2,3,50,150,212.17334099998698,212.95177239994518,"[33, 0, 221]",221,a,0.2551589999347925,colour,0.5
135,28,1,2,4,1,151,220.81438889994752,221.3521872999845,"[2, 0, 252]",252,a,0.013961600023321807,colour,0.5
135,28,1,2,4,2,152,221.86196389992256,223.51980879995972,"[73, 0, 181]",181,l,1.1348021000158042,colour,0.5
135,28,1,2,4,3,153,224.03367289993912,224.83984689996578,"[66, 0, 188]",188,l,0.2830108000198379,colour,0.5
135,28,1,2,4,4,154,225.3460304000182,226.09575650002807,"[0, 0, 254]",254,a,0.22679500002413988,colour,0.5
135,28,1,2,4,5,155,226.61154459998943,227.36777639994398,"[89, 0, 165]",165,l,0.23320729995612055,colour,0.5
135,28,1,2,4,6,156,227.87702010001522,228.63176969997585,"[95, 0, 159]",159,l,0.23151750001125038,colour,0.5
135,28,1,2,4,7,157,229.1425335999811,229.8638419000199,"[33, 0, 221]",221,a,0.1980689000338316,colour,0.5
135,28,1,2,4,8,158,230.3777949999785,231.1118126999354,"[99, 0, 155]",155,l,0.21085309993941337,colour,0.5
135,28,1,2,4,9,159,231.62769609992392,232.20772910001688,"[52, 0, 202]",202,a,0.05687000008765608,colour,0.5
135,28,1,2,4,10,160,232.72140119993128,233.45580519991927,"[25, 0, 229]",229,a,0.21122929989360273,colour,0.5
135,28,1,2,4,11,161,233.97163669997826,235.03983060002793,"[82, 0, 172]",172,l,0.5453506000339985,colour,0.5
135,28,1,2,4,12,162,235.54935009998735,236.33580130001064,"[64, 0, 190]",190,l,0.263270299998112,colour,0.5
135,28,1,2,4,13,163,236.8462368999608,237.82376199995633,"[90, 0, 164]",164,l,0.4545594999799505,colour,0.5
135,28,1,2,4,14,164,238.31824299995787,239.17576819995884,"[98, 0, 156]",156,l,0.3347355999285355,colour,0.5
135,28,1,2,4,15,165,239.69305669993628,240.35982759995386,"[28, 0, 226]",226,a,0.143597099930048,colour,0.5
135,28,1,2,4,16,166,240.86676979996264,241.61579149996396,"[67, 0, 187]",187,l,0.22289610002189875,colour,0.5
135,28,1,2,4,17,167,242.1352448000107,242.88777879998088,"[70, 0, 184]",184,l,0.22920950001571327,colour,0.5
135,28,1,2,4,18,168,243.40155579999555,244.1677702999441,"[16, 0, 238]",238,a,0.24914049997460097,colour,0.5
135,28,1,2,4,19,169,244.68171029991936,245.45576419995632,"[45, 0, 209]",209,l,0.25081909995060414,colour,0.5
135,28,1,2,4,20,170,245.95107870001812,246.67178059997968,"[42, 0, 212]",212,a,0.19746509997639805,colour,0.5
135,28,1,2,4,21,171,247.18710959993768,247.9357801999431,"[76, 0, 178]",178,l,0.22540330002084374,colour,0.5
135,28,1,2,4,22,172,248.45455309993122,249.23179839993827,"[10, 0, 244]",244,a,0.2499076999956742,colour,0.5
135,28,1,2,4,23,173,249.73976949998178,250.4477669999469,"[35, 0, 219]",219,a,0.18473700003232807,colour,0.5
135,28,1,2,4,24,174,250.95330940000713,251.67982369998936,"[53, 0, 201]",201,a,0.203362200059928,colour,0.5
135,28,1,2,4,25,175,252.1876718000276,252.91980559995864,"[46, 0, 208]",208,a,0.20897929999046028,colour,0.5
135,28,1,2,4,26,176,253.43747200001962,254.1677257999545,"[87, 0, 167]",167,l,0.2070158999413252,colour,0.5
135,28,1,2,4,27,177,254.6874976999825,255.36778319999576,"[27, 0, 227]",227,a,0.15715960005763918,colour,0.5
135,28,1,2,4,28,178,255.8748529999284,256.4638082999736,"[86, 0, 168]",168,l,0.06579679995775223,colour,0.5
135,28,1,2,4,29,179,256.98414880002383,257.5997691999655,"[44, 0, 210]",210,a,0.09247989999130368,colour,0.5
135,28,1,2,4,30,180,258.10892209992744,258.7117815000238,"[14, 0, 240]",240,a,0.07991369999945164,colour,0.5
135,28,1,2,4,31,181,259.21825309994165,259.91177489992697,"[17, 0, 237]",237,a,0.17031189997214824,colour,0.5
135,28,1,2,4,32,182,260.42129710002337,261.0557173999259,"[94, 0, 160]",160,l,0.1112862000009045,colour,0.5
135,28,1,2,4,33,183,261.5495416999329,262.13580639997963,"[49, 0, 205]",205,a,0.06316310004331172,colour,0.5
135,28,1,2,4,34,184,262.6431293999776,264.74376219999976,"[56, 0, 198]",198,a,1.5774397000204772,colour,0.5
135,28,1,2,4,35,185,265.2398494000081,266.04782769992016,"[37, 0, 217]",217,a,0.28484849992673844,colour,0.5
135,28,1,2,4,36,186,266.56919179996476,267.3037673999788,"[83, 0, 171]",171,l,0.21644570003263652,colour,0.5
135,28,1,2,4,37,187,267.81397299992386,268.5518075999571,"[22, 0, 232]",232,a,0.21459630003664643,colour,0.5
135,28,1,2,4,38,188,269.0638851999538,269.84781860001385,"[79, 0, 175]",175,l,0.2607395000522956,colour,0.5
135,28,1,2,4,39,189,270.36247229995206,271.0797407999635,"[23, 0, 231]",231,a,0.1943422999465838,colour,0.5
135,28,1,2,4,40,190,271.59731639991514,272.351712099975,"[9, 0, 245]",245,a,0.23110980005003512,colour,0.5
135,28,1,2,4,41,191,272.86298330000136,273.5917482000077,"[71, 0, 183]",183,l,0.2058369000442326,colour,0.5
135,28,1,2,4,42,192,274.11274269991554,274.8397618000163,"[92, 0, 162]",162,l,0.20406140002887696,colour,0.5
135,28,1,2,4,43,193,275.3470564999152,275.9117768999422,"[13, 0, 241]",241,a,0.04145189991686493,colour,0.5
135,28,1,2,4,44,194,276.4250785999466,277.1437445000047,"[60, 0, 194]",194,a,0.19545280002057552,colour,0.5
135,28,1,2,4,45,195,277.65936229994986,278.3197523999261,"[51, 0, 203]",203,a,0.1372036999091506,colour,0.5
135,28,1,2,4,46,196,278.83118249999825,279.6157890999457,"[43, 0, 211]",211,a,0.2616129999514669,colour,0.5
135,28,1,2,4,47,197,280.1277928999625,280.91179459996056,"[34, 0, 220]",220,a,0.26074119994882494,colour,0.5
135,28,1,2,4,48,198,281.4258000999689,282.215748699964,"[63, 0, 191]",191,l,0.26670669997110963,colour,0.5
135,28,1,2,4,49,199,282.7226719999453,283.85581739991903,"[6, 0, 248]",248,a,0.6101317999418825,colour,0.5
135,28,1,2,4,50,200,284.3507930999622,285.13573749992065,"[8, 0, 246]",246,a,0.2617872999981046,colour,0.5
135,28,1,2,5,1,201,290.4182346999878,291.11173649993725,"[14, 0, 240]",240,a,0.169329599943012,colour,0.4
135,28,1,2,5,2,202,291.62216839997564,292.55173119995743,"[97, 0, 157]",157,l,0.40644219995010644,colour,0.4
135,28,1,2,5,3,203,293.059490500018,293.7357805999927,"[96, 0, 158]",158,l,0.1531994000542909,colour,0.4
135,28,1,2,5,4,204,294.24684289994184,295.0477264999645,"[9, 0, 245]",245,a,0.2775444999570027,colour,0.4
135,28,1,2,5,5,205,295.55931099993177,296.2077408999903,"[84, 0, 170]",170,l,0.12525559996720403,colour,0.4
135,28,1,2,5,6,206,296.7154410999501,297.47171750001144,"[71, 0, 183]",183,l,0.23309480003081262,colour,0.4
135,28,1,2,5,7,207,297.98097809997853,298.7358461000258,"[82, 0, 172]",172,l,0.23176890006288886,colour,0.4
135,28,1,2,5,8,208,299.24644729995634,299.9517878999468,"[54, 0, 200]",200,l,0.18233340000733733,colour,0.4
135,28,1,2,5,9,209,300.4666511999676,301.0637273999164,"[20, 0, 234]",234,a,0.0738242999650538,colour,0.4
135,28,1,2,5,10,210,301.5759950999636,302.3516899999231,"[15, 0, 239]",239,a,0.25070489989593625,colour,0.4
135,28,1,2,5,11,211,302.85889439994935,303.54371040000115,"[6, 0, 248]",248,a,0.1616595999803394,colour,0.4
135,28,1,2,5,12,212,304.06374999997206,304.8237809999846,"[10, 0, 244]",244,a,0.23685180000029504,colour,0.4
135,28,1,2,5,13,213,305.3449542999733,306.0957431999268,"[66, 0, 188]",188,l,0.22771989996545017,colour,0.4
135,28,1,2,5,14,214,306.6098227999173,307.29570359992795,"[98, 0, 156]",156,l,0.16274049994535744,colour,0.4
135,28,1,2,5,15,215,307.81280750001315,308.5676707000239,"[62, 0, 192]",192,a,0.2318964001024142,colour,0.4
135,28,1,2,5,16,216,309.06613759999163,309.75167429994326,"[69, 0, 185]",185,l,0.16231709998100996,colour,0.4
135,28,1,2,5,17,217,310.25688869995065,310.9997676999774,"[72, 0, 182]",182,l,0.22187969996593893,colour,0.4
135,28,1,2,5,18,218,311.5208304999396,312.2957323999144,"[7, 0, 247]",247,a,0.2551950999768451,colour,0.4
135,28,1,2,5,19,219,312.8150934999576,313.53573459992185,"[61, 0, 193]",193,l,0.19743049994576722,colour,0.4
135,28,1,2,5,20,220,314.0493481999729,314.75973259995226,"[89, 0, 165]",165,l,0.18713129998650402,colour,0.4
135,28,1,2,5,21,221,315.26796480000485,315.99971519992687,"[23, 0, 231]",231,a,0.20922949991654605,colour,0.4
135,28,1,2,5,22,222,316.5170994999353,317.27171909995377,"[12, 0, 242]",242,a,0.23121350002475083,colour,0.4
135,28,1,2,5,23,223,317.7827824000269,318.6158439000137,"[56, 0, 198]",198,l,0.3087323000654578,colour,0.4
135,28,1,2,5,24,224,319.12813510000706,319.8637158999918,"[86, 0, 168]",168,l,0.21251840004697442,colour,0.4
135,28,1,2,5,25,225,320.36558959994,321.1277331999736,"[93, 0, 161]",161,l,0.23901809996459633,colour,0.4
135,28,1,2,5,26,226,321.64673109992873,322.39173429994844,"[73, 0, 181]",181,l,0.22007299994584173,colour,0.4
135,28,1,2,5,27,227,322.9119084000122,323.67976730002556,"[90, 0, 164]",164,l,0.257134500076063,colour,0.4
135,28,1,2,5,28,228,324.19847399997525,324.8797017999459,"[27, 0, 227]",227,a,0.15811299998313189,colour,0.4
135,28,1,2,5,29,229,325.3858146999264,326.015735700028,"[78, 0, 176]",176,l,0.10668940003961325,colour,0.4
135,28,1,2,5,30,230,326.51614830002654,327.23978219996206,"[99, 0, 155]",155,l,0.20045929995831102,colour,0.4
135,28,1,2,5,31,231,327.75032609992195,328.43973029998597,"[41, 0, 213]",213,a,0.1660733000608161,colour,0.4
135,28,1,2,5,32,232,328.9533595999237,329.663729300024,"[63, 0, 191]",191,l,0.18421209999360144,colour,0.4
135,28,1,2,5,33,233,330.17494669998996,330.74373300001025,"[33, 0, 221]",221,a,0.045592500013299286,colour,0.4
135,28,1,2,5,34,234,331.25298839993775,332.01574019994587,"[37, 0, 217]",217,a,0.23970779997762293,colour,0.4
135,28,1,2,5,35,235,332.53424639999866,333.87171139998827,"[60, 0, 194]",194,l,0.8143023999873549,colour,0.4
135,28,1,2,5,36,236,334.36780489992816,335.0317971999757,"[29, 0, 225]",225,a,0.14072659995872527,colour,0.4
135,28,1,2,5,37,237,335.5396205999423,336.18371679994743,"[92, 0, 162]",162,l,0.13023359992075711,colour,0.4
135,28,1,2,5,38,238,336.7000414999202,337.3677297999384,"[17, 0, 237]",237,a,0.1444960000226274,colour,0.4
135,28,1,2,5,39,239,337.88765829999465,338.5517177999718,"[87, 0, 167]",167,l,0.14082099997904152,colour,0.4
135,28,1,2,5,40,240,339.0608117999509,339.8076793999644,"[43, 0, 211]",211,a,0.22372420004103333,colour,0.4
135,28,1,2,5,41,241,340.3262799999211,340.97574139991775,"[75, 0, 179]",179,l,0.12630459992215037,colour,0.4
135,28,1,2,5,42,242,341.4833739999449,342.3997108999174,"[52, 0, 202]",202,a,0.3931085999356583,colour,0.4
135,28,1,2,5,43,243,342.92085240001325,343.8637101999484,"[91, 0, 163]",163,l,0.41972609993536025,colour,0.4
135,28,1,2,5,44,244,344.37374579999596,345.02368500002194,"[30, 0, 224]",224,a,0.12354460009373724,colour,0.4
135,28,1,2,5,45,245,345.5331213999307,346.37578180001583,"[39, 0, 215]",215,a,0.3194179000565782,colour,0.4
135,28,1,2,5,46,246,346.8923780999612,347.63174119999167,"[44, 0, 210]",210,a,0.2160583999939263,colour,0.4
135,28,1,2,5,47,247,348.14216299995314,348.9596861000173,"[55, 0, 199]",199,a,0.2943985000019893,colour,0.4
135,28,1,2,5,48,248,349.47026450000703,350.11977280001156,"[85, 0, 169]",169,l,0.1263899999903515,colour,0.4
135,28,1,2,5,49,249,350.6281497000018,351.423741400009,"[50, 0, 204]",204,a,0.27076210000086576,colour,0.4
135,28,1,2,5,50,250,351.9422714000102,352.687681099982,"[19, 0, 235]",235,a,0.22223549999762326,colour,0.4
135,28,1,2,6,1,251,357.3160356999142,357.8636832999764,"[68, 0, 186]",186,l,0.023606800008565187,colour,0.28
135,28,1,2,6,2,252,358.3792832000181,359.2797420999268,"[49, 0, 205]",205,a,0.37469560001045465,colour,0.28
135,28,1,2,6,3,253,359.7879833999323,360.55168689996935,"[99, 0, 155]",155,l,0.24045889999251813,colour,0.28
135,28,1,2,6,4,254,361.06907179998234,361.759745099931,"[91, 0, 163]",163,l,0.17675169999711215,colour,0.28
135,28,1,2,6,5,255,362.2784611999523,362.9756332000252,"[95, 0, 159]",159,l,0.17415140010416508,colour,0.28
135,28,1,2,6,6,256,363.4815204999177,364.1277196999872,"[87, 0, 167]",167,l,0.12372989999130368,colour,0.28
135,28,1,2,6,7,257,364.6377321999753,365.3677651999751,"[31, 0, 223]",223,a,0.20693220000248402,colour,0.28
135,28,1,2,6,8,258,365.88763040001504,366.53571879991796,"[2, 0, 252]",252,a,0.12492609990295023,colour,0.28
135,28,1,2,6,9,259,367.0437319999328,367.8077704999596,"[27, 0, 227]",227,a,0.240970499929972,colour,0.28
135,28,1,2,6,10,260,368.32490369991865,368.9916556000244,"[51, 0, 203]",203,a,0.14360120007768273,colour,0.28
135,28,1,2,6,11,261,369.5122615,370.1756369000068,"[40, 0, 214]",214,a,0.14946460002101958,colour,0.28
135,28,1,2,6,12,262,370.69038209994324,371.4157148000086,"[54, 0, 200]",200,a,0.2020893000299111,colour,0.28
135,28,1,2,6,13,263,371.9246291000163,372.54364229994826,"[81, 0, 173]",173,l,0.09575019998010248,colour,0.28
135,28,1,2,6,14,264,373.0496292000171,373.78373909997754,"[69, 0, 185]",185,l,0.21097909996751696,colour,0.28
135,28,1,2,6,15,265,374.2995255999267,374.9516991999699,"[61, 0, 193]",193,a,0.12889389996416867,colour,0.28
135,28,1,2,6,16,266,375.47129519993905,376.471657600021,"[85, 0, 169]",169,l,0.4773752000182867,colour,0.28
135,28,1,2,6,17,267,376.98671989992727,377.82365279993974,"[97, 0, 157]",157,l,0.3138005000073463,colour,0.28
135,28,1,2,6,18,268,378.33338119997643,378.9436723999679,"[52, 0, 202]",202,a,0.08712549996562302,colour,0.28
135,28,1,2,6,19,269,379.4601628999226,380.0236830000067,"[78, 0, 176]",176,l,0.04032610007561743,colour,0.28
135,28,1,2,6,20,270,380.5382637999719,381.69569139997475,"[59, 0, 195]",195,a,0.6352862999774516,colour,0.28
135,28,1,2,6,21,271,382.2099153000163,382.911673399969,"[55, 0, 199]",199,a,0.17852319998200983,colour,0.28
135,28,1,2,6,22,272,383.4285335999448,384.1837165999459,"[62, 0, 192]",192,a,0.23209189996123314,colour,0.28
135,28,1,2,6,23,273,384.6940871999832,385.3836478999583,"[1, 0, 253]",253,a,0.16637059999629855,colour,0.28
135,28,1,2,6,24,274,385.8970700999489,386.7277538999915,"[71, 0, 183]",183,l,0.3074365999782458,colour,0.28
135,28,1,2,6,25,275,387.24071369995363,387.91968209994957,"[24, 0, 230]",230,a,0.15575349994469434,colour,0.28
135,28,1,2,6,26,276,388.4300079999957,389.1836624999996,"[36, 0, 218]",218,a,0.23068520007655025,colour,0.28
135,28,1,2,6,27,277,389.69543680001516,390.3996708999621,"[77, 0, 177]",177,l,0.18105559994000942,colour,0.28
135,28,1,2,6,28,278,390.9141424000263,391.68767080002,"[98, 0, 156]",156,l,0.2503866000333801,colour,0.28
135,28,1,2,6,29,279,392.19519290002063,393.09564119996503,"[64, 0, 190]",190,a,0.37749270000495017,colour,0.28
135,28,1,2,6,30,280,393.616850099992,394.20763259998057,"[76, 0, 178]",178,l,0.06758260005153716,colour,0.28
135,28,1,2,6,31,281,394.7262085999828,395.7597166999476,"[70, 0, 184]",184,l,0.5103767999680713,colour,0.28
135,28,1,2,6,32,282,396.2661369999405,396.90370859997347,"[20, 0, 234]",234,a,0.11320420005358756,colour,0.28
135,28,1,2,6,33,283,397.4097010999685,398.3676821999252,"[58, 0, 196]",196,a,0.4348769999342039,colour,0.28
135,28,1,2,6,34,284,398.87840909999795,399.5036184999626,"[45, 0, 209]",209,a,0.10219350003171712,colour,0.28
135,28,1,2,6,35,285,400.01882869994733,400.58380519994535,"[10, 0, 244]",244,a,0.04154689994174987,colour,0.28
135,28,1,2,6,36,286,401.0971266999841,402.0556694000261,"[7, 0, 247]",247,a,0.43573500006459653,colour,0.28
135,28,1,2,6,37,287,402.5657282000175,403.551642299979,"[50, 0, 204]",204,l,0.4627944000530988,colour,0.28
135,28,1,2,6,38,288,404.0656388999196,404.7916704999516,"[92, 0, 162]",162,l,0.20294649992138147,colour,0.28
135,28,1,2,6,39,289,405.29984529991634,406.18369119998533,"[60, 0, 194]",194,l,0.3636113000102341,colour,0.28
135,28,1,2,6,40,290,406.703133199946,407.2396625999827,"[84, 0, 170]",170,l,0.013466399977914989,colour,0.28
135,28,1,2,6,41,291,407.7499147999333,408.44767070002854,"[82, 0, 172]",172,l,0.17462930001784116,colour,0.28
135,28,1,2,6,42,292,408.9667287999764,409.50364659994375,"[83, 0, 171]",171,l,0.012527599930763245,colour,0.28
135,28,1,2,6,43,293,410.01463599991985,410.63965149992146,"[3, 0, 251]",251,a,0.10158229991793633,colour,0.28
135,28,1,2,6,44,294,411.1521062999964,411.79165579995606,"[90, 0, 164]",164,l,0.12881789996754378,colour,0.28
135,28,1,2,6,45,295,412.3115723999217,413.23168929992244,"[56, 0, 198]",198,l,0.39698239997960627,colour,0.28
135,28,1,2,6,46,296,413.7489199999254,415.67165859998204,"[73, 0, 181]",181,l,1.3995471000671387,colour,0.28
135,28,1,2,6,47,297,416.18634589994326,417.0956215999322,"[57, 0, 197]",197,l,0.38625119999051094,colour,0.28
135,28,1,2,6,48,298,417.6079785999609,418.3276273999363,"[65, 0, 189]",189,l,0.1964725999860093,colour,0.28
135,28,1,2,6,49,299,418.84232789999805,419.47962879994884,"[44, 0, 210]",210,a,0.11420069995801896,colour,0.28
135,28,1,2,6,50,300,419.9983912999742,420.6476524999598,"[74, 0, 180]",180,l,0.12613170000258833,colour,0.28
135,28,1,2,7,1,301,425.5372776000295,426.5756579999579,"[37, 0, 217]",217,a,0.5143025999423116,colour,0.14
135,28,1,2,7,2,302,427.0850606999593,427.82364429999143,"[60, 0, 194]",194,a,0.21546340000350028,colour,0.14
135,28,1,2,7,3,303,428.3349586999975,429.08765529992525,"[88, 0, 166]",166,l,0.23047559999395162,colour,0.14
135,28,1,2,7,4,304,429.5994531000033,430.23966089996975,"[20, 0, 234]",234,a,0.11751959996763617,colour,0.14
135,28,1,2,7,5,305,430.74319349997677,431.63964039995335,"[89, 0, 165]",165,l,0.37321390002034605,colour,0.14
135,28,1,2,7,6,306,432.1492946000071,432.73565789998975,"[86, 0, 168]",168,l,0.0631336000515148,colour,0.14
135,28,1,2,7,7,307,433.23055839992594,434.11165370000526,"[71, 0, 183]",183,l,0.3582376000704244,colour,0.14
135,28,1,2,7,8,308,434.6210303999251,435.5356035999721,"[87, 0, 167]",167,l,0.39140770002268255,colour,0.14
135,28,1,2,7,9,309,436.04464929993264,436.7436019999441,"[79, 0, 175]",175,l,0.1758016999810934,colour,0.14
135,28,1,2,7,10,310,437.2633432999719,437.89570599992294,"[67, 0, 187]",187,a,0.10743809991981834,colour,0.14
135,28,1,2,7,11,311,438.40858309995383,439.2956541000167,"[58, 0, 196]",196,a,0.36388499999884516,colour,0.14
135,28,1,2,7,12,312,439.8147252999479,440.80763840000145,"[69, 0, 185]",185,l,0.46965530002489686,colour,0.14
135,28,1,2,7,13,313,441.30368579993956,441.94362339994404,"[53, 0, 201]",201,a,0.11659919994417578,colour,0.14
135,28,1,2,7,14,314,442.4599276999943,443.3036518000299,"[65, 0, 189]",189,a,0.33190010010730475,colour,0.14
135,28,1,2,7,15,315,443.8245657000225,444.479609199916,"[33, 0, 221]",221,a,0.14450479997321963,colour,0.14
135,28,1,2,7,16,316,444.9996076999232,445.72763610002585,"[90, 0, 164]",164,l,0.21784840000327677,colour,0.14
135,28,1,2,7,17,317,446.2370581999421,446.8316568000009,"[72, 0, 182]",182,a,0.07137390004936606,colour,0.14
135,28,1,2,7,18,318,447.34700900001917,448.11963209998794,"[70, 0, 184]",184,a,0.2502785000251606,colour,0.14
135,28,1,2,7,19,319,448.6275784999598,449.32768250000663,"[30, 0, 224]",224,a,0.17694949998985976,colour,0.14
135,28,1,2,7,20,320,449.8462204999523,450.39160929992795,"[93, 0, 161]",161,l,0.022447999916039407,colour,0.14
135,28,1,2,7,21,321,450.90855229995213,451.44770739995874,"[46, 0, 208]",208,l,0.015847999951802194,colour,0.14
135,28,1,2,7,22,322,451.9554070000304,452.70361770002637,"[73, 0, 181]",181,l,0.22502700006589293,colour,0.14
135,28,1,2,7,23,323,453.2209154999582,453.8876355999382,"[7, 0, 247]",247,a,0.14349919999949634,colour,0.14
135,28,1,2,7,24,324,454.4083451000042,454.9596142999362,"[95, 0, 159]",159,l,0.028055100003257394,colour,0.14
135,28,1,2,7,25,325,455.47089009999763,456.18365080002695,"[77, 0, 177]",177,l,0.18960770010016859,colour,0.14
135,28,1,2,7,26,326,456.70300590002444,457.60762999998406,"[63, 0, 191]",191,a,0.3814276000484824,colour,0.14
135,28,1,2,7,27,327,458.1123759999173,458.6636506000068,"[59, 0, 195]",195,a,0.028201300068758428,colour,0.14
135,28,1,2,7,28,328,459.1623505000025,459.7356789999176,"[64, 0, 190]",190,a,0.049718800000846386,colour,0.14
135,28,1,2,7,29,329,460.255895899958,460.88762409996707,"[97, 0, 157]",157,l,0.1094687000149861,colour,0.14
135,28,1,2,7,30,330,461.4044391999487,461.94362029992044,"[94, 0, 160]",160,l,0.015934999915771186,colour,0.14
135,28,1,2,7,31,331,462.44817180000246,463.1676575000165,"[78, 0, 176]",176,l,0.19623300002422184,colour,0.14
135,28,1,2,7,32,332,463.6825121999718,464.59961049992125,"[81, 0, 173]",173,l,0.39386189996730536,colour,0.14
135,28,1,2,7,33,333,465.1198648000136,465.91969429992605,"[91, 0, 163]",163,l,0.27655199996661395,colour,0.14
135,28,1,2,7,34,334,466.4334820000222,467.0156694999896,"[54, 0, 200]",200,a,0.058886899962089956,colour,0.14
135,28,1,2,7,35,335,467.52715969993733,468.4155733999796,"[55, 0, 199]",199,a,0.3627420000266284,colour,0.14
135,28,1,2,7,36,336,468.9361554000061,469.6796124000102,"[51, 0, 203]",203,a,0.2224489999935031,colour,0.14
135,28,1,2,7,37,337,470.19939019996673,470.9676306999754,"[98, 0, 156]",156,l,0.24490219994913787,colour,0.14
135,28,1,2,7,38,338,471.48063469992485,472.4316245999653,"[75, 0, 179]",179,a,0.42548830003943294,colour,0.14
135,28,1,2,7,39,339,472.9422746999189,473.65559350000694,"[82, 0, 172]",172,l,0.19012220005970448,colour,0.14
135,28,1,2,7,40,340,474.1765433999244,474.98356219998095,"[56, 0, 198]",198,a,0.2838893999578431,colour,0.14
135,28,1,2,7,41,341,475.5045221999753,476.0796152999392,"[92, 0, 162]",162,l,0.051941199926659465,colour,0.14
135,28,1,2,7,42,342,476.59816789999604,477.19163509993814,"[84, 0, 170]",170,l,0.07016869995277375,colour,0.14
135,28,1,2,7,43,343,477.7074793999782,478.28760309994686,"[50, 0, 204]",204,l,0.05686060001607984,colour,0.14
135,28,1,2,7,44,344,478.8010522000259,479.3358753999928,"[48, 0, 206]",206,a,0.012076299986802042,colour,0.14
135,28,1,2,7,45,345,479.84788459993433,480.8716091000242,"[66, 0, 188]",188,a,0.5005114000523463,colour,0.14
135,28,1,2,7,46,346,481.37907139991876,481.9196253999835,"[57, 0, 197]",197,a,0.017456999979913235,colour,0.14
135,28,1,2,7,47,347,482.4259077999741,483.3276671000058,"[61, 0, 193]",193,a,0.37559140007942915,colour,0.14
135,28,1,2,7,48,348,483.83509860001504,484.37562439998146,"[52, 0, 202]",202,a,0.01849779998883605,colour,0.14
135,28,1,2,7,49,349,484.89910879998934,485.43163150001783,"[96, 0, 158]",158,l,0.009446200099773705,colour,0.14
135,28,1,2,7,50,350,485.94586450001225,486.5195577000268,"[85, 0, 169]",169,l,0.05067250004503876,colour,0.14
135,28,1,2,8,1,351,491.11654289998114,491.8315693999175,"[87, 0, 167]",167,l,0.19095289998222142,colour,0.06
135,28,1,2,8,2,352,492.3516702000052,493.20755559997633,"[97, 0, 157]",157,l,0.3327144000213593,colour,0.06
135,28,1,2,8,3,353,493.7264781999402,494.3036800000118,"[85, 0, 169]",169,l,0.05391140002757311,colour,0.06
135,28,1,2,8,4,354,494.8202553000301,495.7516154999612,"[79, 0, 175]",175,l,0.40823629999067634,colour,0.06
135,28,1,2,8,5,355,496.2732325999532,496.83159830002114,"[55, 0, 199]",199,a,0.035186200053431094,colour,0.06
135,28,1,2,8,6,356,497.34953270002734,498.367672399967,"[70, 0, 184]",184,a,0.494918099953793,colour,0.06
135,28,1,2,8,7,357,498.8683768999763,499.44757680001203,"[92, 0, 162]",162,l,0.056043900083750486,colour,0.06
135,28,1,2,8,8,358,499.9621012000134,500.5116436999524,"[75, 0, 179]",179,l,0.02649109996855259,colour,0.06
135,28,1,2,8,9,359,501.0245636999607,501.5996760999551,"[60, 0, 194]",194,a,0.05199950002133846,colour,0.06
135,28,1,2,8,10,360,502.1180808999343,503.231631899951,"[74, 0, 180]",180,l,0.5903563000028953,colour,0.06
135,28,1,2,8,11,361,503.7430084999651,504.3435905999504,"[53, 0, 201]",201,a,0.07745420001447201,colour,0.06
135,28,1,2,8,12,362,504.85219030000735,505.88757599995006,"[51, 0, 203]",203,a,0.5119551999960095,colour,0.06
135,28,1,2,8,13,363,506.3990033000009,506.999624799937,"[78, 0, 176]",176,l,0.07747509994078428,colour,0.06
135,28,1,2,8,14,364,507.50829539995175,508.0876070000231,"[73, 0, 181]",181,l,0.05614570004399866,colour,0.06
135,28,1,2,8,15,365,508.6018522999948,509.167694499949,"[81, 0, 173]",173,l,0.04248319996986538,colour,0.06
135,28,1,2,8,16,366,509.67994089995045,510.8395815999247,"[96, 0, 158]",158,l,0.6365542999701574,colour,0.06
135,28,1,2,8,17,367,511.34957459999714,512.2795347999781,"[54, 0, 200]",200,a,0.4068495000246912,colour,0.06
135,28,1,2,8,18,368,512.7829292999813,513.3996164000127,"[62, 0, 192]",192,a,0.09351740009151399,colour,0.06
135,28,1,2,8,19,369,513.9077715999447,514.4635749999434,"[38, 0, 216]",216,a,0.04486079991329461,colour,0.06
135,28,1,2,8,20,370,514.9735086000292,515.5755849999841,"[59, 0, 195]",195,a,0.07958679995499551,colour,0.06
135,28,1,2,8,21,371,516.0835047999863,517.4475802999223,"[93, 0, 161]",161,l,0.8381109999027103,colour,0.06
135,28,1,2,8,22,372,517.961393799982,518.5676923999563,"[95, 0, 159]",159,l,0.0832014000043273,colour,0.06
135,28,1,2,8,23,373,519.0862646999303,520.2475640999619,"[90, 0, 164]",164,l,0.6381196000147611,colour,0.06
135,28,1,2,8,24,374,520.7494785999879,521.6475724999327,"[65, 0, 189]",189,a,0.37484439997933805,colour,0.06
135,28,1,2,8,25,375,522.1556740999222,522.6876636999659,"[66, 0, 188]",188,a,0.009871999965980649,colour,0.06
135,28,1,2,8,26,376,523.2023998999503,523.8795822999673,"[76, 0, 178]",178,a,0.15375199995469302,colour,0.06
135,28,1,2,8,27,377,524.3778118999908,525.3915799999377,"[58, 0, 196]",196,a,0.4906669999472797,colour,0.06
135,28,1,2,8,28,378,525.9105731999734,526.8555589999305,"[72, 0, 182]",182,l,0.421858899993822,colour,0.06
135,28,1,2,8,29,379,527.3635591999628,528.031561999931,"[94, 0, 160]",160,a,0.1417212999658659,colour,0.06
135,28,1,2,8,30,380,528.5383467000211,529.4955665000016,"[80, 0, 174]",174,l,0.43408220005221665,colour,0.06
135,28,1,2,8,31,381,530.0069717000006,530.6875797000248,"[61, 0, 193]",193,a,0.1603531000437215,colour,0.06
135,28,1,2,8,32,382,531.2099730999907,532.167624499998,"[68, 0, 186]",186,a,0.43440400005783886,colour,0.06
135,28,1,2,8,33,383,532.678637099918,533.3195967000211,"[88, 0, 166]",166,l,0.1179083000170067,colour,0.06
135,28,1,2,8,34,384,533.8348076000111,534.7116146999178,"[82, 0, 172]",172,l,0.35366189992055297,colour,0.06
135,28,1,2,8,35,385,535.2252348000184,535.9596275999211,"[67, 0, 187]",187,a,0.21212449995800853,colour,0.06
135,28,1,2,8,36,386,536.4751416000072,537.3916101999348,"[71, 0, 183]",183,a,0.39334429998416454,colour,0.06
135,28,1,2,8,37,387,537.9126906999154,538.7435729999561,"[52, 0, 202]",202,a,0.30802050000056624,colour,0.06
135,28,1,2,8,38,388,539.2581419999478,539.8235464999452,"[91, 0, 163]",163,l,0.042281099944375455,colour,0.06
135,28,1,2,8,39,389,540.336139800027,541.14355779998,"[83, 0, 171]",171,l,0.2843001000583172,colour,0.06
135,28,1,2,8,40,390,541.6641827999847,542.4795478999149,"[84, 0, 170]",170,l,0.2922998999711126,colour,0.06
135,28,1,2,8,41,391,542.9828696999466,543.8155356999487,"[86, 0, 168]",168,l,0.3099431999726221,colour,0.06
135,28,1,2,8,42,392,544.3264250999782,544.903603099985,"[64, 0, 190]",190,a,0.05468569998629391,colour,0.06
135,28,1,2,8,43,393,545.420028100023,546.167682499974,"[98, 0, 156]",156,l,0.22451500000897795,colour,0.06
135,28,1,2,8,44,394,546.6855242999736,547.5435442000162,"[19, 0, 235]",235,a,0.33471670001745224,colour,0.06
135,28,1,2,8,45,395,548.0604385000188,548.8715690999525,"[50, 0, 204]",204,a,0.28794279997237027,colour,0.06
135,28,1,2,8,46,396,549.3885264999699,550.311557799927,"[63, 0, 191]",191,a,0.39978639991022646,colour,0.06
135,28,1,2,8,47,397,550.8259674999863,551.6635989999631,"[56, 0, 198]",198,a,0.31448960001580417,colour,0.06
135,28,1,2,8,48,398,552.1695709999185,552.8875371000031,"[99, 0, 155]",155,l,0.19476089999079704,colour,0.06
135,28,1,2,8,49,399,553.4038355000084,554.1755259999773,"[89, 0, 165]",165,l,0.24853570002596825,colour,0.06
135,28,1,2,8,50,400,554.6855535999639,555.407522500027,"[39, 0, 215]",215,a,0.1993105000583455,colour,0.06
135,28,1,2,9,1,401,560.5907006999478,561.4635986000067,"[75, 0, 179]",179,l,0.34890540002379566,colour,0.06
135,28,1,2,9,2,402,561.9819152000127,562.5675823999336,"[53, 0, 201]",201,a,0.06244989996775985,colour,0.06
135,28,1,2,9,3,403,563.0816161999246,564.199563000002,"[78, 0, 176]",176,l,0.5947481000330299,colour,0.06
135,28,1,2,9,4,404,564.7065160999773,565.4555311999284,"[52, 0, 202]",202,a,0.22587919991929084,colour,0.06
135,28,1,2,9,5,405,565.9719990999438,566.9516240999801,"[69, 0, 185]",185,a,0.45636650000233203,colour,0.06
135,28,1,2,9,6,406,567.4719593999907,568.0075601999415,"[86, 0, 168]",168,l,0.012446300010196865,colour,0.06
135,28,1,2,9,7,407,568.5186859000241,569.1275477999588,"[82, 0, 172]",172,l,0.08560009999200702,colour,0.06
135,28,1,2,9,8,408,569.6436978999991,570.2235440999502,"[65, 0, 189]",189,a,0.056701599969528615,colour,0.06
135,28,1,2,9,9,409,570.7372483999934,571.2635451999959,"[90, 0, 164]",164,l,0.0030832000775262713,colour,0.06
135,28,1,2,9,10,410,571.7839570000069,572.4715315999929,"[79, 0, 175]",175,l,0.1642728999722749,colour,0.06
135,28,1,2,9,11,411,572.9871596000157,573.5035516999196,"[70, 0, 184]",184,a,0.005599199910648167,colour,0.06
135,28,1,2,9,12,412,574.021439599921,574.5676548000192,"[81, 0, 173]",173,a,0.022979100001975894,colour,0.06
135,28,1,2,9,13,413,575.0838596000103,576.0236069000093,"[55, 0, 199]",199,a,0.4164125000825152,colour,0.06
135,28,1,2,9,14,414,576.5368618000066,577.4955516000045,"[99, 0, 155]",155,l,0.43556940008420497,colour,0.06
135,28,1,2,9,15,415,578.0055341999978,578.9755178999621,"[51, 0, 203]",203,a,0.44682069995906204,colour,0.06
135,28,1,2,9,16,416,579.4897788999369,580.2955322000198,"[58, 0, 196]",196,a,0.2825938001042232,colour,0.06
135,28,1,2,9,17,417,580.8020599000156,581.6155201999936,"[96, 0, 158]",158,l,0.2901132999686524,colour,0.06
135,28,1,2,9,18,418,582.1301836000057,582.6556259000208,"[66, 0, 188]",188,a,0.00220320001244545,colour,0.06
135,28,1,2,9,19,419,583.1769960999954,584.175610599923,"[64, 0, 190]",190,a,0.4754891999764368,colour,0.06
135,28,1,2,9,20,420,584.6923869999591,585.6875199999195,"[56, 0, 198]",198,a,0.471715799998492,colour,0.06
135,28,1,2,9,21,421,586.2079841999803,587.1435378999449,"[50, 0, 204]",204,a,0.41237359994556755,colour,0.06
135,28,1,2,9,22,422,587.6609092999715,588.4555066999746,"[35, 0, 219]",219,a,0.27299700002186,colour,0.06
135,28,1,2,9,23,423,588.9718499999726,589.7755354000255,"[63, 0, 191]",191,a,0.28056970005854964,colour,0.06
135,28,1,2,9,24,424,590.2843509999802,591.1115660999203,"[59, 0, 195]",195,a,0.3040396999567747,colour,0.06
135,28,1,2,9,25,425,591.6278745000018,592.4395360000199,"[57, 0, 197]",197,a,0.28877720003947616,colour,0.06
135,28,1,2,9,26,426,592.9586549999658,593.5275487999897,"[87, 0, 167]",167,l,0.054907400044612586,colour,0.06
135,28,1,2,9,27,427,594.0430076000048,595.1115676999325,"[84, 0, 170]",170,l,0.545406199991703,colour,0.06
135,28,1,2,9,28,428,595.6209787999978,596.3675675999839,"[85, 0, 169]",169,l,0.22334390005562454,colour,0.06
135,28,1,2,9,29,429,596.8882474999409,597.5195190999657,"[71, 0, 183]",183,a,0.12005290004890412,colour,0.06
135,28,1,2,9,30,430,598.0325297999661,598.6875149999978,"[60, 0, 194]",194,a,0.13180780003312975,colour,0.06
135,28,1,2,9,31,431,599.2042342999484,600.3194878000068,"[83, 0, 171]",171,l,0.5928162999916822,colour,0.06
135,28,1,2,9,32,432,600.8292521999683,601.7034890999785,"[54, 0, 200]",200,a,0.3512322000460699,colour,0.06
135,28,1,2,9,33,433,602.2196807999862,603.0875311000273,"[74, 0, 180]",180,l,0.34471970004960895,colour,0.06
135,28,1,2,9,34,434,603.5945131999906,604.4635019999696,"[93, 0, 161]",161,l,0.34583310002926737,colour,0.06
135,28,1,2,9,35,435,604.9726317999884,606.0877037999453,"[94, 0, 160]",160,l,0.5919424999738112,colour,0.06
135,28,1,2,9,36,436,606.597528400016,607.2395506999455,"[89, 0, 165]",165,l,0.11884080001618713,colour,0.06
135,28,1,2,9,37,437,607.7537278999807,608.5035111999605,"[80, 0, 174]",174,l,0.22257939993869513,colour,0.06
135,28,1,2,9,38,438,609.0233233999461,609.8955096999416,"[91, 0, 163]",163,l,0.348969699931331,colour,0.06
135,28,1,2,9,39,439,610.4138447999721,611.3034883999499,"[97, 0, 157]",157,l,0.36651880003046244,colour,0.06
135,28,1,2,9,40,440,611.8218531999737,612.9515032999916,"[92, 0, 162]",162,l,0.6065865000709891,colour,0.06
135,28,1,2,9,41,441,613.462305199937,614.2635302999988,"[61, 0, 193]",193,a,0.27807150001171976,colour,0.06
135,28,1,2,9,42,442,614.774626999977,615.7035914999433,"[73, 0, 181]",181,l,0.40568460000213236,colour,0.06
135,28,1,2,9,43,443,616.2120650999714,617.0475549999392,"[88, 0, 166]",166,l,0.31243469996843487,colour,0.06
135,28,1,2,9,44,444,617.5563884000294,618.4474877999164,"[30, 0, 224]",224,a,0.36799929989501834,colour,0.06
135,28,1,2,9,45,445,618.9624233000213,619.7114916000282,"[3, 0, 251]",251,a,0.22593360010068864,colour,0.06
135,28,1,2,9,46,446,620.2279758999357,621.0394779000198,"[72, 0, 182]",182,l,0.2853328000055626,colour,0.06
135,28,1,2,9,47,447,621.5590164000168,622.3514886000194,"[98, 0, 156]",156,l,0.26926289999391884,colour,0.06
135,28,1,2,9,48,448,622.8713822999271,623.567560800002,"[76, 0, 178]",178,l,0.17297700000926852,colour,0.06
135,28,1,2,9,49,449,624.074423699989,624.8715113999788,"[95, 0, 159]",159,l,0.27384719997644424,colour,0.06
135,28,1,2,9,50,450,625.3868472999893,626.5194727999624,"[67, 0, 187]",187,a,0.609527499997057,colour,0.06
135,28,1,2,10,1,451,631.2137168999761,631.767588299932,"[33, 0, 221]",221,a,0.029905700008384883,colour,0.06
135,28,1,2,10,2,452,632.2798516999464,632.9034790999722,"[95, 0, 159]",159,l,0.09869480004999787,colour,0.06
135,28,1,2,10,3,453,633.4240457999986,634.2074900999432,"[54, 0, 200]",200,a,0.2602826999500394,colour,0.06
135,28,1,2,10,4,454,634.7208569999784,635.3114698999561,"[53, 0, 201]",201,a,0.06747400003951043,colour,0.06
135,28,1,2,10,5,455,635.8300734999357,636.6795067000203,"[90, 0, 164]",164,l,0.3270488000707701,colour,0.06
135,28,1,2,10,6,456,637.1893073000247,638.2075244999724,"[99, 0, 155]",155,l,0.5007461999775842,colour,0.06
135,28,1,2,10,7,457,638.7146800999762,639.5115026999265,"[84, 0, 170]",170,l,0.27361039991956204,colour,0.06
135,28,1,2,10,8,458,640.0270088999532,640.8155083999736,"[61, 0, 193]",193,a,0.2652244999771938,colour,0.06
135,28,1,2,10,9,459,641.3238414999796,642.0874615999637,"[57, 0, 197]",197,a,0.24050369998440146,colour,0.06
135,28,1,2,10,10,460,642.6049810999539,643.3434767000144,"[87, 0, 167]",167,l,0.2277193000772968,colour,0.06
135,28,1,2,10,11,461,643.8587050000206,644.7274842999177,"[75, 0, 179]",179,l,0.34623089991509914,colour,0.06
135,28,1,2,10,12,462,645.2485836999258,645.9835364000173,"[89, 0, 165]",165,l,0.21224390005227178,colour,0.06
135,28,1,2,10,13,463,646.498497899971,647.3194793999428,"[85, 0, 169]",169,l,0.29815409996081144,colour,0.06
135,28,1,2,10,14,464,647.8265534000238,648.8315595999593,"[68, 0, 186]",186,l,0.48183499998413026,colour,0.06
135,28,1,2,10,15,465,649.3420145999407,650.751537199947,"[72, 0, 182]",182,a,0.8991511999629438,colour,0.06
135,28,1,2,10,16,466,651.2668941000011,652.0635024999501,"[94, 0, 160]",160,l,0.27336099999956787,colour,0.06
135,28,1,2,10,17,467,652.5792627999326,653.3754902000073,"[56, 0, 198]",198,a,0.27319710003212094,colour,0.06
135,28,1,2,10,18,468,653.8932237999979,654.679492999916,"[58, 0, 196]",196,a,0.26306199992541224,colour,0.06
135,28,1,2,10,19,469,655.1899470000062,655.9355142000131,"[78, 0, 176]",176,l,0.2222569000441581,colour,0.06
135,28,1,2,10,20,470,656.455536399968,657.2154903999763,"[81, 0, 173]",173,l,0.23375590005889535,colour,0.06
135,28,1,2,10,21,471,657.7240448999219,658.5434555999236,"[63, 0, 191]",191,l,0.2965550000080839,colour,0.06
135,28,1,2,10,22,472,659.0520038999384,660.1594730999786,"[60, 0, 194]",194,a,0.5854998000431806,colour,0.06
135,28,1,2,10,23,473,660.6757173999213,661.3514627999393,"[59, 0, 195]",195,a,0.15260229993145913,colour,0.06
135,28,1,2,10,24,474,661.8630317000207,662.6074547999306,"[21, 0, 233]",233,a,0.22169279993977398,colour,0.06
135,28,1,2,10,25,475,663.1284990999848,664.0074211999308,"[71, 0, 183]",183,l,0.3527463999344036,colour,0.06
135,28,1,2,10,26,476,664.5242486000061,665.367539800005,"[50, 0, 204]",204,a,0.3317368000280112,colour,0.06
135,28,1,2,10,27,477,665.8877277999418,666.6954362000106,"[82, 0, 172]",172,l,0.28459190006833524,colour,0.06
135,28,1,2,10,28,478,667.2157314999495,667.975433900021,"[98, 0, 156]",156,l,0.23646869999356568,colour,0.06
135,28,1,2,10,29,479,668.4812344999518,669.7354712999659,"[65, 0, 189]",189,a,0.7310138000175357,colour,0.06
135,28,1,2,10,30,480,670.2467666999437,671.1354804999428,"[52, 0, 202]",202,a,0.3657002999680117,colour,0.06
135,28,1,2,10,31,481,671.6528857999947,672.5434988000197,"[76, 0, 178]",178,a,0.3673580000177026,colour,0.06
135,28,1,2,10,32,482,673.0589815999847,673.6874102000147,"[83, 0, 171]",171,l,0.10527890000957996,colour,0.06
135,28,1,2,10,33,483,674.1995140999788,674.9034869999159,"[51, 0, 203]",203,a,0.18079889996442944,colour,0.06
135,28,1,2,10,34,484,675.4181657999288,676.1594338000286,"[69, 0, 185]",185,l,0.21801110007800162,colour,0.06
135,28,1,2,10,35,485,676.6680089000147,677.527446800028,"[64, 0, 190]",190,l,0.3367752000922337,colour,0.06
135,28,1,2,10,36,486,678.0423129999544,678.783468300011,"[70, 0, 184]",184,l,0.2226559000555426,colour,0.06
135,28,1,2,10,37,487,679.303106599953,679.9754908999894,"[97, 0, 157]",157,l,0.14624360005836934,colour,0.06
135,28,1,2,10,38,488,680.4934712999966,681.2314880000195,"[66, 0, 188]",188,l,0.21483760001137853,colour,0.06
135,28,1,2,10,39,489,681.743251399952,682.6235084999353,"[62, 0, 192]",192,l,0.35695369995664805,colour,0.06
135,28,1,2,10,40,490,683.1339241999667,683.7754548999947,"[80, 0, 174]",174,l,0.11834020004607737,colour,0.06
135,28,1,2,10,41,491,684.2899437999586,685.1354390999768,"[55, 0, 199]",199,a,0.3230623999843374,colour,0.06
135,28,1,2,10,42,492,685.6492641000077,686.4075085999211,"[91, 0, 163]",163,l,0.23496069991961122,colour,0.06
135,28,1,2,10,43,493,686.9146724999882,687.6394310999895,"[30, 0, 224]",224,a,0.2014317000284791,colour,0.06
135,28,1,2,10,44,494,688.1490694999229,689.0074136999901,"[67, 0, 187]",187,a,0.33517430000938475,colour,0.06
135,28,1,2,10,45,495,689.5239894000115,690.2874432000099,"[93, 0, 161]",161,l,0.24024930002633482,colour,0.06
135,28,1,2,10,46,496,690.8050610999344,691.5754246999277,"[73, 0, 181]",181,l,0.24759819998871535,colour,0.06
135,28,1,2,10,47,497,692.0736932000145,692.7914610999869,"[79, 0, 175]",175,l,0.19454589998349547,colour,0.06
135,28,1,2,10,48,498,693.3080429999391,694.0154424000066,"[86, 0, 168]",168,l,0.18502179998904467,colour,0.06
135,28,1,2,10,49,499,694.5266699999338,695.2954298999393,"[77, 0, 177]",177,l,0.2454880999866873,colour,0.06
135,28,1,2,10,50,500,695.8079078999581,696.5113976999419,"[74, 0, 180]",180,l,0.18035149993374944,colour,0.06
135,28,1,2,11,1,501,701.0958545999601,701.9834273000015,"[96, 0, 158]",158,l,0.36060290003661066,colour,0.06
135,28,1,2,11,2,502,702.4903948999709,703.1674547999864,"[85, 0, 169]",169,l,0.1508818999864161,colour,0.06
135,28,1,2,11,3,503,703.6820616999175,704.4714202999603,"[91, 0, 163]",163,l,0.27862889994867146,colour,0.06
135,28,1,2,11,4,504,704.98363719997,705.7034834999358,"[75, 0, 179]",179,l,0.19664490001741797,colour,0.06
135,28,1,2,11,5,505,706.2178802000126,706.8954514999641,"[52, 0, 202]",202,a,0.1542141999816522,colour,0.06
135,28,1,2,11,6,506,707.4053134999704,708.2474036000203,"[65, 0, 189]",189,a,0.31601450010202825,colour,0.06
135,28,1,2,11,7,507,708.7675923999632,709.5034238999942,"[58, 0, 196]",196,a,0.2126582000637427,colour,0.06
135,28,1,2,11,8,508,710.0174085999606,710.6554443999194,"[82, 0, 172]",172,l,0.11408629990182817,colour,0.06
135,28,1,2,11,9,509,711.1742139999988,711.7354670999339,"[83, 0, 171]",171,l,0.038008500006981194,colour,0.06
135,28,1,2,11,10,510,712.2424652000191,712.983420399949,"[69, 0, 185]",185,l,0.21778920001816005,colour,0.06
135,28,1,2,11,11,511,713.4923953999532,714.2314212999772,"[67, 0, 187]",187,l,0.215782199986279,colour,0.06
135,28,1,2,11,12,512,714.7422320999904,715.7034471000079,"[97, 0, 157]",157,l,0.43794710002839565,colour,0.06
135,28,1,2,11,13,513,716.2109257000266,716.8874300000025,"[40, 0, 214]",214,a,0.15341150003951043,colour,0.06
135,28,1,2,11,14,514,717.3983376999386,718.1114457999356,"[73, 0, 181]",181,l,0.18995419994462281,colour,0.06
135,28,1,2,11,15,515,718.6169433000032,719.2875059000216,"[35, 0, 219]",219,a,0.14732039999216795,colour,0.06
135,28,1,2,11,16,516,719.8043102999218,720.4554841999197,"[16, 0, 238]",238,a,0.12796729989349842,colour,0.06
135,28,1,2,11,17,517,720.9669592999853,721.5035269999644,"[80, 0, 174]",174,l,0.013405799982137978,colour,0.06
135,28,1,2,11,18,518,722.0137927000178,722.6634137999499,"[79, 0, 175]",175,l,0.1264775999588892,colour,0.06
135,28,1,2,11,19,519,723.1698788999347,723.8154255999252,"[94, 0, 160]",160,l,0.12532459991052747,colour,0.06
135,28,1,2,11,20,520,724.323025599937,725.0394592999946,"[74, 0, 180]",180,l,0.1932541000423953,colour,0.06
135,28,1,2,11,21,521,725.5592105999822,726.1114260000177,"[70, 0, 184]",184,a,0.029388300026766956,colour,0.06
135,28,1,2,11,22,522,726.6215036999201,727.7834215000039,"[98, 0, 156]",156,l,0.6385449999943376,colour,0.06
135,28,1,2,11,23,523,728.2933387999656,729.1593939999584,"[71, 0, 183]",183,l,0.3429183999542147,colour,0.06
135,28,1,2,11,24,524,729.6683075999608,730.3194160999265,"[81, 0, 173]",173,l,0.12796449998859316,colour,0.06
135,28,1,2,11,25,525,730.8400040999986,731.3834285999183,"[51, 0, 203]",203,a,0.020303600002080202,colour,0.06
135,28,1,2,11,26,526,731.9022684999509,732.5353917999892,"[84, 0, 170]",170,l,0.10979939997196198,colour,0.06
135,28,1,2,11,27,527,733.0305723999627,733.5754362000152,"[54, 0, 200]",200,a,0.021641400060616434,colour,0.06
135,28,1,2,11,28,528,734.0928949000081,734.7594223999185,"[89, 0, 165]",165,l,0.1436025999719277,colour,0.06
135,28,1,2,11,29,529,735.2802759999176,735.8314313999144,"[56, 0, 198]",198,a,0.02835019992198795,colour,0.06
135,28,1,2,11,30,530,736.3427426000126,736.9514165000292,"[87, 0, 167]",167,l,0.08546770003158599,colour,0.06
135,28,1,2,11,31,531,737.467720799963,738.0554233000148,"[66, 0, 188]",188,a,0.0647112000733614,colour,0.06
135,28,1,2,11,32,532,738.5669930999866,739.9914764999412,"[50, 0, 204]",204,a,0.9012480999808758,colour,0.06
135,28,1,2,11,33,533,740.4919336999301,741.183415699983,"[78, 0, 176]",176,l,0.16828260000329465,colour,0.06
135,28,1,2,11,34,534,741.6949857999571,742.4874438999686,"[92, 0, 162]",162,l,0.26933999999891967,colour,0.06
135,28,1,2,11,35,535,743.0073744999245,743.8073980999179,"[60, 0, 194]",194,a,0.2774513999465853,colour,0.06
135,28,1,2,11,36,536,744.3196802999591,745.0954790000105,"[64, 0, 190]",190,a,0.2526503000408411,colour,0.06
135,28,1,2,11,37,537,745.6018795999698,746.4074480999261,"[63, 0, 191]",191,a,0.2823323999764398,colour,0.06
135,28,1,2,11,38,538,746.9142876999686,747.679514599964,"[72, 0, 182]",182,a,0.25061180000193417,colour,0.06
135,28,1,2,11,39,539,748.1868740000064,748.9834444000153,"[55, 0, 199]",199,a,0.2735433999914676,colour,0.06
135,28,1,2,11,40,540,749.4992089999141,750.3194028999424,"[61, 0, 193]",193,a,0.29697529994882643,colour,0.06
135,28,1,2,11,41,541,750.8272990999976,751.5753649999388,"[57, 0, 197]",197,a,0.22488380002323538,colour,0.06
135,28,1,2,11,42,542,752.093801299925,752.7833871999756,"[76, 0, 178]",178,l,0.16638589999638498,colour,0.06
135,28,1,2,11,43,543,753.2968408999732,753.8954333999427,"[62, 0, 192]",192,a,0.0756224999204278,colour,0.06
135,28,1,2,11,44,544,754.4061122999992,755.4555737000192,"[90, 0, 164]",164,l,0.5265217000851408,colour,0.06
135,28,1,2,11,45,545,755.9684866999742,756.7354503999231,"[77, 0, 177]",177,l,0.24378639995120466,colour,0.06
135,28,1,2,11,46,546,757.2496218999149,757.8954367999686,"[53, 0, 201]",201,a,0.12257719994522631,colour,0.06
135,28,1,2,11,47,547,758.4058132999344,759.1274205999216,"[68, 0, 186]",186,a,0.19840959995053709,colour,0.06
135,28,1,2,11,48,548,759.633333500009,760.3914383000229,"[86, 0, 168]",168,l,0.23487250006292015,colour,0.06
135,28,1,2,11,49,549,760.9007156000007,761.6394034000114,"[99, 0, 155]",155,l,0.21750820009037852,colour,0.06
135,28,1,2,11,50,550,762.1504964999622,762.9034133999376,"[95, 0, 159]",159,l,0.22969830001238734,colour,0.06
135,28,1,2,12,1,551,781.038572999998,782.103397400002,"[55, 0, 199]",199,a,0.538687500054948,colour,0.06
135,28,1,2,12,2,552,782.6194511000067,783.279448300018,"[64, 0, 190]",190,a,0.13671830005478114,colour,0.06
135,28,1,2,12,3,553,783.7913037999533,784.4393854999216,"[50, 0, 204]",204,a,0.12488459993619472,colour,0.06
135,28,1,2,12,4,554,784.9473789000185,785.5753580000019,"[83, 0, 171]",171,l,0.1047035000519827,colour,0.06
135,28,1,2,12,5,555,786.088001600001,786.7033946999582,"[97, 0, 157]",157,l,0.09297849994618446,colour,0.06
135,28,1,2,12,6,556,787.2128725999501,787.959400099935,"[87, 0, 167]",167,l,0.2236286000115797,colour,0.06
135,28,1,2,12,7,557,788.4783419999294,789.2713958999375,"[73, 0, 181]",181,l,0.2734565999126062,colour,0.06
135,28,1,2,12,8,558,789.7879452999914,790.4793663999299,"[69, 0, 185]",185,l,0.1653713999548927,colour,0.06
135,28,1,2,12,9,559,790.9939252999611,791.6153806999791,"[85, 0, 169]",169,l,0.09825599996838719,colour,0.06
135,28,1,2,12,10,560,792.1345025999472,792.9034099000273,"[51, 0, 203]",203,a,0.24568570009432733,colour,0.06
135,28,1,2,12,11,561,793.4155834999401,794.1113734999672,"[78, 0, 176]",176,l,0.1728576000314206,colour,0.06
135,28,1,2,12,12,562,794.6185646000085,795.2713688999647,"[93, 0, 161]",161,l,0.12961099995300174,colour,0.06
135,28,1,2,12,13,563,795.7852736000204,796.5833713000175,"[72, 0, 182]",182,l,0.2748117999872193,colour,0.06
135,28,1,2,12,14,564,797.0978020000039,797.7753789999988,"[89, 0, 165]",165,l,0.15467449999414384,colour,0.06
135,28,1,2,12,15,565,798.2851778999902,799.3433856000192,"[96, 0, 158]",158,l,0.5320521000539884,colour,0.06
135,28,1,2,12,16,566,799.8504559999565,800.9594183999579,"[70, 0, 184]",184,a,0.5886403999757022,colour,0.06
135,28,1,2,12,17,567,801.4725652999477,802.2473263000138,"[59, 0, 195]",195,a,0.24869899998884648,colour,0.06
135,28,1,2,12,18,568,802.7512403000146,803.4793532999465,"[67, 0, 187]",187,a,0.204860599944368,colour,0.06
135,28,1,2,12,19,569,803.9854706999613,804.7193946000189,"[92, 0, 162]",162,l,0.21126480004750192,colour,0.06
135,28,1,2,12,20,570,805.2354058999335,806.0233581999782,"[91, 0, 163]",163,l,0.26480919995810837,colour,0.06
135,28,1,2,12,21,571,806.5321444999427,807.2953759999946,"[71, 0, 183]",183,a,0.2400033000158146,colour,0.06
135,28,1,2,12,22,572,807.8132345000049,808.7753277999582,"[90, 0, 164]",164,l,0.43912999995518476,colour,0.06
135,28,1,2,12,23,573,809.2819036999717,810.0553504999261,"[74, 0, 180]",180,a,0.2501701998990029,colour,0.06
135,28,1,2,12,24,574,810.563116199919,811.3673872000072,"[14, 0, 240]",240,a,0.2812597000738606,colour,0.06
135,28,1,2,12,25,575,811.8755075000226,812.6793797999853,"[57, 0, 197]",197,a,0.28070959995966405,colour,0.06
135,28,1,2,12,26,576,813.1877754000016,813.9673799999291,"[61, 0, 193]",193,a,0.2563611000077799,colour,0.06
135,28,1,2,12,27,577,814.4846361000091,815.2074228000129,"[81, 0, 173]",173,l,0.19956020009703934,colour,0.06
135,28,1,2,12,28,578,815.7189680999145,816.519438499934,"[66, 0, 188]",188,a,0.27724819991271943,colour,0.06
135,28,1,2,12,29,579,817.0312069000211,817.8713444999885,"[60, 0, 194]",194,a,0.31680420006159693,colour,0.06
135,28,1,2,12,30,580,818.3905796000035,819.1433464000002,"[88, 0, 166]",166,l,0.2295901000034064,colour,0.06
135,28,1,2,12,31,581,819.6560403999174,820.3433912999462,"[52, 0, 202]",202,a,0.16416269994806498,colour,0.06
135,28,1,2,12,32,582,820.859102300019,821.5433258999838,"[68, 0, 186]",186,a,0.16110719996504486,colour,0.06
135,28,1,2,12,33,583,822.06212519994,822.7193956000265,"[75, 0, 179]",179,a,0.1342596000758931,colour,0.06
135,28,1,2,12,34,584,823.2338376999833,823.8393476000056,"[80, 0, 174]",174,l,0.08235010004136711,colour,0.06
135,28,1,2,12,35,585,824.3587986999191,825.1354185999371,"[77, 0, 177]",177,l,0.2534127999097109,colour,0.06
135,28,1,2,12,36,586,825.6555356999161,826.3753486999776,"[53, 0, 201]",201,a,0.19665519997943193,colour,0.06
135,28,1,2,12,37,587,826.8898185000289,827.5193110000109,"[98, 0, 156]",156,l,0.10628890001680702,colour,0.06
135,28,1,2,12,38,588,828.0302885000128,828.7913939999416,"[62, 0, 192]",192,l,0.23786449991166592,colour,0.06
135,28,1,2,12,39,589,829.3114090999588,829.9753845999949,"[76, 0, 178]",178,l,0.1407862000633031,colour,0.06
135,28,1,2,12,40,590,830.4832432999974,831.1514110999415,"[94, 0, 160]",160,l,0.14495139999780804,colour,0.06
135,28,1,2,12,41,591,831.6706537000136,832.4073655999964,"[54, 0, 200]",200,a,0.2228708000620827,colour,0.06
135,28,1,2,12,42,592,832.9268507999368,833.5593387000263,"[99, 0, 155]",155,l,0.10934260010253638,colour,0.06
135,28,1,2,12,43,593,834.0673775000032,834.7433464999776,"[56, 0, 198]",198,a,0.15273460000753403,colour,0.06
135,28,1,2,12,44,594,835.2548576999689,836.0393409000244,"[58, 0, 196]",196,a,0.2608480000635609,colour,0.06
135,28,1,2,12,45,595,836.5428096000105,837.2233077000128,"[65, 0, 189]",189,a,0.15442650008480996,colour,0.06
135,28,1,2,12,46,596,837.7331170999678,838.4553879000014,"[84, 0, 170]",170,l,0.2114180000498891,colour,0.06
135,28,1,2,12,47,597,838.9725556999911,839.7593383999774,"[95, 0, 159]",159,l,0.2626839999575168,colour,0.06
135,28,1,2,12,48,598,840.2702243999811,841.0153771999758,"[24, 0, 230]",230,a,0.22461649996694177,colour,0.06
135,28,1,2,12,49,599,841.5330121999141,842.295356699964,"[79, 0, 175]",175,l,0.23909129993990064,colour,0.06
135,28,1,2,12,50,600,842.8142687999643,843.5433647999307,"[29, 0, 225]",225,a,0.20877469994593412,colour,0.06
135,28,1,2,13,1,601,848.09151259996,848.7753839999205,"[61, 0, 193]",193,a,0.1602409000042826,colour,0.06
135,28,1,2,13,2,602,849.2953722999664,850.0153607999673,"[77, 0, 177]",177,l,0.1970488999504596,colour,0.06
135,28,1,2,13,3,603,850.5319459999446,851.271354699973,"[70, 0, 184]",184,a,0.2149463000241667,colour,0.06
135,28,1,2,13,4,604,851.7830515999813,852.4953114999225,"[78, 0, 176]",176,l,0.18952479993458837,colour,0.06
135,28,1,2,13,5,605,853.0172998999478,853.5913312999764,"[73, 0, 181]",181,l,0.050748800043947995,colour,0.06
135,28,1,2,13,6,606,854.1110766999191,854.831338900025,"[94, 0, 160]",160,l,0.1972121000289917,colour,0.06
135,28,1,2,13,7,607,855.3453194999602,855.9432702999329,"[81, 0, 173]",173,l,0.07492209994234145,colour,0.06
135,28,1,2,13,8,608,856.454627799918,857.0712998999516,"[84, 0, 170]",170,l,0.09355250000953674,colour,0.06
135,28,1,2,13,9,609,857.5794252000051,858.2713029999286,"[68, 0, 186]",186,a,0.168859799974598,colour,0.06
135,28,1,2,13,10,610,858.7823971000034,859.3993791999528,"[57, 0, 197]",197,a,0.09366479993332177,colour,0.06
135,28,1,2,13,11,611,859.9073631999781,860.5433411999838,"[82, 0, 172]",172,l,0.11368619999848306,colour,0.06
135,28,1,2,13,12,612,861.0635382999899,861.7112850999692,"[80, 0, 174]",174,l,0.12464870000258088,colour,0.06
135,28,1,2,13,13,613,862.2196769999573,862.9433602999197,"[99, 0, 155]",155,l,0.20049289998132735,colour,0.06
135,28,1,2,13,14,614,863.4539574999362,864.0232868000166,"[64, 0, 190]",190,l,0.046133400057442486,colour,0.06
135,28,1,2,13,15,615,864.5320105999708,865.4233635999262,"[51, 0, 203]",203,a,0.3681631999788806,colour,0.06
135,28,1,2,13,16,616,865.9381131000118,866.8633893999504,"[74, 0, 180]",180,l,0.40205020003486425,colour,0.06
135,28,1,2,13,17,617,867.3631411999231,868.1752698000055,"[85, 0, 169]",169,l,0.28925450006499887,colour,0.06
135,28,1,2,13,18,618,868.6911548000062,869.8234071999323,"[69, 0, 185]",185,a,0.6090552000096068,colour,0.06
135,28,1,2,13,19,619,870.3336657999316,871.0472596000182,"[72, 0, 182]",182,a,0.1902771000750363,colour,0.06
135,28,1,2,13,20,620,871.568191899918,872.3432744999882,"[97, 0, 157]",157,l,0.25183219998143613,colour,0.06
135,28,1,2,13,21,621,872.8492503999732,873.6073926999234,"[83, 0, 171]",171,l,0.2348453999729827,colour,0.06
135,28,1,2,13,22,622,874.1147113000043,874.8793259999948,"[52, 0, 202]",202,a,0.24131519999355078,colour,0.06
135,28,1,2,13,23,623,875.3958833999932,876.2953159000026,"[50, 0, 204]",204,a,0.3744977000169456,colour,0.06
135,28,1,2,13,24,624,876.8044955999358,877.4233146000188,"[91, 0, 163]",163,l,0.09252740000374615,colour,0.06
135,28,1,2,13,25,625,877.9323388999328,878.6393117000116,"[90, 0, 164]",164,l,0.18367440009023994,colour,0.06
135,28,1,2,13,26,626,879.151082299999,879.8552890999708,"[89, 0, 165]",165,l,0.18093589995987713,colour,0.06
135,28,1,2,13,27,627,880.3571898000082,881.0873505999334,"[38, 0, 216]",216,a,0.20694019994698465,colour,0.06
135,28,1,2,13,28,628,881.6070836000144,882.3753038999857,"[60, 0, 194]",194,a,0.24504000006709248,colour,0.06
135,28,1,2,13,29,629,882.8791364999488,883.6473041999852,"[58, 0, 196]",196,a,0.24503550003282726,colour,0.06
135,28,1,2,13,30,630,884.1603407999501,884.8473198999418,"[9, 0, 245]",245,a,0.1638256999431178,colour,0.06
135,28,1,2,13,31,631,885.3633451999631,886.1032888999907,"[79, 0, 175]",175,l,0.21706250007264316,colour,0.06
135,28,1,2,13,32,632,886.6131475999719,887.3913246999728,"[54, 0, 200]",200,a,0.25514110003132373,colour,0.06
135,28,1,2,13,33,633,887.9039366999641,888.5593102999264,"[55, 0, 199]",199,a,0.13225419993977994,colour,0.06
135,28,1,2,13,34,634,889.0756734999595,889.807308999938,"[98, 0, 156]",156,l,0.2083934999536723,colour,0.06
135,28,1,2,13,35,635,890.325616999995,891.2953443999868,"[75, 0, 179]",179,l,0.44666230003349483,colour,0.06
135,28,1,2,13,36,636,891.8096244999906,892.5752674000105,"[71, 0, 183]",183,l,0.24299579998478293,colour,0.06
135,28,1,2,13,37,637,893.0909819999943,893.8553418000229,"[96, 0, 158]",158,l,0.25043330003973097,colour,0.06
135,28,1,2,13,38,638,894.3655081000179,895.1753314000089,"[76, 0, 178]",178,l,0.28672530001495034,colour,0.06
135,28,1,2,13,39,639,895.6934816000285,896.4873158999253,"[95, 0, 159]",159,l,0.270661799935624,colour,0.06
135,28,1,2,13,40,640,897.0063541999552,897.7193470000057,"[16, 0, 238]",238,a,0.18996400001924485,colour,0.06
135,28,1,2,13,41,641,898.2405515999999,898.9833038999932,"[53, 0, 201]",201,a,0.21658320003189147,colour,0.06
135,28,1,2,13,42,642,899.4848736999556,900.1912750999909,"[93, 0, 161]",161,l,0.1832363000139594,colour,0.06
135,28,1,2,13,43,643,900.7033822999801,901.4633261000272,"[87, 0, 167]",167,l,0.23679170000832528,colour,0.06
135,28,1,2,13,44,644,901.9845766000217,903.3833463999908,"[59, 0, 195]",195,a,0.8726596999913454,colour,0.06
135,28,1,2,13,45,645,903.8936765999533,904.5513804999646,"[92, 0, 162]",162,l,0.1345452000387013,colour,0.06
135,28,1,2,13,46,646,905.0654828000115,905.8552564999554,"[65, 0, 189]",189,a,0.266706999973394,colour,0.06
135,28,1,2,13,47,647,906.3621520999586,907.05532699998,"[66, 0, 188]",188,a,0.17017080006189644,colour,0.06
135,28,1,2,13,48,648,907.5652307999553,909.2873325999826,"[63, 0, 191]",191,a,1.1989503999939188,colour,0.06
135,28,1,2,13,49,649,909.8013372999849,910.4312743999762,"[88, 0, 166]",166,l,0.10749309998936951,colour,0.06
135,28,1,2,13,50,650,910.9418227999704,911.5993080999469,"[62, 0, 192]",192,a,0.13410449994262308,colour,0.06
135,28,1,2,14,1,651,916.1281139999628,916.6872743000276,"[85, 0, 169]",169,l,0.035325400065630674,colour,0.06
135,28,1,2,14,2,652,917.2074846000178,917.9193299999461,"[59, 0, 195]",195,a,0.18915869994089007,colour,0.06
135,28,1,2,14,3,653,918.425555099966,918.9673303000163,"[82, 0, 172]",172,l,0.01851730002090335,colour,0.06
135,28,1,2,14,4,654,919.4879045999842,920.359341399977,"[69, 0, 185]",185,l,0.3452554000541568,colour,0.06
135,28,1,2,14,5,655,920.8657224000199,921.6392798000015,"[78, 0, 176]",176,l,0.25028570007998496,colour,0.06
135,28,1,2,14,6,656,922.1469630999491,922.8792717999313,"[80, 0, 174]",174,l,0.20938030001707375,colour,0.06
135,28,1,2,14,7,657,923.3968406999484,924.1032386999577,"[76, 0, 178]",178,l,0.18334959994535893,colour,0.06
135,28,1,2,14,8,658,924.6154381999513,925.4313180999598,"[52, 0, 202]",202,a,0.2926647999556735,colour,0.06
135,28,1,2,14,9,659,925.9435081999982,926.6072732999455,"[86, 0, 168]",168,l,0.14123089995700866,colour,0.06
135,28,1,2,14,10,660,927.1152885999763,927.7192446999252,"[58, 0, 196]",196,a,0.08360509993508458,colour,0.06
135,28,1,2,14,11,661,928.2373603999149,928.9672616999596,"[61, 0, 193]",193,a,0.2037828000029549,colour,0.06
135,28,1,2,14,12,662,929.4658736999845,930.2632877000142,"[70, 0, 184]",184,l,0.2742067000363022,colour,0.06
135,28,1,2,14,13,663,930.778177500004,931.4072906000074,"[57, 0, 197]",197,a,0.10588530008681118,colour,0.06
135,28,1,2,14,14,664,931.9186832000269,932.6952950999839,"[72, 0, 182]",182,l,0.2533139999723062,colour,0.06
135,28,1,2,14,15,665,933.2155167999445,933.8872376999352,"[68, 0, 186]",186,l,0.14854919991921633,colour,0.06
135,28,1,2,14,16,666,934.4030819999753,935.2152452999726,"[62, 0, 192]",192,l,0.28907679999247193,colour,0.06
135,28,1,2,14,17,667,935.7309221000178,936.3912282999372,"[89, 0, 165]",165,l,0.1370745999738574,colour,0.06
135,28,1,2,14,18,668,936.8997023999691,937.5673139999853,"[75, 0, 179]",179,l,0.14425969996955246,colour,0.06
135,28,1,2,14,19,669,938.0871986999409,938.6792469000211,"[3, 0, 251]",251,a,0.06905789999291301,colour,0.06
135,28,1,2,14,20,670,939.1977123999968,939.8313709999202,"[93, 0, 161]",161,l,0.11042969999834895,colour,0.06
135,28,1,2,14,21,671,940.3382833999349,941.047268699971,"[88, 0, 166]",166,l,0.19722179998643696,colour,0.06
135,28,1,2,14,22,672,941.5610925999936,942.3673077999847,"[92, 0, 162]",162,l,0.2830628000665456,colour,0.06
135,28,1,2,14,23,673,942.8735493000131,943.623206099961,"[47, 0, 207]",207,a,0.22653310000896454,colour,0.06
135,28,1,2,14,24,674,944.1389247999759,944.9032833999954,"[33, 0, 221]",221,a,0.24574370007030666,colour,0.06
135,28,1,2,14,25,675,945.4154199999757,946.0873468000209,"[90, 0, 164]",164,l,0.14963840006384999,colour,0.06
135,28,1,2,14,26,676,946.6027561000083,947.2472484000027,"[56, 0, 198]",198,a,0.12107810005545616,colour,0.06
135,28,1,2,14,27,677,947.7589614000171,948.9513323999709,"[98, 0, 156]",156,l,0.6663127000210807,colour,0.06
135,28,1,2,14,28,678,949.464952499955,950.0152492999332,"[55, 0, 199]",199,a,0.02716499997768551,colour,0.06
135,28,1,2,14,29,679,950.5273578999331,951.5513796999585,"[67, 0, 187]",187,a,0.5008092999923974,colour,0.06
135,28,1,2,14,30,680,952.0584381999215,952.8632281000027,"[97, 0, 157]",157,l,0.28186760004609823,colour,0.06
135,28,1,2,14,31,681,953.3708110000007,954.1432432000292,"[73, 0, 181]",181,l,0.24922360002528876,colour,0.06
135,28,1,2,14,32,682,954.6520187000278,955.1832498000003,"[95, 0, 159]",159,l,0.008004600065760314,colour,0.06
135,28,1,2,14,33,683,955.6988164000213,956.2552884999895,"[84, 0, 170]",170,l,0.033295499975793064,colour,0.06
135,28,1,2,14,34,684,956.7768409999553,957.4472885000287,"[77, 0, 177]",177,l,0.14732070011086762,colour,0.06
135,28,1,2,14,35,685,957.9641613999847,959.0872938999673,"[71, 0, 183]",183,l,0.5999420000007376,colour,0.06
135,28,1,2,14,36,686,959.6047127000056,960.4312344000209,"[83, 0, 171]",171,l,0.30343580001499504,colour,0.06
135,28,1,2,14,37,687,960.9484066999285,961.5512945000082,"[50, 0, 204]",204,a,0.07976990006864071,colour,0.06
135,28,1,2,14,38,688,962.0576216999907,962.7352595999837,"[74, 0, 180]",180,l,0.15437410003505647,colour,0.06
135,28,1,2,14,39,689,963.2448983999202,964.1672500999412,"[99, 0, 155]",155,l,0.3991859999950975,colour,0.06
135,28,1,2,14,40,690,964.6824317999417,965.4632218999323,"[87, 0, 167]",167,l,0.25751909997779876,colour,0.06
135,28,1,2,14,41,691,965.9790700000012,966.51925449993,"[63, 0, 191]",191,a,0.017107099993154407,colour,0.06
135,28,1,2,14,42,692,967.025878699962,968.0314108999446,"[65, 0, 189]",189,a,0.4825583000201732,colour,0.06
135,28,1,2,14,43,693,968.5414882999612,969.1832369000185,"[54, 0, 200]",200,a,0.1197563000023365,colour,0.06
135,28,1,2,14,44,694,969.6975822999375,970.6952123999363,"[79, 0, 175]",175,l,0.47438149992376566,colour,0.06
135,28,1,2,14,45,695,971.2130901999772,971.9513000999577,"[91, 0, 163]",163,l,0.21538940002210438,colour,0.06
135,28,1,2,14,46,696,972.4629479999421,973.2952682999894,"[94, 0, 160]",160,l,0.3094246999826282,colour,0.06
135,28,1,2,14,47,697,973.8066053999355,974.4392511999467,"[53, 0, 201]",201,a,0.10941969999112189,colour,0.06
135,28,1,2,14,48,698,974.9471665999154,975.9112469999818,"[60, 0, 194]",194,a,0.4409359999699518,colour,0.06
135,28,1,2,14,49,699,976.4313785999548,977.1751725999638,"[66, 0, 188]",188,a,0.22057609993498772,colour,0.06
135,28,1,2,14,50,700,977.6812712999526,978.463242799975,"[51, 0, 203]",203,a,0.25914590002503246,colour,0.06
135,28,1,2,15,1,701,982.7491156000178,983.2952744999202,"[80, 0, 174]",174,l,0.02219909999985248,colour,0.06
135,28,1,2,15,2,702,983.8123959000222,984.5192063000286,"[64, 0, 190]",190,a,0.18392200011294335,colour,0.06
135,28,1,2,15,3,703,985.030895999982,985.7352341000224,"[76, 0, 178]",178,l,0.18101970001589507,colour,0.06
135,28,1,2,15,4,704,986.2504824999487,986.799240399967,"[74, 0, 180]",180,l,0.02566130005288869,colour,0.06
135,28,1,2,15,5,705,987.3129253999796,988.1432547000004,"[65, 0, 189]",189,l,0.307365300017409,colour,0.06
135,28,1,2,15,6,706,988.6565532999812,989.2392746999394,"[97, 0, 157]",157,l,0.062916100025177,colour,0.06
135,28,1,2,15,7,707,989.7488597999327,990.6231661000056,"[60, 0, 194]",194,a,0.3498448000755161,colour,0.06
135,28,1,2,15,8,708,991.140574799967,991.8711827999214,"[56, 0, 198]",198,a,0.2074832998914644,colour,0.06
135,28,1,2,15,9,709,992.3895327999489,993.3752686999505,"[70, 0, 184]",184,l,0.4600510000018403,colour,0.06
135,28,1,2,15,10,710,993.8923492999747,994.4551829999546,"[99, 0, 155]",155,l,0.039626399986445904,colour,0.06
135,28,1,2,15,11,711,994.9703886000207,995.5193103000056,"[40, 0, 214]",214,a,0.025757000083103776,colour,0.06
135,28,1,2,15,12,712,996.0328732000198,996.8952549999813,"[86, 0, 168]",168,l,0.33880380005575716,colour,0.06
135,28,1,2,15,13,713,997.4081798000261,997.9832112999866,"[53, 0, 201]",201,a,0.05180110002402216,colour,0.06
135,28,1,2,15,14,714,998.5019385999767,999.3592237000121,"[98, 0, 156]",156,l,0.3346611000597477,colour,0.06
135,28,1,2,15,15,715,999.8768552999245,1000.7352545999456,"[8, 0, 246]",246,a,0.3352368000196293,colour,0.06
135,28,1,2,15,16,716,1001.2544189000037,1002.0071954999585,"[95, 0, 159]",159,l,0.22663699998520315,colour,0.06
135,28,1,2,15,17,717,1002.522882899968,1003.1032270999858,"[59, 0, 195]",195,a,0.05711469997186214,colour,0.06
135,28,1,2,15,18,718,1003.6167902000016,1004.2872248999774,"[87, 0, 167]",167,l,0.14718660002108663,colour,0.06
135,28,1,2,15,19,719,1004.8043565999251,1006.5831859000027,"[66, 0, 188]",188,a,1.2568276000674814,colour,0.06
135,28,1,2,15,20,720,1007.1008817999391,1007.7512687999988,"[72, 0, 182]",182,l,0.12745690008159727,colour,0.06
135,28,1,2,15,21,721,1008.2727753999643,1008.8472257999238,"[57, 0, 197]",197,a,0.060833800002001226,colour,0.06
135,28,1,2,15,22,722,1009.3571884999983,1010.1513634999283,"[90, 0, 164]",164,l,0.27107249991968274,colour,0.06
135,28,1,2,15,23,723,1010.6699176999973,1011.3512854999863,"[94, 0, 160]",160,l,0.15732200001366436,colour,0.06
135,28,1,2,15,24,724,1011.8602459999966,1012.3992633000016,"[50, 0, 204]",204,a,0.01583420007955283,colour,0.06
135,28,1,2,15,25,725,1012.9069931999547,1013.6951708999695,"[96, 0, 158]",158,l,0.2650399999693036,colour,0.06
135,28,1,2,15,26,726,1014.2038021999178,1015.0072638000129,"[54, 0, 200]",200,a,0.2803115000715479,colour,0.06
135,28,1,2,15,27,727,1015.516253800015,1016.3591802000301,"[55, 0, 199]",199,a,0.3198663000948727,colour,0.06
135,28,1,2,15,28,728,1016.8779889999423,1017.4552107999334,"[85, 0, 169]",169,l,0.05467519990634173,colour,0.06
135,28,1,2,15,29,729,1017.9624199999962,1018.5032209999627,"[67, 0, 187]",187,a,0.0177581999450922,colour,0.06
135,28,1,2,15,30,730,1019.0248299000086,1020.0392210999271,"[77, 0, 177]",177,l,0.49126959999557585,colour,0.06
135,28,1,2,15,31,731,1020.5559795999434,1021.1991786999861,"[69, 0, 185]",185,l,0.12089120002929121,colour,0.06
135,28,1,2,15,32,732,1021.7154344000155,1022.5191973999608,"[81, 0, 173]",173,l,0.28053600003477186,colour,0.06
135,28,1,2,15,33,733,1023.0278502999572,1023.5912396999775,"[61, 0, 193]",193,a,0.04062430001795292,colour,0.06
135,28,1,2,15,34,734,1024.1060029999353,1024.9031793000177,"[89, 0, 165]",165,l,0.27433100005146116,colour,0.06
135,28,1,2,15,35,735,1025.4183569999877,1026.1351971999975,"[79, 0, 175]",175,l,0.19361279997974634,colour,0.06
135,28,1,2,15,36,736,1026.6531411999604,1027.2232022000244,"[82, 0, 172]",172,l,0.04683620005380362,colour,0.06
135,28,1,2,15,37,737,1027.7312080999836,1028.6151909999317,"[91, 0, 163]",163,l,0.36075619992334396,colour,0.06
135,28,1,2,15,38,738,1029.1216742999386,1029.7592150999699,"[93, 0, 161]",161,l,0.11438809998799115,colour,0.06
135,28,1,2,15,39,739,1030.2777564999415,1031.0631600000197,"[51, 0, 203]",203,a,0.26202950009610504,colour,0.06
135,28,1,2,15,40,740,1031.5745972000295,1032.175205699983,"[52, 0, 202]",202,a,0.07741969998460263,colour,0.06
135,28,1,2,15,41,741,1032.683878300013,1033.223234499921,"[83, 0, 171]",171,l,0.016130999894812703,colour,0.06
135,28,1,2,15,42,742,1033.7306921000127,1034.3671821999596,"[78, 0, 176]",176,l,0.11331980000250041,colour,0.06
135,28,1,2,15,43,743,1034.8868147999747,1035.5112002999522,"[71, 0, 183]",183,l,0.10128009994514287,colour,0.06
135,28,1,2,15,44,744,1036.0273266999284,1036.7991893999279,"[75, 0, 179]",179,l,0.24954909994266927,colour,0.06
135,28,1,2,15,45,745,1037.299912699964,1037.8871983999852,"[63, 0, 191]",191,a,0.06409370002802461,colour,0.06
135,28,1,2,15,46,746,1038.381119000027,1039.039215900004,"[88, 0, 166]",166,l,0.1337636000243947,colour,0.06
135,28,1,2,15,47,747,1039.554113799939,1040.4471539999358,"[92, 0, 162]",162,l,0.36998670001048595,colour,0.06
135,28,1,2,15,48,748,1040.9602347000036,1041.5032624999294,"[62, 0, 192]",192,a,0.019772499916143715,colour,0.06
135,28,1,2,15,49,749,1042.0226786999265,1042.6071632999228,"[17, 0, 237]",237,a,0.061335999984294176,colour,0.06
135,28,1,2,15,50,750,1043.1162874000147,1044.2711811999325,"[68, 0, 186]",186,a,0.6316221000161022,colour,0.06
135,28,1,2,16,1,751,1048.8183806999587,1049.5591222000076,"[93, 0, 161]",161,l,0.21662610000930727,colour,0.06
135,28,1,2,16,2,752,1050.0690652999328,1050.7512231,"[50, 0, 204]",204,a,0.1588387000374496,colour,0.06
135,28,1,2,16,3,753,1051.2721651999746,1051.9751666999655,"[63, 0, 191]",191,a,0.18926879996433854,colour,0.06
135,28,1,2,16,4,754,1052.4815281999763,1053.2071749999886,"[74, 0, 180]",180,a,0.20170890004374087,colour,0.06
135,28,1,2,16,5,755,1053.708265400026,1054.455189500004,"[58, 0, 196]",196,a,0.22383000003173947,colour,0.06
135,28,1,2,16,6,756,1054.9738183999434,1055.7031955999555,"[88, 0, 166]",166,l,0.20331270003225654,colour,0.06
135,28,1,2,16,7,757,1056.201563199982,1056.9590909000253,"[85, 0, 169]",169,l,0.23264110006857663,colour,0.06
135,28,1,2,16,8,758,1057.4687271999428,1058.111161799985,"[82, 0, 172]",172,l,0.11622079997323453,colour,0.06
135,28,1,2,16,9,759,1058.6278093999717,1059.3512866999954,"[95, 0, 159]",159,l,0.20059839996974915,colour,0.06
135,28,1,2,16,10,760,1059.8653640999692,1060.5112329999683,"[99, 0, 155]",155,l,0.12267569999676198,colour,0.06
135,28,1,2,16,11,761,1061.0214971000096,1061.9031341000227,"[69, 0, 185]",185,a,0.35856480000074953,colour,0.06
135,28,1,2,16,12,762,1062.4119872000301,1063.1511411999818,"[90, 0, 164]",164,l,0.2159897000528872,colour,0.06
135,28,1,2,16,13,763,1063.6494539999403,1064.3191484999843,"[59, 0, 195]",195,a,0.14648630004376173,colour,0.06
135,28,1,2,16,14,764,1064.8369598999852,1065.551246499992,"[56, 0, 198]",198,a,0.188327300013043,colour,0.06
135,28,1,2,16,15,765,1066.058699099929,1066.7911439000163,"[68, 0, 186]",186,a,0.20943829999305308,colour,0.06
135,28,1,2,16,16,766,1067.3086239999393,1067.983116199961,"[60, 0, 194]",194,a,0.15139180002734065,colour,0.06
135,28,1,2,16,17,767,1068.4989580999827,1069.1831416999921,"[76, 0, 178]",178,a,0.1599972000112757,colour,0.06
135,28,1,2,16,18,768,1069.7031047999626,1070.6951666999375,"[54, 0, 200]",200,a,0.4691940000047907,colour,0.06
135,28,1,2,16,19,769,1071.202879599994,1071.9512188999215,"[80, 0, 174]",174,l,0.2248856999212876,colour,0.06
135,28,1,2,16,20,770,1072.4684612000128,1073.1431157999905,"[86, 0, 168]",168,l,0.15138549997936934,colour,0.06
135,28,1,2,16,21,771,1073.6558996000094,1074.199226800003,"[96, 0, 158]",158,l,0.02406249998603016,colour,0.06
135,28,1,2,16,22,772,1074.7145013000118,1075.3512128000148,"[98, 0, 156]",156,l,0.11402199999429286,colour,0.06
135,28,1,2,16,23,773,1075.8705712999217,1076.5111739999847,"[87, 0, 167]",167,l,0.11425860004965216,colour,0.06
135,28,1,2,16,24,774,1077.0297995000146,1077.8631715999218,"[71, 0, 183]",183,a,0.3104491999838501,colour,0.06
135,28,1,2,16,25,775,1078.373771799961,1079.27919079992,"[81, 0, 173]",173,l,0.3822129999753088,colour,0.06
135,28,1,2,16,26,776,1079.795438000001,1080.359206699999,"[61, 0, 193]",193,a,0.03889239998534322,colour,0.06
135,28,1,2,16,27,777,1080.8752465000143,1081.6151503999718,"[92, 0, 162]",162,l,0.21676510001998395,colour,0.06
135,28,1,2,16,28,778,1082.1250324000139,1082.6632140999427,"[70, 0, 184]",184,a,0.01486350002232939,colour,0.06
135,28,1,2,16,29,779,1083.1667201999808,1083.8871483999537,"[64, 0, 190]",190,a,0.19719620002433658,colour,0.06
135,28,1,2,16,30,780,1084.4009846999543,1084.9911281999666,"[73, 0, 181]",181,a,0.06686529994476587,colour,0.06
135,28,1,2,16,31,781,1085.5102926000254,1086.4071862000274,"[97, 0, 157]",157,l,0.37357650010380894,colour,0.06
135,28,1,2,16,32,782,1086.9163840999827,1087.6551536999177,"[57, 0, 197]",197,a,0.21553449996281415,colour,0.06
135,28,1,2,16,33,783,1088.1662477999926,1088.975142100011,"[78, 0, 176]",176,l,0.2856218999950215,colour,0.06
135,28,1,2,16,34,784,1089.4943354999414,1090.3111302999314,"[51, 0, 203]",203,a,0.29365199990570545,colour,0.06
135,28,1,2,16,35,785,1090.822324699955,1091.7832257000264,"[79, 0, 175]",175,a,0.4376337000867352,colour,0.06
135,28,1,2,16,36,786,1092.2909777999157,1093.0791296999669,"[66, 0, 188]",188,a,0.26491809997241944,colour,0.06
135,28,1,2,16,37,787,1093.587635600008,1094.5351292999694,"[84, 0, 170]",170,l,0.424155900022015,colour,0.06
135,28,1,2,16,38,788,1095.0563857000088,1095.7031411000062,"[89, 0, 165]",165,l,0.12388690002262592,colour,0.06
135,28,1,2,16,39,789,1096.2124864999205,1096.9831299999496,"[10, 0, 244]",244,a,0.24747039994690567,colour,0.06
135,28,1,2,16,40,790,1097.4936975999735,1098.1911295999307,"[72, 0, 182]",182,l,0.18380050000268966,colour,0.06
135,28,1,2,16,41,791,1098.702813199954,1099.4711487999884,"[62, 0, 192]",192,a,0.24509670003317297,colour,0.06
135,28,1,2,16,42,792,1099.9839250999503,1100.559158799937,"[43, 0, 211]",211,a,0.05209010001271963,colour,0.06
135,28,1,2,16,43,793,1101.0776651999913,1101.7751285999548,"[91, 0, 163]",163,l,0.17529779998585582,colour,0.06
135,28,1,2,16,44,794,1102.2962545999326,1103.0471798999934,"[52, 0, 202]",202,a,0.22792229999322444,colour,0.06
135,28,1,2,16,45,795,1103.5617372000124,1104.3350967000006,"[53, 0, 201]",201,a,0.2502047000452876,colour,0.06
135,28,1,2,16,46,796,1104.8429024999496,1105.6552172999363,"[65, 0, 189]",189,l,0.289145499933511,colour,0.06
135,28,1,2,16,47,797,1106.1731027999194,1106.8151856999611,"[0, 0, 254]",254,a,0.11879470001440495,colour,0.06
135,28,1,2,16,48,798,1107.3292952999473,1107.9511400000192,"[75, 0, 179]",179,l,0.09868190006818622,colour,0.06
135,28,1,2,16,49,799,1108.4725478999317,1109.047132399981,"[77, 0, 177]",177,a,0.05138049996457994,colour,0.06
135,28,1,2,16,50,800,1109.5662131999852,1110.551215399988,"[83, 0, 171]",171,l,0.4618293000385165,colour,0.06
