id,age,condition,counterbalance,block,trialinblock,trial,tstart,tend,trialstim,trialintensity,response,RT,trialtype,colourfreq
040,70,1,1,Practice,1,NA,5.907844752073288e-06,4.045393499545753,"[85, 0, 169]",169,a,3.486799859907478,colour,0.5
040,70,1,1,Practice,2,NA,4.566127124242485,6.613403994590044,"[47, 0, 207]",207,a,1.523946619592607,colour,0.5
040,70,1,1,Practice,3,NA,7.128443395253271,7.741464571561664,"[97, 0, 157]",157,a,0.08983467938378453,colour,0.5
040,70,1,1,Practice,4,NA,8.25350483506918,13.733453351538628,"[39, 0, 215]",215,l,4.95647214865312,colour,0.5
040,70,1,1,Practice,5,NA,14.254760809708387,16.533456817269325,"[40, 0, 214]",214,l,1.7556225443258882,colour,0.5
040,70,1,1,Practice,6,NA,17.052000264637172,18.45340881543234,"[93, 0, 161]",161,l,0.8780267061665654,colour,0.5
040,70,1,1,Practice,7,NA,18.973552458919585,20.301407132763416,"[28, 0, 226]",226,l,0.8045724723488092,colour,0.5
040,70,1,1,Practice,8,NA,20.817408305127174,21.389440360944718,"[87, 0, 167]",167,a,0.04889715276658535,colour,0.5
040,70,1,1,Practice,9,NA,21.91099160956219,22.75773592153564,"[2, 0, 252]",252,a,0.3234936180524528,colour,0.5
040,70,1,1,Practice,10,NA,23.27019405597821,24.19739084970206,"[66, 0, 188]",188,a,0.4018110609613359,colour,0.5
040,70,1,1,1,1,1,4.797369818203151,6.199929186608642,"[17, 0, 237]",237,a,0.8785229520872235,colour,0.5
040,70,1,1,1,2,2,6.719999968539923,8.047924353275448,"[56, 0, 198]",198,a,0.8024244369007647,colour,0.5
040,70,1,1,1,3,3,8.565826225560158,9.24798193341121,"[4, 0, 250]",250,a,0.15876716747879982,colour,0.5
040,70,1,1,1,4,4,9.76900582248345,13.735944426618516,"[80, 0, 174]",174,l,3.443785584066063,colour,0.5
040,70,1,1,1,5,5,14.25324725965038,19.295923221856356,"[78, 0, 176]",176,a,4.519614314194769,colour,0.5
040,70,1,1,1,6,6,19.81699752341956,20.455914462916553,"[10, 0, 244]",244,a,0.11557447956874967,colour,0.5
040,70,1,1,1,7,7,20.973324027843773,22.671944464556873,"[27, 0, 227]",227,a,1.175292942672968,colour,0.5
040,70,1,1,1,8,8,23.189739998430014,24.407945604994893,"[98, 0, 156]",156,l,0.6946189617738128,colour,0.5
040,70,1,1,1,9,9,24.924215380102396,25.503953819163144,"[42, 0, 212]",212,a,0.05656927125528455,colour,0.5
040,70,1,1,1,10,10,26.017762057017535,26.751934965141118,"[54, 0, 200]",200,a,0.21095844777300954,colour,0.5
040,70,1,1,1,11,11,27.26782192150131,27.983918483369052,"[33, 0, 221]",221,a,0.19287107372656465,colour,0.5
040,70,1,1,1,12,12,28.502121253870428,29.056227019056678,"[90, 0, 164]",164,l,0.02882203832268715,colour,0.5
040,70,1,1,1,13,13,29.56460963562131,30.287923817522824,"[77, 0, 177]",177,a,0.1999421832151711,colour,0.5
040,70,1,1,1,14,14,30.799006641842425,31.399907209910452,"[13, 0, 241]",241,a,0.07820952916517854,colour,0.5
040,70,1,1,1,15,15,31.90837095864117,32.84793608961627,"[60, 0, 194]",194,a,0.4150371947325766,colour,0.5
040,70,1,1,1,16,16,33.362756511662155,34.00789936771616,"[35, 0, 219]",219,a,0.12162867886945605,colour,0.5
040,70,1,1,1,17,17,34.51898022275418,35.23188899504021,"[15, 0, 239]",239,a,0.19003498926758766,colour,0.5
040,70,1,1,1,18,18,35.73781677009538,37.20792071381584,"[71, 0, 183]",183,l,0.9468894833698869,colour,0.5
040,70,1,1,1,19,19,37.722113345749676,38.59189252415672,"[93, 0, 161]",161,l,0.34649461368098855,colour,0.5
040,70,1,1,1,20,20,39.11284630885348,40.07194659113884,"[82, 0, 172]",172,l,0.4362603696063161,colour,0.5
040,70,1,1,1,21,21,40.581515471916646,44.97609315859154,"[6, 0, 248]",248,l,3.8713175407610834,colour,0.5
040,70,1,1,1,22,22,45.48766868421808,46.9679114036262,"[3, 0, 251]",251,a,0.9572393605485559,colour,0.5
040,70,1,1,1,23,23,47.48905974812806,48.34391925530508,"[30, 0, 224]",224,a,0.33158242562785745,colour,0.5
040,70,1,1,1,24,24,48.86404478177428,49.567951418459415,"[44, 0, 210]",210,a,0.18071305053308606,colour,0.5
040,70,1,1,1,25,25,50.082854941952974,53.89592779055238,"[53, 0, 201]",201,a,3.2898174286819994,colour,0.5
040,70,1,1,1,26,26,54.41083682794124,55.12000918434933,"[26, 0, 228]",228,a,0.18584210565313697,colour,0.5
040,70,1,1,1,27,27,55.62957648932934,56.26394765917212,"[74, 0, 180]",180,l,0.11102792201563716,colour,0.5
040,70,1,1,1,28,28,56.77029527397826,61.99192615877837,"[21, 0, 233]",233,l,4.698303390759975,colour,0.5
040,70,1,1,1,29,29,62.50599551619962,63.10385716939345,"[52, 0, 202]",202,a,0.07448571594431996,colour,0.5
040,70,1,1,1,30,30,63.615308633539826,69.61588443629444,"[48, 0, 206]",206,a,5.477167570497841,colour,0.5
040,70,1,1,1,31,31,70.13083719043061,70.66393088176847,"[22, 0, 232]",232,a,0.009978086687624454,colour,0.5
040,70,1,1,1,32,32,71.17784979008138,72.28792145429179,"[85, 0, 169]",169,l,0.586825696285814,colour,0.5
040,70,1,1,1,33,33,72.80292343953624,78.52787917107344,"[20, 0, 234]",234,a,5.201821222435683,colour,0.5
040,70,1,1,1,34,34,79.04872346669436,80.23194019543007,"[70, 0, 184]",184,l,0.660336643923074,colour,0.5
040,70,1,1,1,35,35,80.7518561957404,85.56794472271577,"[59, 0, 195]",195,l,4.292967408429831,colour,0.5
040,70,1,1,1,36,36,86.07989637134597,86.62396379141137,"[23, 0, 231]",231,a,0.021015618462115526,colour,0.5
040,70,1,1,1,37,37,87.14237963268533,88.05585444066674,"[91, 0, 163]",163,l,0.39043954759836197,colour,0.5
040,70,1,1,1,38,38,88.56422878662124,89.12003202736378,"[49, 0, 205]",205,a,0.03237728541716933,colour,0.5
040,70,1,1,1,39,39,89.62673410354182,90.55218734126538,"[50, 0, 204]",204,a,0.4026523157954216,colour,0.5
040,70,1,1,1,40,40,91.06426502065733,91.8798510003835,"[88, 0, 166]",166,l,0.2922226460650563,colour,0.5
040,70,1,1,1,41,41,92.39405111502856,93.06389283621684,"[83, 0, 171]",171,l,0.14663828909397125,colour,0.5
040,70,1,1,1,42,42,93.58143749041483,94.53594907419756,"[69, 0, 185]",185,l,0.43118133302778006,colour,0.5
040,70,1,1,1,43,43,95.0502192932181,99.80817340547219,"[47, 0, 207]",207,a,4.234853079542518,colour,0.5
040,70,1,1,1,44,44,100.31606410862878,102.59190433938056,"[63, 0, 191]",191,l,1.7524552354589105,colour,0.5
040,70,1,1,1,45,45,103.09836223116145,103.83990793442354,"[99, 0, 155]",155,l,0.21851083682850003,colour,0.5
040,70,1,1,1,46,46,104.34837089572102,104.98384877247736,"[12, 0, 242]",242,a,0.11219646269455552,colour,0.5
040,70,1,1,1,47,47,105.50467692036182,106.39188850671053,"[8, 0, 246]",246,a,0.3640172122977674,colour,0.5
040,70,1,1,1,48,48,106.91073718480766,107.70390584878623,"[76, 0, 178]",178,l,0.269587533082813,colour,0.5
040,70,1,1,1,49,49,108.22334765875712,108.76018840027973,"[16, 0, 238]",238,a,0.013408484403043985,colour,0.5
040,70,1,1,1,50,50,109.270149551332,109.84791167126969,"[39, 0, 215]",215,a,0.05439681699499488,colour,0.5
040,70,1,1,2,1,51,115.8186095347628,116.67182946158573,"[69, 0, 185]",185,l,0.3289731964468956,colour,0.5
040,70,1,1,2,2,52,117.17868434963748,117.9198795305565,"[10, 0, 244]",244,a,0.21817921893671155,colour,0.5
040,70,1,1,2,3,53,118.42877690354362,119.03187119355425,"[36, 0, 218]",218,a,0.07983571896329522,colour,0.5
040,70,1,1,2,4,54,119.53812861721963,120.10387174179778,"[26, 0, 228]",228,a,0.04259286122396588,colour,0.5
040,70,1,1,2,5,55,120.61636098986492,121.38389816088602,"[60, 0, 194]",194,l,0.24437824357300997,colour,0.5
040,70,1,1,2,6,56,121.89749923581257,126.41586112044752,"[20, 0, 234]",234,a,3.9934885455295444,colour,0.5
040,70,1,1,2,7,57,126.93021483486518,127.96787871420383,"[59, 0, 195]",195,l,0.5140764471143484,colour,0.5
040,70,1,1,2,8,58,128.47718450566754,129.14384592091665,"[90, 0, 164]",164,l,0.1434233244508505,colour,0.5
040,70,1,1,2,9,59,129.6646752501838,130.22389589250088,"[54, 0, 200]",200,a,0.035984520334750414,colour,0.5
040,70,1,1,2,10,60,130.74278553016484,131.51183585776016,"[11, 0, 243]",243,a,0.2451627845875919,colour,0.5
040,70,1,1,2,11,61,132.01867735525593,132.63982790522277,"[76, 0, 178]",178,l,0.09147819830104709,colour,0.5
040,70,1,1,2,12,62,133.15001827431843,134.1358654210344,"[71, 0, 183]",183,l,0.46262835431843996,colour,0.5
040,70,1,1,2,13,63,134.6499942499213,141.83206252381206,"[0, 0, 254]",254,l,6.658787253778428,colour,0.5
040,70,1,1,2,14,64,142.35437822761014,143.0878445757553,"[58, 0, 196]",196,l,0.2101053772494197,colour,0.5
040,70,1,1,2,15,65,143.6044755075127,144.14387073321268,"[72, 0, 182]",182,l,0.016207940876483917,colour,0.5
040,70,1,1,2,16,66,144.6513478984125,145.2319654012099,"[3, 0, 251]",251,a,0.05746566457673907,colour,0.5
040,70,1,1,2,17,67,145.74502651346847,146.51191895920783,"[56, 0, 198]",198,a,0.24309509340673685,colour,0.5
040,70,1,1,2,18,68,147.0263124522753,150.00785092450678,"[17, 0, 237]",237,a,2.4578387942165136,colour,0.5
040,70,1,1,2,19,69,150.52632111683488,151.12782348133624,"[21, 0, 233]",233,a,0.0781658124178648,colour,0.5
040,70,1,1,2,20,70,151.63565747067332,152.23987934133038,"[79, 0, 175]",175,l,0.08126262295991182,colour,0.5
040,70,1,1,2,21,71,152.76063580904156,153.53585652029142,"[48, 0, 206]",206,a,0.2518518636934459,colour,0.5
040,70,1,1,2,22,72,154.0418922090903,154.64026625547558,"[42, 0, 212]",212,a,0.07494336506351829,colour,0.5
040,70,1,1,2,23,73,155.15157554112375,155.6878333906643,"[95, 0, 159]",159,l,0.013299389276653528,colour,0.5
040,70,1,1,2,24,74,156.1981919319369,157.16782680526376,"[78, 0, 176]",176,l,0.44636606238782406,colour,0.5
040,70,1,1,2,25,75,157.68397370027378,158.21587561396882,"[9, 0, 245]",245,a,0.008535034954547882,colour,0.5
040,70,1,1,2,26,76,158.73075629444793,159.45585105381906,"[62, 0, 192]",192,l,0.20184485334903002,colour,0.5
040,70,1,1,2,27,77,159.96502687595785,165.11183648789302,"[33, 0, 221]",221,a,4.623415558133274,colour,0.5
040,70,1,1,2,28,78,165.6213214788586,166.55194433871657,"[66, 0, 188]",188,l,0.4078684113919735,colour,0.5
040,70,1,1,2,29,79,167.058777959086,167.70382195943967,"[40, 0, 214]",214,a,0.12034395337104797,colour,0.5
040,70,1,1,2,30,80,168.216226530727,168.9678613850847,"[84, 0, 170]",170,l,0.22908638790249825,colour,0.5
040,70,1,1,2,31,81,169.4819976966828,173.56781908590347,"[5, 0, 249]",249,a,3.5625112242996693,colour,0.5
040,70,1,1,2,32,82,174.07575311232358,174.76782152801752,"[86, 0, 168]",168,l,0.16884568519890308,colour,0.5
040,70,1,1,2,33,83,175.2789299520664,175.88782165385783,"[45, 0, 209]",209,a,0.08592812158167362,colour,0.5
040,70,1,1,2,34,84,176.4038618169725,177.071821348276,"[68, 0, 186]",186,a,0.1447450714185834,colour,0.5
040,70,1,1,2,35,85,177.59128481987864,178.67202914133668,"[85, 0, 169]",169,l,0.5572935538366437,colour,0.5
040,70,1,1,2,36,86,179.18511230917647,179.91987480409443,"[8, 0, 246]",246,a,0.2116598873399198,colour,0.5
040,70,1,1,2,37,87,180.4350918289274,181.3199289184995,"[89, 0, 165]",165,l,0.36169194616377354,colour,0.5
040,70,1,1,2,38,88,181.8256180230528,182.35982196591794,"[6, 0, 248]",248,a,0.008455872070044279,colour,0.5
040,70,1,1,2,39,89,182.89074753504246,183.67985682887957,"[46, 0, 208]",208,a,0.26611578091979027,colour,0.5
040,70,1,1,2,40,90,184.18747617211193,185.02394268102944,"[49, 0, 205]",205,a,0.3132299934513867,colour,0.5
040,70,1,1,2,41,91,185.5311721167527,186.14397549629211,"[50, 0, 204]",204,a,0.09845596645027399,colour,0.5
040,70,1,1,2,42,92,186.6630069189705,187.43984554940835,"[96, 0, 158]",158,l,0.2597279944457114,colour,0.5
040,70,1,1,2,43,93,187.95412167627364,188.49585595307872,"[37, 0, 217]",217,a,0.018350856844335794,colour,0.5
040,70,1,1,2,44,94,189.01635484583676,189.6238641482778,"[30, 0, 224]",224,a,0.08402663329616189,colour,0.5
040,70,1,1,2,45,95,190.14151159627363,190.81587269948795,"[83, 0, 171]",171,l,0.15153024904429913,colour,0.5
040,70,1,1,2,46,96,191.3290196703747,191.9998109540902,"[2, 0, 252]",252,a,0.1476103006862104,colour,0.5
040,70,1,1,2,47,97,192.51649505505338,193.0798991280608,"[7, 0, 247]",247,a,0.03984657349064946,colour,0.5
040,70,1,1,2,48,98,193.59456083038822,194.19981024507433,"[94, 0, 160]",160,l,0.08197627170011401,colour,0.5
040,70,1,1,2,49,99,194.72036073124036,195.33585565397516,"[93, 0, 161]",161,l,0.09363804943859577,colour,0.5
040,70,1,1,2,50,100,195.84458958078176,196.45581600163132,"[19, 0, 235]",235,a,0.08892016904428601,colour,0.5
040,70,1,1,3,1,101,201.70413585472852,203.4317823415622,"[81, 0, 173]",173,l,1.2036628457717597,colour,0.5
040,70,1,1,3,2,102,203.9392283926718,204.56781278457493,"[78, 0, 176]",176,l,0.10525138396769762,colour,0.5
040,70,1,1,3,3,103,205.07992354640737,207.75978392036632,"[98, 0, 156]",156,l,2.156510036904365,colour,0.5
040,70,1,1,3,4,104,208.26740759564564,209.09582822630182,"[69, 0, 185]",185,l,0.3051451244391501,colour,0.5
040,70,1,1,3,5,105,209.61098774988204,210.1679548053071,"[12, 0, 242]",242,a,0.03236665157601237,colour,0.5
040,70,1,1,3,6,106,210.68926777737215,216.68782945210114,"[28, 0, 226]",226,a,5.475200703833252,colour,0.5
040,70,1,1,3,7,107,217.20629413053393,217.9678326342255,"[25, 0, 229]",229,a,0.23839257284998894,colour,0.5
040,70,1,1,3,8,108,218.48751390259713,219.5278161559254,"[51, 0, 203]",203,a,0.5169889377430081,colour,0.5
040,70,1,1,3,9,109,220.03452965337783,220.5918192686513,"[46, 0, 208]",208,a,0.034209456760436296,colour,0.5
040,70,1,1,3,10,110,221.11246939795092,224.24787283828482,"[19, 0, 235]",235,a,2.6126265428029,colour,0.5
040,70,1,1,3,11,111,224.7546883416362,225.3358032722026,"[89, 0, 165]",165,l,0.057813036255538464,colour,0.5
040,70,1,1,3,12,112,225.8483610493131,226.3759361715056,"[4, 0, 250]",250,a,0.004209424834698439,colour,0.5
040,70,1,1,3,13,113,226.89532126812264,227.43979041092098,"[8, 0, 246]",246,a,0.020225169602781534,colour,0.5
040,70,1,1,3,14,114,227.95902387658134,231.15177640272304,"[13, 0, 241]",241,l,2.670141831971705,colour,0.5
040,70,1,1,3,15,115,231.66215306101367,232.75182035565376,"[52, 0, 202]",202,l,0.5662716655060649,colour,0.5
040,70,1,1,3,16,116,233.2715071379207,234.0562526192516,"[95, 0, 159]",159,l,0.26172046083956957,colour,0.5
040,70,1,1,3,17,117,234.56840315973386,235.12779669975862,"[15, 0, 239]",239,a,0.03621216304600239,colour,0.5
040,70,1,1,3,18,118,235.64654100872576,236.3757750885561,"[97, 0, 157]",157,l,0.20605703489854932,colour,0.5
040,70,1,1,3,19,119,236.89649335341528,237.6798300477676,"[47, 0, 207]",207,a,0.2586193182505667,colour,0.5
040,70,1,1,3,20,120,238.19542595231906,238.79234040575102,"[88, 0, 166]",166,l,0.07355663366615772,colour,0.5
040,70,1,1,3,21,121,239.30489581963047,240.0077697923407,"[74, 0, 180]",180,l,0.1795626264065504,colour,0.5
040,70,1,1,3,22,122,240.5115908854641,241.56777733843774,"[61, 0, 193]",193,l,0.5449842936359346,colour,0.5
040,70,1,1,3,23,123,242.07755416957662,242.84777894522995,"[68, 0, 186]",186,l,0.24426284665241838,colour,0.5
040,70,1,1,3,24,124,243.36171400174499,244.10383787099272,"[49, 0, 205]",205,l,0.21873887395486236,colour,0.5
040,70,1,1,3,25,125,244.61172542301938,248.40779988188297,"[34, 0, 220]",220,a,3.2724889959208667,colour,0.5
040,70,1,1,3,26,126,248.92195470444858,249.54396777693182,"[11, 0, 243]",243,a,0.09851268026977777,colour,0.5
040,70,1,1,3,27,127,250.06255060900003,250.62389486841857,"[24, 0, 230]",230,a,0.038307029753923416,colour,0.5
040,70,1,1,3,28,128,251.14052580017596,251.8799376464449,"[80, 0, 174]",174,l,0.2159216939471662,colour,0.5
040,70,1,1,3,29,129,252.39067782461643,257.5359089015983,"[90, 0, 164]",164,l,4.622362807393074,colour,0.5
040,70,1,1,3,30,130,258.0482796020806,258.7918165908195,"[16, 0, 238]",238,a,0.22014135913923383,colour,0.5
040,70,1,1,3,31,131,259.2982126483694,259.87179094320163,"[20, 0, 234]",234,a,0.05026734247803688,colour,0.5
040,70,1,1,3,32,132,260.3920078421943,261.1759112807922,"[60, 0, 194]",194,l,0.2607937413267791,colour,0.5
040,70,1,1,3,33,133,261.68901650374755,263.1677803318016,"[50, 0, 204]",204,a,0.9555733925662935,colour,0.5
040,70,1,1,3,34,134,263.6890291068703,264.8077768026851,"[65, 0, 189]",189,l,0.59613700164482,colour,0.5
040,70,1,1,3,35,135,265.3139109527692,268.7757815476507,"[85, 0, 169]",169,l,2.9387423866428435,colour,0.5
040,70,1,1,3,36,136,269.28404758591205,269.9038062845357,"[38, 0, 216]",216,a,0.09659780142828822,colour,0.5
040,70,1,1,3,37,137,270.4246990229003,270.99979047384113,"[22, 0, 232]",232,a,0.05188211100175977,colour,0.5
040,70,1,1,3,38,138,271.5182098601945,272.2797767207958,"[59, 0, 195]",195,a,0.238121606875211,colour,0.5
040,70,1,1,3,39,139,272.7995635396801,273.3357753092423,"[21, 0, 233]",233,a,0.01289845397695899,colour,0.5
040,70,1,1,3,40,140,273.8464489276521,278.2238565078005,"[82, 0, 172]",172,l,3.8540407018736005,colour,0.5
040,70,1,1,3,41,141,278.73847094830126,279.47180220717564,"[0, 0, 254]",254,a,0.21000494668260217,colour,0.5
040,70,1,1,3,42,142,279.9885477484204,280.7277417979203,"[58, 0, 196]",196,a,0.21668417984619737,colour,0.5
040,70,1,1,3,43,143,281.2384725236334,285.0397811951116,"[14, 0, 240]",240,a,3.277351811528206,colour,0.5
040,70,1,1,3,44,144,285.5508852866478,286.1597848655656,"[53, 0, 201]",201,a,0.08434210391715169,colour,0.5
040,70,1,1,3,45,145,286.675989262294,287.8159270500764,"[66, 0, 188]",188,l,0.6166807925328612,colour,0.5
040,70,1,1,3,46,146,288.3329124432057,288.9357716073282,"[39, 0, 215]",215,a,0.0802803710103035,colour,0.5
040,70,1,1,3,47,147,289.44152766512707,290.0957577279769,"[76, 0, 178]",178,l,0.1308706672862172,colour,0.5
040,70,1,1,3,48,148,290.61340950848535,291.16774409776554,"[23, 0, 231]",231,a,0.030981889460235834,colour,0.5
040,70,1,1,3,49,149,291.67596878204495,292.3837414099835,"[2, 0, 252]",252,a,0.18196823680773377,colour,0.5
040,70,1,1,3,50,150,292.8963803197257,293.5597704509273,"[1, 0, 253]",253,a,0.14015597896650434,colour,0.5
040,70,1,1,4,1,151,299.1122051277198,300.0639302516356,"[53, 0, 201]",201,l,0.42752329213544726,colour,0.5
040,70,1,1,4,2,152,300.5816808869131,301.19979527872056,"[24, 0, 230]",230,a,0.09427647339180112,colour,0.5
040,70,1,1,4,3,153,301.7081337845884,302.3278219848871,"[23, 0, 231]",231,a,0.09586682356894016,colour,0.5
040,70,1,1,4,4,154,302.8489470924251,303.4477941477671,"[14, 0, 240]",240,a,0.0759925707243383,colour,0.5
040,70,1,1,4,5,155,303.95825902791694,304.487745877821,"[90, 0, 164]",164,l,0.006033719517290592,colour,0.5
040,70,1,1,4,6,156,305.0051207845099,305.65575779089704,"[77, 0, 177]",177,l,0.12735362304374576,colour,0.5
040,70,1,1,4,7,157,306.1769151939079,306.71983691630885,"[51, 0, 203]",203,a,0.02024998189881444,colour,0.5
040,70,1,1,4,8,158,307.2431856780313,308.00775640131906,"[9, 0, 245]",245,a,0.2416236847639084,colour,0.5
040,70,1,1,4,9,159,308.5244566500187,309.1437848750502,"[17, 0, 237]",237,a,0.09599561104550958,colour,0.5
040,70,1,1,4,10,160,309.6652230899781,310.2798027144745,"[89, 0, 165]",165,l,0.09173695463687181,colour,0.5
040,70,1,1,4,11,161,310.79007579153404,311.4637898057699,"[61, 0, 193]",193,a,0.15036446461454034,colour,0.5
040,70,1,1,4,12,162,311.9776488500647,312.9039445244707,"[6, 0, 248]",248,l,0.4026330173946917,colour,0.5
040,70,1,1,4,13,163,313.4149529119022,315.89575371099636,"[43, 0, 211]",211,a,1.9574981178157032,colour,0.5
040,70,1,1,4,14,164,316.41494227806106,317.1277620415203,"[93, 0, 161]",161,l,0.1892736852169037,colour,0.5
040,70,1,1,4,15,165,317.63632267620414,318.4718845211901,"[60, 0, 194]",194,a,0.31244545243680477,colour,0.5
040,70,1,1,4,16,166,318.97997726732865,319.5197840621695,"[0, 0, 254]",254,l,0.01646906090900302,colour,0.5
040,70,1,1,4,17,167,320.026849264279,321.87176652485505,"[73, 0, 181]",181,l,1.3216110346838832,colour,0.5
040,70,1,1,4,18,168,322.38624902721494,323.0958179864101,"[68, 0, 186]",186,l,0.18635253002867103,colour,0.5
040,70,1,1,4,19,169,323.6048717163503,324.1757312929258,"[32, 0, 222]",222,a,0.047583676408976316,colour,0.5
040,70,1,1,4,20,170,324.6830497379415,325.4636929198168,"[40, 0, 214]",214,a,0.25729835871607065,colour,0.5
040,70,1,1,4,21,171,325.9799134642817,326.7277386467904,"[98, 0, 156]",156,l,0.22451935010030866,colour,0.5
040,70,1,1,4,22,172,327.245587350335,327.79175515053794,"[88, 0, 166]",166,l,0.023050226271152496,colour,0.5
040,70,1,1,4,23,173,328.3079012581147,329.0557185639627,"[8, 0, 246]",246,a,0.22461544862017035,colour,0.5
040,70,1,1,4,24,174,329.57364682434127,330.35976407071576,"[45, 0, 209]",209,a,0.2627129526808858,colour,0.5
040,70,1,1,4,25,175,330.87040893826634,331.71980343945324,"[71, 0, 183]",183,l,0.32624975219368935,colour,0.5
040,70,1,1,4,26,176,332.232206041459,338.8557724421844,"[18, 0, 236]",236,l,6.100371239241213,colour,0.5
040,70,1,1,4,27,177,339.3728228197433,340.09570495272055,"[12, 0, 242]",242,a,0.19982875604182482,colour,0.5
040,70,1,1,4,28,178,340.6071008844301,341.21573304152116,"[5, 0, 249]",249,a,0.08533065719529986,colour,0.5
040,70,1,1,4,29,179,341.7321678381413,342.29573260061443,"[91, 0, 163]",163,l,0.04030067753046751,colour,0.5
040,70,1,1,4,30,180,342.81023912737146,343.33579539554194,"[39, 0, 215]",215,a,0.0027084783650934696,colour,0.5
040,70,1,1,4,31,181,343.85706346901134,347.535745061934,"[97, 0, 157]",157,l,3.1553170774132013,colour,0.5
040,70,1,1,4,32,182,348.04584839148447,348.66423335531726,"[49, 0, 205]",205,a,0.09377983398735523,colour,0.5
040,70,1,1,4,33,183,349.1865990771912,351.78376401681453,"[35, 0, 219]",219,a,2.080199238844216,colour,0.5
040,70,1,1,4,34,184,352.2805029726587,356.07172209909186,"[19, 0, 235]",235,a,3.2679881248623133,colour,0.5
040,70,1,1,4,35,185,356.59299096046016,357.3357465583831,"[70, 0, 184]",184,l,0.21987866377457976,colour,0.5
040,70,1,1,4,36,186,357.84296772349626,358.54375155549496,"[65, 0, 189]",189,l,0.1766501353122294,colour,0.5
040,70,1,1,4,37,187,359.06159159448,359.6557672433555,"[29, 0, 225]",225,a,0.07081113336607814,colour,0.5
040,70,1,1,4,38,188,360.1710732774809,360.8557090330869,"[38, 0, 216]",216,a,0.16127084661275148,colour,0.5
040,70,1,1,4,39,189,361.37422806210816,367.08773469273,"[47, 0, 207]",207,a,5.190242546144873,colour,0.5
040,70,1,1,4,40,190,367.5941039691679,368.76772267278284,"[56, 0, 198]",198,a,0.6502010193653405,colour,0.5
040,70,1,1,4,41,191,369.28158368589357,375.31172865256667,"[78, 0, 176]",176,l,5.506735159084201,colour,0.5
040,70,1,1,4,42,192,375.8285710797645,376.41569806821644,"[95, 0, 159]",159,l,0.06390347005799413,colour,0.5
040,70,1,1,4,43,193,376.9224103842862,377.4477405846119,"[15, 0, 239]",239,a,0.002122041769325733,colour,0.5
040,70,1,1,4,44,194,377.9690744304098,378.58376984577626,"[2, 0, 252]",252,a,0.09151915833353996,colour,0.5
040,70,1,1,4,45,195,379.09427568595856,381.55172417871654,"[13, 0, 241]",241,a,1.933782685548067,colour,0.5
040,70,1,1,4,46,196,382.0629499689676,383.63186040194705,"[58, 0, 196]",196,l,1.0443860413506627,colour,0.5
040,70,1,1,4,47,197,384.1422748696059,384.7197664179839,"[82, 0, 172]",172,l,0.0539950942620635,colour,0.5
040,70,1,1,4,48,198,385.23610511561856,388.09571440471336,"[92, 0, 162]",162,l,2.336564970202744,colour,0.5
040,70,1,1,4,49,199,388.611083060503,389.72780481306836,"[57, 0, 197]",197,l,0.5929842651821673,colour,0.5
040,70,1,1,4,50,200,390.23602240812033,390.856139506679,"[69, 0, 185]",185,l,0.09695777669548988,colour,0.5
040,70,1,1,5,1,201,396.0477341255173,396.9036991582252,"[98, 0, 156]",156,l,0.3318372438661754,colour,0.4
040,70,1,1,5,2,202,397.42347810044885,398.11170415533707,"[71, 0, 183]",183,l,0.16491116397082806,colour,0.4
040,70,1,1,5,3,203,398.62658010981977,400.80773072270676,"[93, 0, 161]",161,l,1.6578676234930754,colour,0.4
040,70,1,1,5,4,204,401.31414765445516,401.90368655510247,"[35, 0, 219]",219,a,0.06635279767215252,colour,0.4
040,70,1,1,5,5,205,402.42578170541674,403.0476978919469,"[97, 0, 157]",157,l,0.0985678187571466,colour,0.4
040,70,1,1,5,6,206,403.56629056995735,404.1916922926903,"[86, 0, 168]",168,l,0.10562790045514703,colour,0.4
040,70,1,1,5,7,207,404.7036565444432,406.6716939783655,"[99, 0, 155]",155,l,1.4447229369543493,colour,0.4
040,70,1,1,5,8,208,407.18814334739,407.7357026054524,"[30, 0, 224]",224,a,0.024187653325498104,colour,0.4
040,70,1,1,5,9,209,408.25065654097125,408.8237342578359,"[2, 0, 252]",252,a,0.048919207882136106,colour,0.4
040,70,1,1,5,10,210,409.34426032565534,409.88768617110327,"[85, 0, 169]",169,l,0.020147582050412893,colour,0.4
040,70,1,1,5,11,211,410.40683023352176,410.97571546025574,"[41, 0, 213]",213,a,0.04565383121371269,colour,0.4
040,70,1,1,5,12,212,411.4850047104992,412.2316684415564,"[74, 0, 180]",180,l,0.223479597363621,colour,0.4
040,70,1,1,5,13,213,412.75074673164636,414.7277504624799,"[43, 0, 211]",211,l,1.4539802856743336,colour,0.4
040,70,1,1,5,14,214,415.23511341167614,415.86369898496196,"[20, 0, 234]",234,l,0.10554125439375639,colour,0.4
040,70,1,1,5,15,215,416.37556319963187,419.41570555139333,"[44, 0, 210]",210,a,2.516777442302555,colour,0.4
040,70,1,1,5,16,216,419.9236746295355,420.847676939331,"[76, 0, 178]",178,l,0.400041117798537,colour,0.4
040,70,1,1,5,17,217,421.3612701371312,421.90369403827935,"[70, 0, 184]",184,l,0.019175569992512465,colour,0.4
040,70,1,1,5,18,218,422.42366320826113,423.0076803890988,"[87, 0, 167]",167,l,0.06074679456651211,colour,0.4
040,70,1,1,5,19,219,423.5174430417828,424.07170988991857,"[49, 0, 205]",205,a,0.03096495382487774,colour,0.4
040,70,1,1,5,20,220,424.57992078969255,425.24769875826314,"[38, 0, 216]",216,a,0.14464464085176587,colour,0.4
040,70,1,1,5,21,221,425.7673981436528,426.37567859655246,"[39, 0, 215]",215,a,0.08501873118802905,colour,0.4
040,70,1,1,5,22,222,426.8923969618045,427.6077534868382,"[68, 0, 186]",186,l,0.1896375985816121,colour,0.4
040,70,1,1,5,23,223,428.1292401449755,430.17572420369834,"[88, 0, 166]",166,l,1.5232719616033137,colour,0.4
040,70,1,1,5,24,224,430.69167496357113,431.3277243110351,"[9, 0, 245]",245,a,0.1125607704743743,colour,0.4
040,70,1,1,5,25,225,431.84789237286896,432.4316949080676,"[23, 0, 231]",231,a,0.060405724216252565,colour,0.4
040,70,1,1,5,26,226,432.94171395432204,433.50373956700787,"[89, 0, 165]",165,l,0.038825724739581347,colour,0.4
040,70,1,1,5,27,227,434.0197801236063,434.7596669481136,"[12, 0, 242]",242,a,0.21701461635529995,colour,0.4
040,70,1,1,5,28,228,435.2697241976857,435.9356719641946,"[60, 0, 194]",194,a,0.14249975606799126,colour,0.4
040,70,1,1,5,29,229,436.44163754815236,437.1996570387855,"[69, 0, 185]",185,l,0.23468372598290443,colour,0.4
040,70,1,1,5,30,230,437.7085796184838,440.7917169476859,"[82, 0, 172]",172,l,2.559821256902069,colour,0.4
040,70,1,1,5,31,231,441.30217237537727,441.93563454877585,"[36, 0, 218]",218,a,0.11028709774836898,colour,0.4
040,70,1,1,5,32,232,442.4429852887988,443.1196511783637,"[51, 0, 203]",203,a,0.15344512788578868,colour,0.4
040,70,1,1,5,33,233,443.6304756398313,444.3596837259829,"[62, 0, 192]",192,a,0.205972358584404,colour,0.4
040,70,1,1,5,34,234,444.88050951063633,448.63969124061987,"[91, 0, 163]",163,l,3.23608502978459,colour,0.4
040,70,1,1,5,35,235,449.1474031372927,449.7836943063885,"[72, 0, 182]",182,l,0.11267656134441495,colour,0.4
040,70,1,1,5,36,236,450.3035658020526,450.85563774686307,"[48, 0, 206]",206,a,0.02873263554647565,colour,0.4
040,70,1,1,5,37,237,451.3662459864281,451.9916740972549,"[14, 0, 240]",240,a,0.10264688078314066,colour,0.4
040,70,1,1,5,38,238,452.5067371283658,454.60767747461796,"[13, 0, 241]",241,a,1.5776093075983226,colour,0.4
040,70,1,1,5,39,239,455.11599510675296,455.66363904159516,"[95, 0, 159]",159,l,0.024248305708169937,colour,0.4
040,70,1,1,5,40,240,456.1785027869046,458.5916609428823,"[50, 0, 204]",204,a,1.8898058496415615,colour,0.4
040,70,1,1,5,41,241,459.10325891757384,459.68766639987007,"[90, 0, 164]",164,l,0.06106187170371413,colour,0.4
040,70,1,1,5,42,242,460.1969950343482,462.70367308566347,"[92, 0, 162]",162,l,1.983467529527843,colour,0.4
040,70,1,1,5,43,243,463.2126811295748,463.91964676743373,"[73, 0, 181]",181,l,0.18371415603905916,colour,0.4
040,70,1,1,5,44,244,464.43134438525885,465.5356741696596,"[52, 0, 202]",202,a,0.5809168261475861,colour,0.4
040,70,1,1,5,45,245,466.05727701215073,469.22367376321927,"[66, 0, 188]",188,l,2.6436056750826538,colour,0.4
040,70,1,1,5,46,246,469.74398085288703,470.4877376072109,"[32, 0, 222]",222,a,0.2200499870814383,colour,0.4
040,70,1,1,5,47,247,470.9938816037029,471.775653548073,"[57, 0, 197]",197,a,0.25841530598700047,colour,0.4
040,70,1,1,5,48,248,472.2919918522239,475.775780366268,"[4, 0, 250]",250,a,2.960320023354143,colour,0.4
040,70,1,1,5,49,249,476.2920611691661,476.87162395287305,"[5, 0, 249]",249,a,0.0557488901540637,colour,0.4
040,70,1,1,5,50,250,477.3858252489008,478.3356386446394,"[55, 0, 199]",199,a,0.4268049169331789,colour,0.4
040,70,1,1,6,1,251,484.6833147960715,485.3117172312923,"[73, 0, 181]",181,l,0.10513362428173423,colour,0.28
040,70,1,1,6,2,252,485.82473502028733,487.82367596868426,"[88, 0, 166]",166,l,1.4757702052593231,colour,0.28
040,70,1,1,6,3,253,488.3403053251095,488.95163650857285,"[66, 0, 188]",188,l,0.08793358504772186,colour,0.28
040,70,1,1,6,4,254,489.4652986298315,490.04762463644147,"[71, 0, 183]",183,l,0.05935809435322881,colour,0.28
040,70,1,1,6,5,255,490.5589847280644,491.127656490542,"[21, 0, 233]",233,a,0.045193031430244446,colour,0.28
040,70,1,1,6,6,256,491.6371399066411,494.7436972837895,"[39, 0, 215]",215,a,2.583210190758109,colour,0.28
040,70,1,1,6,7,257,495.26343841664493,495.8396531161852,"[86, 0, 168]",168,l,0.053011266980320215,colour,0.28
040,70,1,1,6,8,258,496.35719737643376,496.91965149343014,"[28, 0, 226]",226,a,0.039122290443629026,colour,0.28
040,70,1,1,6,9,259,497.43526984751225,498.0236693522893,"[16, 0, 238]",238,a,0.06548869982361794,colour,0.28
040,70,1,1,6,10,260,498.54470426915213,499.21562709705904,"[54, 0, 200]",200,a,0.14786314964294434,colour,0.28
040,70,1,1,6,11,261,499.7321930443868,502.01592594757676,"[81, 0, 173]",173,l,1.7604538523592055,colour,0.28
040,70,1,1,6,12,262,502.5290481057018,503.119618489407,"[82, 0, 172]",172,l,0.06684904359281063,colour,0.28
040,70,1,1,6,13,263,503.6384561397135,504.24762865388766,"[72, 0, 182]",182,l,0.08585171587765217,colour,0.28
040,70,1,1,6,14,264,504.7634368413128,505.39961025025696,"[0, 0, 254]",254,a,0.11293965065851808,colour,0.28
040,70,1,1,6,15,265,505.9199965028092,506.4716793275438,"[85, 0, 169]",169,l,0.02868970623239875,colour,0.28
040,70,1,1,6,16,266,506.9822087981738,509.9837365266867,"[58, 0, 196]",196,a,2.4789729602634907,colour,0.28
040,70,1,1,6,17,267,510.497826364357,511.09593968465924,"[95, 0, 159]",159,l,0.07448729127645493,colour,0.28
040,70,1,1,6,18,268,511.6072816597298,512.431613381952,"[74, 0, 180]",180,l,0.3010814222507179,colour,0.28
040,70,1,1,6,19,269,512.9479745291173,513.9196495241486,"[56, 0, 198]",198,a,0.4485018886625767,colour,0.28
040,70,1,1,6,20,270,514.4324353383854,515.1757273548283,"[36, 0, 218]",218,a,0.2199913039803505,colour,0.28
040,70,1,1,6,21,271,515.682468815241,516.3596691535786,"[96, 0, 158]",158,l,0.15423203213140368,colour,0.28
040,70,1,1,6,22,272,516.869931596797,517.4476141599007,"[97, 0, 157]",157,l,0.0647529955022037,colour,0.28
040,70,1,1,6,23,273,517.9688625414856,518.5676473691128,"[35, 0, 219]",219,a,0.07554910006001592,colour,0.28
040,70,1,1,6,24,274,519.0784127535298,519.9357416746207,"[94, 0, 160]",160,l,0.3340561715885997,colour,0.28
040,70,1,1,6,25,275,520.453414328862,521.455757712014,"[77, 0, 177]",177,l,0.4790517291985452,colour,0.28
040,70,1,1,6,26,276,521.9688649047166,524.9916469217278,"[23, 0, 231]",231,a,2.4996262402273715,colour,0.28
040,70,1,1,6,27,277,525.5002800244838,526.5116605963558,"[63, 0, 191]",191,a,0.4881554781459272,colour,0.28
040,70,1,1,6,28,278,527.0315643874928,528.1356318704784,"[62, 0, 192]",192,a,0.5789452330209315,colour,0.28
040,70,1,1,6,29,279,528.6426978604868,529.3676413828507,"[60, 0, 194]",194,a,0.20173339499160647,colour,0.28
040,70,1,1,6,30,280,529.8770180665888,530.5436227680184,"[79, 0, 175]",175,l,0.14328153990209103,colour,0.28
040,70,1,1,6,31,281,531.0646104235202,531.8396633560769,"[49, 0, 205]",205,a,0.25206296471878886,colour,0.28
040,70,1,1,6,32,282,532.3457463062368,535.3196134478785,"[15, 0, 239]",239,a,2.4506073892116547,colour,0.28
040,70,1,1,6,33,283,535.8301633987576,536.6236124807037,"[92, 0, 162]",162,l,0.2696556681767106,colour,0.28
040,70,1,1,6,34,284,537.142651386559,537.6876179566607,"[89, 0, 165]",165,l,0.020465415436774492,colour,0.28
040,70,1,1,6,35,285,538.206404407043,538.9277020981535,"[98, 0, 156]",156,l,0.19771734811365604,colour,0.28
040,70,1,1,6,36,286,539.440847099293,540.1116608325392,"[26, 0, 228]",228,a,0.14775681123137474,colour,0.28
040,70,1,1,6,37,287,540.6282622255385,543.21562118968,"[52, 0, 202]",202,a,2.064006657805294,colour,0.28
040,70,1,1,6,38,288,543.7219455675222,544.3595998366363,"[87, 0, 167]",167,l,0.11398649262264371,colour,0.28
040,70,1,1,6,39,289,544.8782007857226,548.5757149090059,"[67, 0, 187]",187,l,3.1741716633550823,colour,0.28
040,70,1,1,6,40,290,549.0969455675222,549.623640443664,"[50, 0, 204]",204,a,0.003300822339951992,colour,0.28
040,70,1,1,6,41,291,550.1438148072921,552.3356331307441,"[55, 0, 199]",199,a,1.6684179678559303,colour,0.28
040,70,1,1,6,42,292,552.8468230813742,553.5036190501414,"[76, 0, 178]",178,l,0.13336213678121567,colour,0.28
040,70,1,1,6,43,293,554.0187706965953,555.327640815638,"[38, 0, 216]",216,a,0.7858234373852611,colour,0.28
040,70,1,1,6,44,294,555.8469861336052,556.4716044967063,"[80, 0, 174]",174,l,0.10139957070350647,colour,0.28
040,70,1,1,6,45,295,556.9875414720736,557.8638021727093,"[68, 0, 186]",186,l,0.3529899208806455,colour,0.28
040,70,1,1,6,46,296,558.3782181148417,558.9676518589258,"[70, 0, 184]",184,l,0.06669386802241206,colour,0.28
040,70,1,1,6,47,297,559.4876198470592,560.1116119953804,"[8, 0, 246]",246,a,0.10068867867812514,colour,0.28
040,70,1,1,6,48,298,560.6282192966901,561.3436085106805,"[78, 0, 176]",176,l,0.19216293888166547,colour,0.28
040,70,1,1,6,49,299,561.8625001180917,562.5116294822656,"[5, 0, 249]",249,a,0.12364674545824528,colour,0.28
040,70,1,1,6,50,300,563.0208639875054,564.4636098183692,"[61, 0, 193]",193,a,0.9194502383470535,colour,0.28
040,70,1,1,7,1,301,569.9072768548504,570.6715986677445,"[83, 0, 171]",171,l,0.2402452239766717,colour,0.14
040,70,1,1,7,2,302,571.1893410328776,571.8480069818906,"[58, 0, 196]",196,l,0.13598987646400928,colour,0.14
040,70,1,1,7,3,303,572.3610850297846,574.3116349172778,"[94, 0, 160]",160,l,1.4271704060956836,colour,0.14
040,70,1,1,7,4,304,574.829950327985,575.8316269302741,"[54, 0, 200]",200,a,0.47845623455941677,colour,0.14
040,70,1,1,7,5,305,576.345507635735,576.8797974372283,"[42, 0, 212]",212,a,0.011409716680645943,colour,0.14
040,70,1,1,7,6,306,577.3938711271621,582.1996145034209,"[16, 0, 238]",238,a,4.282413518987596,colour,0.14
040,70,1,1,7,7,307,582.7063575396314,585.7436102437787,"[53, 0, 201]",201,a,2.5138783426955342,colour,0.14
040,70,1,1,7,8,308,586.2532917642966,587.1755954162218,"[71, 0, 183]",183,l,0.3996516037732363,colour,0.14
040,70,1,1,7,9,309,587.6921621509828,588.8076673136093,"[51, 0, 203]",203,a,0.5921536441892385,colour,0.14
040,70,1,1,7,10,310,589.317133794073,589.8396129440516,"[90, 0, 164]",164,l,0.007356647867709398,colour,0.14
040,70,1,1,7,11,311,590.3546649473719,591.063635260798,"[61, 0, 193]",193,a,0.1856676316820085,colour,0.14
040,70,1,1,7,12,312,591.5734345410019,592.1676019192673,"[26, 0, 228]",228,a,0.07104429043829441,colour,0.14
040,70,1,1,7,13,313,592.6827559289522,593.8156088227406,"[60, 0, 194]",194,l,0.6094895601272583,colour,0.14
040,70,1,1,7,14,314,594.3234794395976,594.9915992664173,"[75, 0, 179]",179,l,0.14487346494570374,colour,0.14
040,70,1,1,7,15,315,595.5108847199008,604.5435837772675,"[82, 0, 172]",172,l,8.509635440539569,colour,0.14
040,70,1,1,7,16,316,605.0590611342341,605.6796220969409,"[72, 0, 182]",182,l,0.09722953010350466,colour,0.14
040,70,1,1,7,17,317,606.1996168666519,606.767569466494,"[57, 0, 197]",197,l,0.04447308136150241,colour,0.14
040,70,1,1,7,18,318,607.2777661373839,607.8875991310924,"[80, 0, 174]",174,l,0.08648068737238646,colour,0.14
040,70,1,1,7,19,319,608.4028523894958,610.135560978204,"[52, 0, 202]",202,a,1.2096882946789265,colour,0.14
040,70,1,1,7,20,320,610.652767712716,614.1917029265314,"[45, 0, 209]",209,l,3.0156116583384573,colour,0.14
040,70,1,1,7,21,321,614.7009716965258,615.3755781659856,"[95, 0, 159]",159,l,0.151341597083956,colour,0.14
040,70,1,1,7,22,322,615.8883663429879,616.8316080253571,"[70, 0, 184]",184,l,0.41948647191748023,colour,0.14
040,70,1,1,7,23,323,617.3417412871495,619.8076334428042,"[15, 0, 239]",239,a,1.9428104213438928,colour,0.14
040,70,1,1,7,24,324,620.3262623548508,621.751576565206,"[29, 0, 225]",225,a,0.902085178066045,colour,0.14
040,70,1,1,7,25,325,622.2653970122337,622.9435516395606,"[99, 0, 155]",155,l,0.1549240192398429,colour,0.14
040,70,1,1,7,26,326,623.4529716460966,624.0315415444784,"[96, 0, 158]",158,l,0.055401911959052086,colour,0.14
040,70,1,1,7,27,327,624.5465789753944,625.1995384912007,"[63, 0, 191]",191,a,0.12959224311634898,colour,0.14
040,70,1,1,7,28,328,625.7185663692653,626.3355972911231,"[64, 0, 190]",190,a,0.0932182096876204,colour,0.14
040,70,1,1,7,29,329,626.8434438831173,627.8235747502185,"[73, 0, 181]",181,a,0.45676241302862763,colour,0.14
040,70,1,1,7,30,330,628.3434742093086,628.983557720203,"[98, 0, 156]",156,l,0.11688913684338331,colour,0.14
040,70,1,1,7,31,331,629.4997243080288,630.7115779672749,"[78, 0, 176]",176,a,0.6884733904153109,colour,0.14
040,70,1,1,7,32,332,631.2183863818645,637.4635787047446,"[92, 0, 162]",162,l,5.721879401244223,colour,0.14
040,70,1,1,7,33,333,637.9698759070598,638.6075987056829,"[86, 0, 168]",168,l,0.11445123096928,colour,0.14
040,70,1,1,7,34,334,639.1260744114406,640.89558514487,"[66, 0, 188]",188,a,1.2461446425877512,colour,0.14
040,70,1,1,7,35,335,641.4071890269406,642.7275783517398,"[68, 0, 186]",186,l,0.7968365508131683,colour,0.14
040,70,1,1,7,36,336,643.235427306965,644.1035751756281,"[65, 0, 189]",189,l,0.3449361654929817,colour,0.14
040,70,1,1,7,37,337,644.6104556638747,645.5995567655191,"[87, 0, 167]",167,l,0.4653561310842633,colour,0.14
040,70,1,1,7,38,338,646.1104840207845,647.0635769716464,"[50, 0, 204]",204,a,0.4292833893559873,colour,0.14
040,70,1,1,7,39,339,647.5805139215663,648.6475898204371,"[93, 0, 161]",161,l,0.5437011434696615,colour,0.14
040,70,1,1,7,40,340,649.1586214448325,651.1835518917069,"[81, 0, 173]",173,l,1.5015462394803762,colour,0.14
040,70,1,1,7,41,341,651.6899010813795,653.3275640155189,"[67, 0, 187]",187,l,1.1142444615252316,colour,0.14
040,70,1,1,7,42,342,653.8462331001647,654.6635153740644,"[89, 0, 165]",165,l,0.2939429646357894,colour,0.14
040,70,1,1,7,43,343,655.1744469613768,655.8398780021816,"[59, 0, 195]",195,a,0.14217010652646422,colour,0.14
040,70,1,1,7,44,344,656.3462011986412,657.2795817670412,"[77, 0, 177]",177,l,0.4096422931179404,colour,0.14
040,70,1,1,7,45,345,657.7993292016909,661.559540444985,"[43, 0, 211]",211,a,3.236867995467037,colour,0.14
040,70,1,1,7,46,346,662.080354413949,662.9995498340577,"[97, 0, 157]",157,l,0.3960167998448014,colour,0.14
040,70,1,1,7,47,347,663.5180101799779,664.1675294516608,"[62, 0, 192]",192,a,0.12625912530347705,colour,0.14
040,70,1,1,7,48,348,664.6742701246403,665.3915084456094,"[74, 0, 180]",180,l,0.1938667162321508,colour,0.14
040,70,1,1,7,49,349,665.9085651249625,666.5755550074391,"[76, 0, 178]",178,l,0.1436131582595408,colour,0.14
040,70,1,1,7,50,350,667.0960798938759,667.9996226956137,"[56, 0, 198]",198,a,0.37904716096818447,colour,0.14
040,70,1,1,8,1,351,673.721752976533,674.487836856395,"[69, 0, 185]",185,l,0.24197696475312114,colour,0.06
040,70,1,1,8,2,352,675.0037970682606,675.5995390429161,"[85, 0, 169]",169,l,0.0732573107816279,colour,0.06
040,70,1,1,8,3,353,676.1130826161243,676.6955775828101,"[88, 0, 166]",166,l,0.06275737844407558,colour,0.06
040,70,1,1,8,4,354,677.2031646305695,678.1357291503809,"[72, 0, 182]",182,l,0.4088931982405484,colour,0.06
040,70,1,1,8,5,355,678.6562953907996,679.3515437184833,"[78, 0, 176]",176,l,0.1718849940225482,colour,0.06
040,70,1,1,8,6,356,679.8594076400623,682.0635139564984,"[95, 0, 159]",159,l,1.6807772470638156,colour,0.06
040,70,1,1,8,7,357,682.5780051229522,683.1117147891782,"[82, 0, 172]",172,l,0.009258923586457968,colour,0.06
040,70,1,1,8,8,358,683.6250452920794,684.423530088272,"[71, 0, 183]",183,l,0.2751892036758363,colour,0.06
040,70,1,1,8,9,359,684.9374588429928,685.4795613656752,"[86, 0, 168]",168,l,0.019119250122457743,colour,0.06
040,70,1,1,8,10,360,686.0000161477365,687.8395014856942,"[98, 0, 156]",156,l,1.3159109028056264,colour,0.06
040,70,1,1,8,11,361,688.3606340759434,688.8875439926051,"[81, 0, 173]",173,l,0.003569031599909067,colour,0.06
040,70,1,1,8,12,362,689.4075781470165,690.1035535139963,"[2, 0, 252]",252,a,0.17268174374476075,colour,0.06
040,70,1,1,8,13,363,690.6107384450734,691.6235431637615,"[73, 0, 181]",181,a,0.4896312183700502,colour,0.06
040,70,1,1,8,14,364,692.1418274608441,692.703818414826,"[63, 0, 191]",191,a,0.03595576947554946,colour,0.06
040,70,1,1,8,15,365,693.2198503068648,693.7835190449841,"[66, 0, 188]",188,a,0.040143927093595266,colour,0.06
040,70,1,1,8,16,366,694.2981382114813,694.9595260298811,"[22, 0, 232]",232,a,0.13811309961602092,colour,0.06
040,70,1,1,8,17,367,695.4699534946121,696.1995089529082,"[92, 0, 162]",162,l,0.2064099214039743,colour,0.06
040,70,1,1,8,18,368,696.7198581839912,700.6876045661047,"[90, 0, 164]",164,l,3.4444819036871195,colour,0.06
040,70,1,1,8,19,369,701.2043304145336,702.071859551128,"[75, 0, 179]",179,l,0.34419573470950127,colour,0.06
040,70,1,1,8,20,370,702.5793221439235,703.3435974828899,"[68, 0, 186]",186,l,0.24039134103804827,colour,0.06
040,70,1,1,8,21,371,703.8604418793693,708.3755123936571,"[76, 0, 178]",178,l,3.9916926082223654,colour,0.06
040,70,1,1,8,22,372,708.8931098231114,709.5275384946726,"[74, 0, 180]",180,l,0.11114331940189004,colour,0.06
040,70,1,1,8,23,373,710.033739598468,710.8795851543546,"[67, 0, 187]",187,l,0.32248222175985575,colour,0.06
040,70,1,1,8,24,374,711.3929995461367,712.4315306744538,"[96, 0, 158]",158,l,0.5151225021108985,colour,0.06
040,70,1,1,8,25,375,712.9399550384842,713.7596181114204,"[91, 0, 163]",163,l,0.2955018072389066,colour,0.06
040,70,1,1,8,26,376,714.2680692570284,715.0235378076322,"[84, 0, 170]",170,l,0.2321682320907712,colour,0.06
040,70,1,1,8,27,377,715.5337470816448,716.4875005120412,"[79, 0, 175]",175,l,0.4305941089987755,colour,0.06
040,70,1,1,8,28,378,717.0024993461557,717.6555025787093,"[52, 0, 202]",202,a,0.12240573670715094,colour,0.06
040,70,1,1,8,29,379,718.1660741912201,718.9355471148156,"[77, 0, 177]",177,l,0.24596977466717362,colour,0.06
040,70,1,1,8,30,380,719.4474003016949,720.0875724283978,"[89, 0, 165]",165,l,0.11692182626575232,colour,0.06
040,70,1,1,8,31,381,720.6035609971732,721.2796499026008,"[21, 0, 233]",233,a,0.15317258657887578,colour,0.06
040,70,1,1,8,32,382,721.7911104247905,722.4715276965871,"[93, 0, 161]",161,l,0.15716342674568295,colour,0.06
040,70,1,1,8,33,383,722.979909919668,723.639499831479,"[83, 0, 171]",171,l,0.13653771625831723,colour,0.06
040,70,1,1,8,34,384,724.1517842793837,725.9434850793332,"[70, 0, 184]",184,l,1.2684319890104234,colour,0.06
040,70,1,1,8,35,385,726.4643029873259,727.0716279698536,"[55, 0, 199]",199,a,0.08407862111926079,colour,0.06
040,70,1,1,8,36,386,727.5890442305245,728.4875064194202,"[58, 0, 196]",196,a,0.37487396923825145,colour,0.06
040,70,1,1,8,37,387,728.9953545872122,729.6876203198917,"[87, 0, 167]",167,l,0.16883150627836585,colour,0.06
040,70,1,1,8,38,388,730.1985629349947,730.8715266729705,"[54, 0, 200]",200,a,0.14961655158549547,colour,0.06
040,70,1,1,8,39,389,731.3904127660207,732.0475049074739,"[50, 0, 204]",204,a,0.13381584733724594,colour,0.06
040,70,1,1,8,40,390,732.5623442339711,733.7997061121278,"[62, 0, 192]",192,a,0.7140064211562276,colour,0.06
040,70,1,1,8,41,391,734.3122780676931,735.1116068754345,"[57, 0, 197]",197,a,0.27633450739085674,colour,0.06
040,70,1,1,8,42,392,735.6248664860614,736.2315211431123,"[97, 0, 157]",157,l,0.08347564283758402,colour,0.06
040,70,1,1,8,43,393,736.750006695278,737.3038474018686,"[94, 0, 160]",160,l,0.030736129265278578,colour,0.06
040,70,1,1,8,44,394,737.813612811733,738.5677997875027,"[60, 0, 194]",194,a,0.2309414017945528,colour,0.06
040,70,1,1,8,45,395,739.0791980824433,739.8235129164532,"[61, 0, 193]",193,a,0.22087154956534505,colour,0.06
040,70,1,1,8,46,396,740.3448802391067,740.9514817269519,"[56, 0, 198]",198,a,0.083253120072186,colour,0.06
040,70,1,1,8,47,397,741.4699877593666,742.2635333333164,"[80, 0, 174]",174,l,0.27038782788440585,colour,0.06
040,70,1,1,8,48,398,742.782414700836,743.4634664584883,"[59, 0, 195]",195,a,0.1576919686049223,colour,0.06
040,70,1,1,8,49,399,743.9699393161573,744.6394576900639,"[53, 0, 201]",201,a,0.14627555664628744,colour,0.06
040,70,1,1,8,50,400,745.1573524731211,745.9038385800086,"[99, 0, 155]",155,l,0.22330039739608765,colour,0.06
040,70,1,1,9,1,401,751.5473154676147,752.6154980733991,"[86, 0, 168]",168,l,0.5444061276502907,colour,0.06
040,70,1,1,9,2,402,753.1273134509102,753.7435239916667,"[97, 0, 157]",157,l,0.09276804374530911,colour,0.06
040,70,1,1,9,3,403,754.2524591740221,754.9116414552554,"[50, 0, 204]",204,a,0.1357614458538592,colour,0.06
040,70,1,1,9,4,404,755.424135429319,756.1114698173478,"[58, 0, 196]",196,a,0.16380288172513247,colour,0.06
040,70,1,1,9,5,405,756.6273615001701,757.1516369809397,"[90, 0, 164]",164,l,0.000968466978520155,colour,0.06
040,70,1,1,9,6,406,757.6742973001674,758.2876103161834,"[16, 0, 238]",238,a,0.09002923918887973,colour,0.06
040,70,1,1,9,7,407,758.7991913557053,759.7354974118061,"[67, 0, 187]",187,l,0.412934057880193,colour,0.06
040,70,1,1,9,8,408,760.2524272724986,760.9835998620838,"[68, 0, 186]",186,l,0.20807825261726975,colour,0.06
040,70,1,1,9,9,409,761.5023748907261,762.3354972540401,"[61, 0, 193]",193,l,0.3097180691547692,colour,0.06
040,70,1,1,9,10,410,762.8462027739733,763.7195285349153,"[70, 0, 184]",184,l,0.34998763306066394,colour,0.06
040,70,1,1,9,11,411,764.2367671709508,765.0075039463118,"[98, 0, 156]",156,l,0.24754909705370665,colour,0.06
040,70,1,1,9,12,412,765.5180070293136,766.0635427068919,"[8, 0, 246]",246,a,0.022271986585110426,colour,0.06
040,70,1,1,9,13,413,766.5805233740248,767.4795495504513,"[66, 0, 188]",188,l,0.3756738705560565,colour,0.06
040,70,1,1,9,14,414,767.986723060254,768.7035572952591,"[99, 0, 155]",155,a,0.1935815718024969,colour,0.06
040,70,1,1,9,15,415,769.2211716598831,771.1755217672326,"[69, 0, 185]",185,l,1.430980471894145,colour,0.06
040,70,1,1,9,16,416,771.6898585464805,772.9594960976392,"[96, 0, 158]",158,l,0.7461320389993489,colour,0.06
040,70,1,1,9,17,417,773.4710731985979,774.2554945442826,"[92, 0, 162]",162,l,0.2610261105000973,colour,0.06
040,70,1,1,9,18,418,774.7679676446132,775.3595435167663,"[60, 0, 194]",194,a,0.06869578687474132,colour,0.06
040,70,1,1,9,19,419,775.8773323553614,777.255479184445,"[73, 0, 181]",181,l,0.8548232736065984,colour,0.06
040,70,1,1,9,20,420,777.7693319269456,778.4634282551706,"[27, 0, 227]",227,a,0.17106067389249802,colour,0.06
040,70,1,1,9,21,421,778.9724043980241,779.8476446438581,"[55, 0, 199]",199,a,0.3518662783317268,colour,0.06
040,70,1,1,9,22,422,780.3629955761135,781.1274485401809,"[79, 0, 175]",175,l,0.24106087908148766,colour,0.06
040,70,1,1,9,23,423,781.6441739946604,782.3275108463131,"[82, 0, 172]",172,l,0.15969191771000624,colour,0.06
040,70,1,1,9,24,424,782.84746583784,783.5674925879575,"[95, 0, 159]",159,l,0.19670988991856575,colour,0.06
040,70,1,1,9,25,425,784.0817557177506,784.7354974118061,"[91, 0, 163]",163,l,0.13114478439092636,colour,0.06
040,70,1,1,9,26,426,785.2536135362461,785.9034604877234,"[80, 0, 174]",174,l,0.12901092693209648,colour,0.06
040,70,1,1,9,27,427,786.4231421500444,787.5675110984594,"[59, 0, 195]",195,a,0.6209843470714986,colour,0.06
040,70,1,1,9,28,428,788.0794950420968,788.8234928301536,"[65, 0, 189]",189,a,0.22068171575665474,colour,0.06
040,70,1,1,9,29,429,789.3297025989741,790.0315671442077,"[52, 0, 202]",202,a,0.1791884722188115,colour,0.06
040,70,1,1,9,30,430,790.5481543592177,791.3914789073169,"[54, 0, 200]",200,a,0.31999350944533944,colour,0.06
040,70,1,1,9,31,431,791.907704571262,792.8714510542341,"[76, 0, 178]",178,l,0.4407742377370596,colour,0.06
040,70,1,1,9,32,432,793.3777388045564,794.0554901333526,"[71, 0, 183]",183,l,0.1545112687163055,colour,0.06
040,70,1,1,9,33,433,794.5651310877874,796.119505061768,"[56, 0, 198]",198,a,1.0310953170992434,colour,0.06
040,70,1,1,9,34,434,796.6274402691051,797.3435305291787,"[89, 0, 165]",165,l,0.19262688932940364,colour,0.06
040,70,1,1,9,35,435,797.8620054475032,798.5434758635238,"[83, 0, 171]",171,l,0.1581838820129633,colour,0.06
040,70,1,1,9,36,436,799.0650857952423,800.0634599993937,"[51, 0, 203]",203,a,0.47550750989466906,colour,0.06
040,70,1,1,9,37,437,800.5807900074869,801.1114902971312,"[64, 0, 190]",190,a,0.00749213108792901,colour,0.06
040,70,1,1,9,38,438,801.6432504262775,802.319536648225,"[93, 0, 161]",161,l,0.15336754033342004,colour,0.06
040,70,1,1,9,39,439,802.8318998655304,804.279521508608,"[78, 0, 176]",176,l,0.9242614600807428,colour,0.06
040,70,1,1,9,40,440,804.8007612251677,805.4314274867065,"[74, 0, 180]",180,l,0.10723951831459999,colour,0.06
040,70,1,1,9,41,441,805.9414500775747,806.5354406191036,"[77, 0, 177]",177,l,0.0707583581097424,colour,0.06
040,70,1,1,9,42,442,807.050614320673,807.6794480169192,"[81, 0, 173]",173,l,0.10516985785216093,colour,0.06
040,70,1,1,9,43,443,808.1913630375639,810.1275021028705,"[87, 0, 167]",167,l,1.4129116083495319,colour,0.06
040,70,1,1,9,44,444,810.6445119143464,811.7674769125879,"[57, 0, 197]",197,l,0.6000325316563249,colour,0.06
040,70,1,1,9,45,445,812.2850613454357,813.103645673953,"[75, 0, 179]",179,l,0.294320662971586,colour,0.06
040,70,1,1,9,46,446,813.6145721413195,814.1595591916703,"[84, 0, 170]",170,l,0.022543740458786488,colour,0.06
040,70,1,1,9,47,447,814.6769943567924,815.223466206342,"[88, 0, 166]",166,l,0.023646509274840355,colour,0.06
040,70,1,1,9,48,448,815.7395236985758,816.4154747575521,"[94, 0, 160]",160,l,0.15189731353893876,colour,0.06
040,70,1,1,9,49,449,816.9270459506661,817.7674190173857,"[62, 0, 192]",192,a,0.31695735128596425,colour,0.06
040,70,1,1,9,50,450,818.2864118432626,819.0234417091124,"[72, 0, 182]",182,a,0.21423839638009667,colour,0.06
040,70,1,1,10,1,451,824.0043386067264,824.7274775272235,"[5, 0, 249]",249,a,0.19907887326553464,colour,0.06
040,70,1,1,10,2,452,825.2395197600126,826.0235177213326,"[70, 0, 184]",184,a,0.2607496306300163,colour,0.06
040,70,1,1,10,3,453,826.5362460338511,827.1994908358902,"[83, 0, 171]",171,l,0.14048641547560692,colour,0.06
040,70,1,1,10,4,454,827.7103334143758,828.3194448822178,"[82, 0, 172]",172,l,0.08611913723871112,colour,0.06
040,70,1,1,10,5,455,828.8350813528523,829.4634668524377,"[75, 0, 179]",179,l,0.10518285492435098,colour,0.06
040,70,1,1,10,6,456,829.975676076021,831.0715744066983,"[65, 0, 189]",189,l,0.571850492618978,colour,0.06
040,70,1,1,10,7,457,831.5850553587079,832.2877465868369,"[67, 0, 187]",187,l,0.17970322910696268,colour,0.06
040,70,1,1,10,8,458,832.8049289030023,833.8154670381919,"[69, 0, 185]",185,l,0.4871436874382198,colour,0.06
040,70,1,1,10,9,459,834.3362880968489,834.8953901911154,"[94, 0, 160]",160,a,0.03596443450078368,colour,0.06
040,70,1,1,10,10,460,835.4143735645339,836.7995099769905,"[79, 0, 175]",175,l,0.861842789221555,colour,0.06
040,70,1,1,10,11,461,837.3206658042036,839.6314803408459,"[98, 0, 156]",156,l,1.7878545010462403,colour,0.06
040,70,1,1,10,12,462,840.1487918379717,840.8794571543112,"[76, 0, 178]",178,l,0.2111014137044549,colour,0.06
040,70,1,1,10,13,463,841.3953960984945,842.0875180773437,"[80, 0, 174]",174,l,0.168759826105088,colour,0.06
040,70,1,1,10,14,464,842.5872746808454,843.7034726180136,"[93, 0, 161]",161,l,0.5926199574023485,colour,0.06
040,70,1,1,10,15,465,844.2122423853725,845.0477754794993,"[68, 0, 186]",186,a,0.3120909910649061,colour,0.06
040,70,1,1,10,16,466,845.5560545143671,847.82345265802,"[55, 0, 199]",199,a,1.744090735912323,colour,0.06
040,70,1,1,10,17,467,848.3371986686252,849.1913787913509,"[53, 0, 201]",201,a,0.33073644433170557,colour,0.06
040,70,1,1,10,18,468,849.7122695608996,850.3354287249967,"[77, 0, 177]",177,a,0.10016250098124146,colour,0.06
040,70,1,1,10,19,469,850.8529355698265,851.7355029252358,"[78, 0, 176]",176,l,0.3593989750370383,colour,0.06
040,70,1,1,10,20,470,852.2437914130278,853.0394259458408,"[52, 0, 202]",202,l,0.2728434572927654,colour,0.06
040,70,1,1,10,21,471,853.5558449886739,854.1914311731234,"[92, 0, 162]",162,a,0.11206334317103028,colour,0.06
040,70,1,1,10,22,472,854.7123684161343,855.3114360254258,"[62, 0, 192]",192,l,0.07586969062685966,colour,0.06
040,70,1,1,10,23,473,855.8216492375359,857.0634785103612,"[51, 0, 203]",203,a,0.7185431327670813,colour,0.06
040,70,1,1,10,24,474,857.5729296305217,863.0714357732795,"[74, 0, 180]",180,l,4.975036470219493,colour,0.06
040,70,1,1,10,25,475,863.5884239231236,864.3834342104383,"[57, 0, 197]",197,a,0.27141891652718186,colour,0.06
040,70,1,1,10,26,476,864.9010635414161,865.4714103308506,"[88, 0, 166]",166,l,0.047046470921486616,colour,0.06
040,70,1,1,10,27,477,865.9791730339639,866.6154354517348,"[30, 0, 224]",224,a,0.11334728077054024,colour,0.06
040,70,1,1,10,28,478,867.1354609415866,867.7754070004448,"[60, 0, 194]",194,a,0.11601755628362298,colour,0.06
040,70,1,1,10,29,479,868.2916310890578,868.8234172118828,"[58, 0, 196]",196,a,0.008393250405788422,colour,0.06
040,70,1,1,10,30,480,869.3385731908493,869.9274067138322,"[97, 0, 157]",157,l,0.06557298311963677,colour,0.06
040,70,1,1,10,31,481,870.4479386890307,873.4718849151395,"[64, 0, 190]",190,a,2.5006281845271587,colour,0.06
040,70,1,1,10,32,482,873.9803250329569,874.9514423422515,"[90, 0, 164]",164,l,0.4476377908140421,colour,0.06
040,70,1,1,10,33,483,875.4647878115065,875.9915401893668,"[95, 0, 159]",159,l,0.003461905289441347,colour,0.06
040,70,1,1,10,34,484,876.5272797378711,877.2553728460334,"[59, 0, 195]",195,a,0.20482941763475537,colour,0.06
040,70,1,1,10,35,485,877.7615763130598,878.471453259699,"[54, 0, 200]",200,a,0.18686610460281372,colour,0.06
040,70,1,1,10,36,486,878.9803955317475,879.7834335803054,"[56, 0, 198]",198,a,0.27964202547445893,colour,0.06
040,70,1,1,10,37,487,880.2943821027875,880.9913976173848,"[96, 0, 158]",158,l,0.1736411526799202,colour,0.06
040,70,1,1,10,38,488,881.4975132569671,882.5114475255832,"[63, 0, 191]",191,l,0.4903625901788473,colour,0.06
040,70,1,1,10,39,489,883.0287668998353,883.9034285861999,"[86, 0, 168]",168,l,0.3513696384616196,colour,0.06
040,70,1,1,10,40,490,884.4193624104373,885.0954580111429,"[73, 0, 181]",181,l,0.15301701705902815,colour,0.06
040,70,1,1,10,41,491,885.6068342505023,886.2393736429513,"[84, 0, 170]",170,l,0.10914100613445044,colour,0.06
040,70,1,1,10,42,492,886.7475735154003,887.7836222322658,"[61, 0, 193]",193,l,0.5127838444896042,colour,0.06
040,70,1,1,10,43,493,888.2943281461485,889.5994110428728,"[44, 0, 210]",210,a,0.7820594520308077,colour,0.06
040,70,1,1,10,44,494,890.1068555181846,891.1834030179307,"[85, 0, 169]",169,l,0.5531814089044929,colour,0.06
040,70,1,1,10,45,495,891.7006125091575,892.4554000999779,"[81, 0, 173]",173,l,0.23127656476572156,colour,0.06
040,70,1,1,10,46,496,892.967540006619,893.8713848884217,"[66, 0, 188]",188,l,0.38064184319227934,colour,0.06
040,70,1,1,10,47,497,894.3894175174646,895.1193991173059,"[99, 0, 155]",155,l,0.21034207893535495,colour,0.06
040,70,1,1,10,48,498,895.635883144103,896.2233760156669,"[89, 0, 165]",165,l,0.06455134646967053,colour,0.06
040,70,1,1,10,49,499,896.7296066582203,897.5753821092658,"[71, 0, 183]",183,l,0.322403846308589,colour,0.06
040,70,1,1,10,50,500,898.0932831941172,898.7993973367848,"[50, 0, 204]",204,a,0.18215255672112107,colour,0.06
040,70,1,1,11,1,501,904.2642938499339,905.0713782715611,"[96, 0, 158]",158,l,0.28313031885772943,colour,0.06
040,70,1,1,11,2,502,905.5776707478799,906.1514487229288,"[95, 0, 159]",159,l,0.05059620412066579,colour,0.06
040,70,1,1,11,3,503,906.6714155296795,907.823423513677,"[97, 0, 157]",157,l,0.6290522809140384,colour,0.06
040,70,1,1,11,4,504,908.3444107747637,908.9915161649697,"[3, 0, 251]",251,a,0.12318988423794508,colour,0.06
040,70,1,1,11,5,505,909.500675839372,910.1033707698807,"[88, 0, 166]",166,l,0.07937098108232021,colour,0.06
040,70,1,1,11,6,506,910.610114199575,911.7353946180083,"[75, 0, 179]",179,l,0.6024503521621227,colour,0.06
040,70,1,1,11,7,507,912.2506671748124,914.2394291753881,"[78, 0, 176]",176,a,1.464889817405492,colour,0.06
040,70,1,1,11,8,508,914.7507203440182,917.8153945705853,"[84, 0, 170]",170,l,2.5418287999927998,colour,0.06
040,70,1,1,11,9,509,918.3300405186601,919.1034428435378,"[76, 0, 178]",178,l,0.25056044291704893,colour,0.06
040,70,1,1,11,10,510,919.6111909742467,920.407375710085,"[57, 0, 197]",197,a,0.2728091925382614,colour,0.06
040,70,1,1,11,11,511,920.9238963648677,921.6154035502113,"[93, 0, 161]",161,l,0.16834628814831376,colour,0.06
040,70,1,1,11,12,512,922.1268439865671,923.0153974061832,"[56, 0, 198]",198,a,0.3652227749116719,colour,0.06
040,70,1,1,11,13,513,923.5331610389985,924.9033939279616,"[80, 0, 174]",174,l,0.8455871930345893,colour,0.06
040,70,1,1,11,14,514,925.4236167343333,926.1193695785478,"[98, 0, 156]",156,l,0.1721744704991579,colour,0.06
040,70,1,1,11,15,515,926.6269081835635,929.0634245532565,"[85, 0, 169]",169,l,1.9257064806297421,colour,0.06
040,70,1,1,11,16,516,929.5806734291837,930.263376976829,"[82, 0, 172]",172,l,0.15928940754383802,colour,0.06
040,70,1,1,11,17,517,930.7839904781431,931.3513684570789,"[92, 0, 162]",162,l,0.044078053906559944,colour,0.06
040,70,1,1,11,18,518,931.8619967829436,932.471396939829,"[70, 0, 184]",184,l,0.08598129078745842,colour,0.06
040,70,1,1,11,19,519,932.9870558599941,933.7435224158689,"[72, 0, 182]",182,l,0.23297522217035294,colour,0.06
040,70,1,1,11,20,520,934.2526442813687,934.8794008344412,"[99, 0, 155]",155,l,0.10365748964250088,colour,0.06
040,70,1,1,11,21,521,935.3932697246782,936.4634420401417,"[50, 0, 204]",204,a,0.5472032213583589,colour,0.06
040,70,1,1,11,22,522,936.9715115493163,937.9833856099285,"[68, 0, 186]",186,a,0.4889561668969691,colour,0.06
040,70,1,1,11,23,523,938.5026836660691,939.3674239800312,"[61, 0, 193]",193,a,0.3419200936332345,colour,0.06
040,70,1,1,11,24,524,939.8776135616936,940.4633998987265,"[54, 0, 200]",200,a,0.06233832659199834,colour,0.06
040,70,1,1,11,25,525,940.9713847306557,941.6634283340536,"[89, 0, 165]",165,l,0.16877085389569402,colour,0.06
040,70,1,1,11,26,526,942.1745840199292,942.8793736589141,"[42, 0, 212]",212,a,0.18147947452962399,colour,0.06
040,70,1,1,11,27,527,943.3932334906422,944.5673960954882,"[64, 0, 190]",190,l,0.6508737076073885,colour,0.06
040,70,1,1,11,28,528,945.080751016736,945.9593771561049,"[60, 0, 194]",194,l,0.3556779189966619,colour,0.06
040,70,1,1,11,29,529,946.4714300232008,947.5833374029025,"[51, 0, 203]",203,l,0.5886086369864643,colour,0.06
040,70,1,1,11,30,530,948.0976190436631,948.9353683087975,"[55, 0, 199]",199,l,0.31519685965031385,colour,0.06
040,70,1,1,11,31,531,949.4415678377263,955.4794050091878,"[71, 0, 183]",183,l,5.517995214089751,colour,0.06
040,70,1,1,11,32,532,956.0005462644622,957.2313620294444,"[69, 0, 185]",185,a,0.7074425853788853,colour,0.06
040,70,1,1,11,33,533,957.7504907320254,958.8074136767536,"[83, 0, 171]",171,l,0.533486355561763,colour,0.06
040,70,1,1,11,34,534,959.3287215288728,960.0794158792123,"[28, 0, 226]",226,a,0.22766066575422883,colour,0.06
040,70,1,1,11,35,535,960.5942977410741,961.3513582171872,"[86, 0, 168]",168,l,0.2337172282859683,colour,0.06
040,70,1,1,11,36,536,961.8599613872357,962.4394068052061,"[91, 0, 163]",163,l,0.05621796101331711,colour,0.06
040,70,1,1,11,37,537,962.9550054664724,963.5833326769061,"[87, 0, 167]",167,l,0.1050989655777812,colour,0.06
040,70,1,1,11,38,538,964.0955521403812,964.7354355775751,"[63, 0, 191]",191,a,0.1162719801068306,colour,0.06
040,70,1,1,11,39,539,965.2518687988631,966.0073617678136,"[62, 0, 192]",192,a,0.23153453366830945,colour,0.06
040,70,1,1,11,40,540,966.5173599403352,967.3033574577421,"[81, 0, 173]",173,l,0.2625317834317684,colour,0.06
040,70,1,1,11,41,541,967.814332368318,971.327400569804,"[79, 0, 175]",175,l,2.9900849289260805,colour,0.06
040,70,1,1,11,42,542,971.8455430818722,973.239357101731,"[65, 0, 189]",189,l,0.8711080146022141,colour,0.06
040,70,1,1,11,43,543,973.7530905087478,974.471383549273,"[90, 0, 164]",164,a,0.1945098666474223,colour,0.06
040,70,1,1,11,44,544,974.9874666412361,976.1753752562217,"[73, 0, 181]",181,l,0.6649154964834452,colour,0.06
040,70,1,1,11,45,545,976.6906170933507,977.7833406324498,"[77, 0, 177]",177,l,0.5693814726546407,colour,0.06
040,70,1,1,11,46,546,978.3000349733047,979.0313178398646,"[59, 0, 195]",195,a,0.20803729258477688,colour,0.06
040,70,1,1,11,47,547,979.5499057918787,980.1353628737852,"[58, 0, 196]",196,a,0.06218196917325258,colour,0.06
040,70,1,1,11,48,548,980.6436407272704,981.3593792831525,"[67, 0, 187]",187,a,0.19251503702253103,colour,0.06
040,70,1,1,11,49,549,981.8780601825565,982.5113246454857,"[52, 0, 202]",202,a,0.11012995336204767,colour,0.06
040,70,1,1,11,50,550,983.0186793240719,983.7273660688661,"[53, 0, 201]",201,a,0.18549394607543945,colour,0.06
040,70,1,1,12,1,551,988.3473114501685,989.1273016356863,"[99, 0, 155]",155,l,0.25597070436924696,colour,0.06
040,70,1,1,12,2,552,989.6448707082309,993.5353516098112,"[67, 0, 187]",187,a,3.3674302813597023,colour,0.06
040,70,1,1,12,3,553,994.0512948865071,994.6633054544218,"[62, 0, 192]",192,a,0.08885872922837734,colour,0.06
040,70,1,1,12,4,554,995.1761188376695,995.823325839825,"[68, 0, 186]",186,a,0.12388265924528241,colour,0.06
040,70,1,1,12,5,555,996.3324414035305,996.9993210094981,"[89, 0, 165]",165,l,0.14347255509346724,colour,0.06
040,70,1,1,12,6,556,997.5198368374258,998.3433225788176,"[72, 0, 182]",182,l,0.30043827183544636,colour,0.06
040,70,1,1,12,7,557,998.8635867391713,1004.375328861177,"[54, 0, 200]",200,a,4.988391785416752,colour,0.06
040,70,1,1,12,8,558,1004.8833093610592,1005.5833417354152,"[84, 0, 170]",170,l,0.17619681917130947,colour,0.06
040,70,1,1,12,9,559,1006.1019958537072,1006.7193654826842,"[88, 0, 166]",166,l,0.09453207952901721,colour,0.06
040,70,1,1,12,10,560,1007.2297074827366,1008.4875938533805,"[4, 0, 250]",250,a,0.7339090309105814,colour,0.06
040,70,1,1,12,11,561,1008.9953136271797,1009.5993125811219,"[97, 0, 157]",157,l,0.08064782898873091,colour,0.06
040,70,1,1,12,12,562,1010.12029669201,1010.7273692195304,"[92, 0, 162]",162,l,0.08354771696031094,colour,0.06
040,70,1,1,12,13,563,1011.2453356827609,1011.9513222193345,"[98, 0, 156]",156,l,0.18279964569956064,colour,0.06
040,70,1,1,12,14,564,1012.4640343841165,1013.4313384774141,"[52, 0, 202]",202,a,0.44258277863264084,colour,0.06
040,70,1,1,12,15,565,1013.949818121735,1015.695480696857,"[66, 0, 188]",188,a,1.222381948493421,colour,0.06
040,70,1,1,12,16,566,1016.215368734207,1017.2473242105916,"[64, 0, 190]",190,l,0.5089592067524791,colour,0.06
040,70,1,1,12,17,567,1017.7622801158577,1018.6153031196445,"[74, 0, 180]",180,l,0.32969196513295174,colour,0.06
040,70,1,1,12,18,568,1019.1216322234832,1019.7673284327611,"[94, 0, 160]",160,l,0.12245614919811487,colour,0.06
040,70,1,1,12,19,569,1020.2778740511276,1020.9673678963445,"[50, 0, 204]",204,l,0.16631207428872585,colour,0.06
040,70,1,1,12,20,570,1021.4811095739715,1022.3193090050481,"[75, 0, 179]",179,l,0.3150145090185106,colour,0.06
040,70,1,1,12,21,571,1022.8420792073011,1023.5353878438473,"[53, 0, 201]",201,l,0.16988543840125203,colour,0.06
040,70,1,1,12,22,572,1024.0452773147263,1026.3033015313558,"[69, 0, 185]",185,l,1.734703417867422,colour,0.06
040,70,1,1,12,23,573,1026.8108137487434,1027.3754596179351,"[95, 0, 159]",159,l,0.04076423402875662,colour,0.06
040,70,1,1,12,24,574,1027.8889795606956,1028.4153629052453,"[96, 0, 158]",158,l,0.002813241444528103,colour,0.06
040,70,1,1,12,25,575,1028.9358401363716,1029.54336794978,"[86, 0, 168]",168,l,0.08434919314458966,colour,0.06
040,70,1,1,12,26,576,1030.0608661300503,1030.7593384804204,"[61, 0, 193]",193,a,0.1753169670701027,colour,0.06
040,70,1,1,12,27,577,1031.279423834756,1031.8873061095364,"[59, 0, 195]",195,a,0.08450358081609011,colour,0.06
040,70,1,1,12,28,578,1032.4044974842109,1033.1996609773487,"[93, 0, 161]",161,l,0.2701180432923138,colour,0.06
040,70,1,1,12,29,579,1033.7193245226517,1034.4233485250734,"[82, 0, 172]",172,l,0.18082332704216242,colour,0.06
040,70,1,1,12,30,580,1034.938113808632,1035.7194596119225,"[56, 0, 198]",198,a,0.25798680167645216,colour,0.06
040,70,1,1,12,31,581,1036.234792033676,1037.0393081861548,"[80, 0, 174]",174,l,0.28105987096205354,colour,0.06
040,70,1,1,12,32,582,1037.547497424297,1038.6473188544624,"[79, 0, 175]",175,a,0.5765270194970071,colour,0.06
040,70,1,1,12,33,583,1039.1568428366445,1045.3913583904505,"[63, 0, 191]",191,l,5.711136072408408,colour,0.06
040,70,1,1,12,34,584,1045.9083162141033,1048.3674992043525,"[90, 0, 164]",164,l,1.9362379205413163,colour,0.06
040,70,1,1,12,35,585,1048.8767900294624,1049.4312817635946,"[78, 0, 176]",176,l,0.03110988950356841,colour,0.06
040,70,1,1,12,36,586,1049.9394331928343,1050.9673399329185,"[91, 0, 163]",163,l,0.5045697940513492,colour,0.06
040,70,1,1,12,37,587,1051.4862921927124,1052.1353199444711,"[15, 0, 239]",239,a,0.12555729178711772,colour,0.06
040,70,1,1,12,38,588,1052.6424658847973,1053.4872649922036,"[87, 0, 167]",167,l,0.3307880386710167,colour,0.06
040,70,1,1,12,39,589,1053.9944069939665,1054.6233474225737,"[41, 0, 213]",213,a,0.1057050945237279,colour,0.06
040,70,1,1,12,40,590,1055.1351785538718,1055.9672753424384,"[51, 0, 203]",203,a,0.3093490358442068,colour,0.06
040,70,1,1,12,41,591,1056.478782338556,1060.407278036233,"[55, 0, 199]",199,a,3.4052635142579675,colour,0.06
040,70,1,1,12,42,592,1060.9232571530156,1062.4393244911917,"[60, 0, 194]",194,a,0.9931608657352626,colour,0.06
040,70,1,1,12,43,593,1062.9543871283531,1063.4952864521183,"[57, 0, 197]",197,a,0.01754544209688902,colour,0.06
040,70,1,1,12,44,594,1064.0013166270219,1064.7032922366634,"[77, 0, 177]",177,l,0.17869931599125266,colour,0.06
040,70,1,1,12,45,595,1065.2200724361464,1065.8873356478289,"[76, 0, 178]",178,l,0.14417556999251246,colour,0.06
040,70,1,1,12,46,596,1066.4076553406194,1067.015380077064,"[73, 0, 181]",181,l,0.08452248526737094,colour,0.06
040,70,1,1,12,47,597,1067.5325738145038,1068.1352722891606,"[71, 0, 183]",183,l,0.07972583593800664,colour,0.06
040,70,1,1,12,48,598,1068.64188890066,1069.5432403436862,"[65, 0, 189]",189,l,0.37826616410166025,colour,0.06
040,70,1,1,12,49,599,1070.0637754700147,1070.7033012951724,"[70, 0, 184]",184,l,0.11621802346780896,colour,0.06
040,70,1,1,12,50,600,1071.220047229901,1076.1273429892026,"[85, 0, 169]",169,l,4.384284917265177,colour,0.06
040,70,1,1,13,1,601,1082.4547967282124,1083.207278745249,"[61, 0, 193]",193,a,0.22699545975774527,colour,0.06
040,70,1,1,13,2,602,1083.7224772591144,1084.3673211862333,"[81, 0, 173]",173,l,0.12144947936758399,colour,0.06
040,70,1,1,13,3,603,1084.87885693321,1087.1913193208165,"[83, 0, 171]",171,l,1.7892061797901988,colour,0.06
040,70,1,1,13,4,604,1087.7070381054655,1088.2393697048537,"[77, 0, 177]",177,l,0.00891864113509655,colour,0.06
040,70,1,1,13,5,605,1088.7539010439068,1091.8872553035617,"[84, 0, 170]",170,l,2.6099936827085912,colour,0.06
040,70,1,1,13,6,606,1092.394582413137,1094.2072499943897,"[86, 0, 168]",168,l,1.28816327592358,colour,0.06
040,70,1,1,13,7,607,1094.723833664786,1096.0152950063348,"[63, 0, 191]",191,a,0.7680834354832768,colour,0.06
040,70,1,1,13,8,608,1096.536348827649,1097.447279390879,"[72, 0, 182]",182,l,0.3882785150781274,colour,0.06
040,70,1,1,13,9,609,1097.958215310704,1101.0153312399052,"[36, 0, 218]",218,l,2.534013321157545,colour,0.06
040,70,1,1,13,10,610,1101.5363838798366,1102.1753799826838,"[80, 0, 174]",174,l,0.1163373589515686,colour,0.06
040,70,1,1,13,11,611,1102.6925583598204,1103.3672735304572,"[91, 0, 163]",163,l,0.15140264248475432,colour,0.06
040,70,1,1,13,12,612,1103.8803373998962,1104.6793385278434,"[58, 0, 196]",196,a,0.27600840292871,colour,0.06
040,70,1,1,13,13,613,1105.1925575723872,1106.5993161257356,"[64, 0, 190]",190,a,0.8834806839004159,colour,0.06
040,70,1,1,13,14,614,1107.1144146029837,1109.5032827057876,"[54, 0, 200]",200,a,1.8661282267421484,colour,0.06
040,70,1,1,13,15,615,1110.0208068797365,1110.7112912475131,"[75, 0, 179]",179,l,0.16735143354162574,colour,0.06
040,70,1,1,13,16,616,1111.223897467833,1115.0872506559826,"[78, 0, 176]",176,l,3.3400721680372953,colour,0.06
040,70,1,1,13,17,617,1115.6053856853396,1116.303322011605,"[52, 0, 202]",202,a,0.17467499850317836,colour,0.06
040,70,1,1,13,18,618,1116.8240607562475,1117.4873157981783,"[95, 0, 159]",159,l,0.1400130125693977,colour,0.06
040,70,1,1,13,19,619,1117.9960501194,1118.735280008521,"[53, 0, 201]",201,a,0.21600164473056793,colour,0.06
040,70,1,1,13,20,620,1119.2467783405446,1120.3913205810823,"[67, 0, 187]",187,a,0.6218275711871684,colour,0.06
040,70,1,1,13,21,621,1120.9022427159362,1121.5032728593796,"[88, 0, 166]",166,l,0.07778338762000203,colour,0.06
040,70,1,1,13,22,622,1122.0116507499479,1122.5832661171444,"[55, 0, 199]",199,a,0.04842532565817237,colour,0.06
040,70,1,1,13,23,623,1123.0910670231096,1123.7272380688228,"[50, 0, 204]",204,a,0.11291365651413798,colour,0.06
040,70,1,1,13,24,624,1124.2472233860753,1128.8074341570027,"[59, 0, 195]",195,a,4.037343682721257,colour,0.06
040,70,1,1,13,25,625,1129.3253947123885,1130.255380722694,"[79, 0, 175]",175,l,0.40727330977097154,colour,0.06
040,70,1,1,13,26,626,1130.7628145646304,1131.5112352427095,"[71, 0, 183]",183,l,0.22534209489822388,colour,0.06
040,70,1,1,13,27,627,1132.028491601348,1133.2792355767451,"[51, 0, 203]",203,a,0.7274444443173707,colour,0.06
040,70,1,1,13,28,628,1133.7940745092928,1134.3192562297918,"[68, 0, 186]",186,a,0.0019192113541066647,colour,0.06
040,70,1,1,13,29,629,1134.840965804644,1135.6552556375973,"[74, 0, 180]",180,l,0.2908118898048997,colour,0.06
040,70,1,1,13,30,630,1136.169096564874,1136.7832413832657,"[70, 0, 184]",184,l,0.09092917712405324,colour,0.06
040,70,1,1,13,31,631,1137.2940914444625,1147.6472971928306,"[94, 0, 160]",160,l,9.828768002800643,colour,0.06
040,70,1,1,13,32,632,1148.1560460864566,1149.2072385731153,"[62, 0, 192]",192,a,0.5279654236510396,colour,0.06
040,70,1,1,13,33,633,1149.718399378471,1150.4312727050856,"[65, 0, 189]",189,a,0.18944697733968496,colour,0.06
040,70,1,1,13,34,634,1150.9539924948476,1151.583279113751,"[76, 0, 178]",178,l,0.1057649590075016,colour,0.06
040,70,1,1,13,35,635,1152.0966210383922,1153.8792326622643,"[82, 0, 172]",172,l,1.2612994397059083,colour,0.06
040,70,1,1,13,36,636,1154.39179595327,1154.991433063522,"[19, 0, 235]",235,a,0.07637460110709071,colour,0.06
040,70,1,1,13,37,637,1155.501229587011,1156.1192364585586,"[92, 0, 162]",162,a,0.09514096518978477,colour,0.06
040,70,1,1,13,38,638,1156.6261602700688,1157.1915099420585,"[97, 0, 157]",157,l,0.0419166274368763,colour,0.06
040,70,1,1,13,39,639,1157.704229196068,1161.4232354913838,"[99, 0, 155]",155,l,3.19583949027583,colour,0.06
040,70,1,1,13,40,640,1161.9386541652493,1162.5753710814752,"[73, 0, 181]",181,l,0.11344692343845963,colour,0.06
040,70,1,1,13,41,641,1163.0968990935944,1163.6634208508767,"[0, 0, 254]",254,a,0.043936269357800484,colour,0.06
040,70,1,1,13,42,642,1164.1742390110157,1164.8552060914226,"[96, 0, 158]",158,l,0.15758208511397243,colour,0.06
040,70,1,1,13,43,643,1165.3618270354345,1165.9672942468897,"[98, 0, 156]",156,l,0.0825327755883336,colour,0.06
040,70,1,1,13,44,644,1166.4868061617017,1167.1432299460284,"[85, 0, 169]",169,l,0.13324122596532106,colour,0.06
040,70,1,1,13,45,645,1167.6589203737676,1168.3912705625407,"[69, 0, 185]",185,l,0.2093058698810637,colour,0.06
040,70,1,1,13,46,646,1168.89824833069,1171.72721404396,"[87, 0, 167]",167,l,2.305674059316516,colour,0.06
040,70,1,1,13,47,647,1172.2420151676051,1172.9032482048497,"[90, 0, 164]",164,l,0.1378417401574552,colour,0.06
040,70,1,1,13,48,648,1173.4137501064688,1174.2232157206163,"[57, 0, 197]",197,a,0.28615032974630594,colour,0.06
040,70,1,1,13,49,649,1174.741850540042,1175.43125064997,"[60, 0, 194]",194,a,0.1656909789890051,colour,0.06
040,70,1,1,13,50,650,1175.9450710969977,1176.7752179540694,"[93, 0, 161]",161,l,0.30700250156223774,colour,0.06
040,70,1,1,14,1,651,1182.2568135345355,1182.9752566297539,"[81, 0, 173]",173,l,0.19329367019236088,colour,0.06
040,70,1,1,14,2,652,1183.4932077331468,1184.0792347099632,"[74, 0, 180]",180,l,0.0627695876173675,colour,0.06
040,70,1,1,14,3,653,1184.5869907177985,1185.351268419996,"[63, 0, 191]",191,l,0.24138068174943328,colour,0.06
040,70,1,1,14,4,654,1185.868214034941,1186.4152136375196,"[90, 0, 164]",164,l,0.02381546888500452,colour,0.06
040,70,1,1,14,5,655,1186.9306067116559,1187.6793846078217,"[62, 0, 192]",192,a,0.22531452542170882,colour,0.06
040,70,1,1,14,6,656,1188.196255785413,1188.9752243347466,"[77, 0, 177]",177,l,0.2557202181778848,colour,0.06
040,70,1,1,14,7,657,1189.4932337268256,1190.0952331251465,"[50, 0, 204]",204,a,0.07876327633857727,colour,0.06
040,70,1,1,14,8,658,1190.6024724072777,1191.199269888457,"[98, 0, 156]",156,l,0.07350425189360976,colour,0.06
040,70,1,1,14,9,659,1191.7118390873075,1192.3752118889242,"[88, 0, 166]",166,l,0.13998308032751083,colour,0.06
040,70,1,1,14,10,660,1192.8836078965105,1194.9351871395484,"[93, 0, 161]",161,l,1.5281733740121126,colour,0.06
040,70,1,1,14,11,661,1195.4463010779582,1197.3512105247937,"[89, 0, 165]",165,l,1.3815957377664745,colour,0.06
040,70,1,1,14,12,662,1197.869518452324,1198.8312236317433,"[67, 0, 187]",187,l,0.4385643685236573,colour,0.06
040,70,1,1,14,13,663,1199.3382896217518,1199.9912069961429,"[55, 0, 199]",199,a,0.12965565267950296,colour,0.06
040,70,1,1,14,14,664,1200.5101423203014,1201.2313844785094,"[86, 0, 168]",168,l,0.19806235656142235,colour,0.06
040,70,1,1,14,15,665,1201.744391634129,1202.7512473100796,"[92, 0, 162]",162,l,0.48335055774077773,colour,0.06
040,70,1,1,14,16,666,1203.2600241662003,1205.6072233705781,"[94, 0, 160]",160,l,1.8239110950380564,colour,0.06
040,70,1,1,14,17,667,1206.1194747355767,1207.1193045941181,"[57, 0, 197]",197,a,0.47669692477211356,colour,0.06
040,70,1,1,14,18,668,1207.6352191199549,1208.287257824093,"[95, 0, 159]",159,l,0.12894357927143574,colour,0.06
040,70,1,1,14,19,669,1208.8070702431723,1209.4712917832658,"[56, 0, 198]",198,a,0.14100944297388196,colour,0.06
040,70,1,1,14,20,670,1209.9789107325487,1210.647231420502,"[82, 0, 172]",172,l,0.14505542162805796,colour,0.06
040,70,1,1,14,21,671,1211.1663581538014,1211.7751769945025,"[51, 0, 203]",203,a,0.08552600489929318,colour,0.06
040,70,1,1,14,22,672,1212.2913427939638,1213.2237505633384,"[69, 0, 185]",185,l,0.40704015363007784,colour,0.06
040,70,1,1,14,23,673,1213.7308807498775,1214.271181427408,"[97, 0, 157]",157,l,0.016901503782719374,colour,0.06
040,70,1,1,14,24,674,1214.777842149604,1219.471249641385,"[79, 0, 175]",175,l,4.170174520928413,colour,0.06
040,70,1,1,14,25,675,1219.980907924939,1220.6872012680396,"[70, 0, 184]",184,l,0.18286266131326556,colour,0.06
040,70,1,1,14,26,676,1221.1996578266844,1221.9112263415009,"[18, 0, 236]",236,a,0.1881291689351201,colour,0.06
040,70,1,1,14,27,677,1222.418372281827,1223.3513160753064,"[61, 0, 193]",193,a,0.40842176461592317,colour,0.06
040,70,1,1,14,28,678,1223.864389397204,1224.4231976820156,"[85, 0, 169]",169,l,0.035324040334671736,colour,0.06
040,70,1,1,14,29,679,1224.9426914798096,1227.9592460053973,"[84, 0, 170]",170,l,2.4932313640601933,colour,0.06
040,70,1,1,14,30,680,1228.4676546161063,1229.1191958924755,"[76, 0, 178]",178,l,0.12896720971912146,colour,0.06
040,70,1,1,14,31,681,1229.639540397562,1230.3272579973564,"[68, 0, 186]",186,l,0.16446769377216697,colour,0.06
040,70,1,1,14,32,682,1230.8425912070088,1232.815196072217,"[80, 0, 174]",174,l,1.449250590056181,colour,0.06
040,70,1,1,14,33,683,1233.3269830928184,1233.8632436990738,"[99, 0, 155]",155,l,0.012931142933666706,colour,0.06
040,70,1,1,14,34,684,1234.3738377606496,1234.9432582240552,"[83, 0, 171]",171,l,0.04603192349895835,colour,0.06
040,70,1,1,14,35,685,1235.45186927123,1236.0472166119143,"[71, 0, 183]",183,l,0.07201472669839859,colour,0.06
040,70,1,1,14,36,686,1236.561321021989,1237.1591747980565,"[66, 0, 188]",188,l,0.07447665743529797,colour,0.06
040,70,1,1,14,37,687,1237.6707034558058,1239.2712239627726,"[60, 0, 194]",194,l,1.077076040674001,colour,0.06
040,70,1,1,14,38,688,1239.7801595390774,1240.6152007197961,"[91, 0, 163]",163,l,0.31178103433921933,colour,0.06
040,70,1,1,14,39,689,1241.1237810468301,1241.8151677153073,"[53, 0, 201]",201,a,0.1680044298991561,colour,0.06
040,70,1,1,14,40,690,1242.3268728158437,1244.4632045510225,"[52, 0, 202]",202,a,1.6109806606546044,colour,0.06
040,70,1,1,14,41,691,1244.9691823441535,1248.3671809770167,"[58, 0, 196]",196,l,2.874762510880828,colour,0.06
040,70,1,1,14,42,692,1248.8758861534297,1252.9832564285025,"[64, 0, 190]",190,l,3.584610707126558,colour,0.06
040,70,1,1,14,43,693,1253.5004509533755,1254.1272338940762,"[87, 0, 167]",167,l,0.10377406794577837,colour,0.06
040,70,1,1,14,44,694,1254.6409633629955,1255.3431473174132,"[75, 0, 179]",179,l,0.17909079883247614,colour,0.06
040,70,1,1,14,45,695,1255.859715233557,1256.6071776845492,"[40, 0, 214]",214,a,0.22410856932401657,colour,0.06
040,70,1,1,14,46,696,1257.1254036920145,1257.7992315278389,"[96, 0, 158]",158,l,0.15052948659285903,colour,0.06
040,70,1,1,14,47,697,1258.3128400859423,1260.991278281901,"[44, 0, 210]",210,a,2.1552186156623065,colour,0.06
040,70,1,1,14,48,698,1261.5003182273358,1262.335352318827,"[72, 0, 182]",182,l,0.3117132927291095,colour,0.06
040,70,1,1,14,49,699,1262.8456360297278,1263.7991649676114,"[65, 0, 189]",189,l,0.4295031554065645,colour,0.06
040,70,1,1,14,50,700,1264.3144079865888,1264.8471913272515,"[54, 0, 200]",200,a,0.009305397514253855,colour,0.06
040,70,1,1,15,1,701,1269.4855789379217,1271.1511958735064,"[56, 0, 198]",198,l,1.141964124981314,colour,0.06
040,70,1,1,15,2,702,1271.658269346226,1272.2471694294363,"[67, 0, 187]",187,l,0.06570492126047611,colour,0.06
040,70,1,1,15,3,703,1272.7675867956132,1273.4232173743658,"[47, 0, 207]",207,a,0.13230387261137366,colour,0.06
040,70,1,1,15,4,704,1273.9393370943144,1274.8151669274084,"[53, 0, 201]",201,a,0.35249209916219115,colour,0.06
040,70,1,1,15,5,705,1275.3299310295843,1275.9031662847847,"[90, 0, 164]",164,l,0.04980890592560172,colour,0.06
040,70,1,1,15,6,706,1276.4238400449976,1277.0391400139779,"[42, 0, 212]",212,a,0.09197720140218735,colour,0.06
040,70,1,1,15,7,707,1277.5487841186114,1278.191194865387,"[80, 0, 174]",174,l,0.11781467497348785,colour,0.06
040,70,1,1,15,8,708,1278.7064055888914,1279.727170721162,"[59, 0, 195]",195,l,0.4975471277721226,colour,0.06
040,70,1,1,15,9,709,1280.2376950718462,1280.9912515003234,"[54, 0, 200]",200,a,0.23034078674390912,colour,0.06
040,70,1,1,15,10,710,1281.5033118501306,1282.1032344987616,"[58, 0, 196]",196,a,0.07699254527688026,colour,0.06
040,70,1,1,15,11,711,1282.6126163024455,1283.263211561367,"[91, 0, 163]",163,l,0.127817967440933,colour,0.06
040,70,1,1,15,12,712,1283.7844918440096,1284.5591895282269,"[57, 0, 197]",197,a,0.25043795676901937,colour,0.06
040,70,1,1,15,13,713,1285.065884121228,1285.8231970518827,"[85, 0, 169]",169,l,0.23390548629686236,colour,0.06
040,70,1,1,15,14,714,1286.3313717180863,1287.2471304386854,"[87, 0, 167]",167,l,0.3924958175048232,colour,0.06
040,70,1,1,15,15,715,1287.7532862504013,1290.039166401606,"[78, 0, 176]",176,l,1.7627613958902657,colour,0.06
040,70,1,1,15,16,716,1290.550199600868,1292.3432012740523,"[63, 0, 191]",191,l,1.2696690591983497,colour,0.06
040,70,1,1,15,17,717,1292.8647237722762,1293.535175560508,"[95, 0, 159]",159,l,0.1475650081411004,colour,0.06
040,70,1,1,15,18,718,1294.0521574090235,1294.991178639233,"[61, 0, 193]",193,a,0.4128753747791052,colour,0.06
040,70,1,1,15,19,719,1295.5053641814739,1296.2231641267426,"[97, 0, 157]",157,l,0.19441455602645874,colour,0.06
040,70,1,1,15,20,720,1296.7396780862473,1297.8071446800604,"[75, 0, 179]",179,l,0.5442269276827574,colour,0.06
040,70,1,1,15,21,721,1298.3179010059685,1298.8711572452448,"[83, 0, 171]",171,l,0.03007761901244521,colour,0.06
040,70,1,1,15,22,722,1299.3801810429431,1300.1671793228015,"[68, 0, 186]",186,l,0.26368260104209185,colour,0.06
040,70,1,1,15,23,723,1300.677132202778,1301.30314399302,"[52, 0, 202]",202,a,0.10278630210086703,colour,0.06
040,70,1,1,15,24,724,1301.8177615846507,1302.8151566875167,"[82, 0, 172]",172,l,0.474203092046082,colour,0.06
040,70,1,1,15,25,725,1303.3334161723033,1304.063147679437,"[98, 0, 156]",156,l,0.20597196416929364,colour,0.06
040,70,1,1,15,26,726,1304.583283052314,1306.3911520149559,"[76, 0, 178]",178,l,1.2845556470565498,colour,0.06
040,70,1,1,15,27,727,1306.911514243111,1307.5831983755343,"[69, 0, 185]",185,l,0.1488292538560927,colour,0.06
040,70,1,1,15,28,728,1308.1002912884578,1308.8151677153073,"[70, 0, 184]",184,l,0.19154617609456182,colour,0.06
040,70,1,1,15,29,729,1309.3346835682169,1309.9191631246358,"[94, 0, 160]",160,l,0.06117569329217076,colour,0.06
040,70,1,1,15,30,730,1310.428461826872,1310.9832028653473,"[89, 0, 165]",165,l,0.031463956926018,colour,0.06
040,70,1,1,15,31,731,1311.4908777405508,1314.615259796381,"[99, 0, 155]",155,l,2.600963189266622,colour,0.06
040,70,1,1,15,32,732,1315.1313365870155,1316.9751420207322,"[81, 0, 173]",173,l,1.3202629000879824,colour,0.06
040,70,1,1,15,33,733,1317.4909490267746,1318.4951513628475,"[73, 0, 181]",181,l,0.4800489470362663,colour,0.06
040,70,1,1,15,34,734,1319.0077284383588,1319.5991514981724,"[72, 0, 182]",182,l,0.06810777494683862,colour,0.06
040,70,1,1,15,35,735,1320.116983660031,1320.9191548540257,"[16, 0, 238]",238,a,0.2787334229797125,colour,0.06
040,70,1,1,15,36,736,1321.4296827493235,1322.8873112294823,"[65, 0, 189]",189,l,0.9342840509489179,colour,0.06
040,70,1,1,15,37,737,1323.3983373399824,1324.2151946541853,"[79, 0, 175]",175,l,0.2935731434263289,colour,0.06
040,70,1,1,15,38,738,1324.7265468691476,1326.1191379972734,"[51, 0, 203]",203,l,0.8686661696992815,colour,0.06
040,70,1,1,15,39,739,1326.6326831462793,1327.4711527554318,"[64, 0, 190]",190,a,0.3151362077333033,colour,0.06
040,70,1,1,15,40,740,1327.99208881706,1328.799176783301,"[66, 0, 188]",188,l,0.28382230643182993,colour,0.06
040,70,1,1,15,41,741,1329.3202845617197,1330.1432913858443,"[60, 0, 194]",194,l,0.2998309610411525,colour,0.06
040,70,1,1,15,42,742,1330.6639415156096,1331.239136153832,"[96, 0, 158]",158,l,0.05192070733755827,colour,0.06
040,70,1,1,15,43,743,1331.7577851521783,1333.8313102782704,"[74, 0, 180]",180,l,1.5502586783841252,colour,0.06
040,70,1,1,15,44,744,1334.339981189929,1335.391205578111,"[93, 0, 161]",161,l,0.5276208082213998,colour,0.06
040,70,1,1,15,45,745,1335.9023021869361,1336.6393994004466,"[71, 0, 183]",183,l,0.21401469176635146,colour,0.06
040,70,1,1,15,46,746,1337.1524211284705,1337.6951368693262,"[84, 0, 170]",170,l,0.019379976205527782,colour,0.06
040,70,1,1,15,47,747,1338.2150134854019,1338.7671039407142,"[86, 0, 168]",168,l,0.028851183131337166,colour,0.06
040,70,1,1,15,48,748,1339.2774605131708,1340.167130092159,"[77, 0, 177]",177,l,0.3666248666122556,colour,0.06
040,70,1,1,15,49,749,1340.6837220331654,1343.2071440499276,"[55, 0, 199]",199,l,1.9999921233393252,colour,0.06
040,70,1,1,15,50,750,1343.7171816071495,1344.535114120692,"[50, 0, 204]",204,a,0.29469639202579856,colour,0.06
040,70,1,1,16,1,751,1369.6719050798565,1373.583106609527,"[71, 0, 183]",183,a,3.3870414453558624,colour,0.06
040,70,1,1,16,2,752,1374.0945631931536,1374.7191035752185,"[95, 0, 159]",159,l,0.1011798051185906,colour,0.06
040,70,1,1,16,3,753,1375.2351752454415,1377.6471821898594,"[83, 0, 171]",171,l,1.8881343677639961,colour,0.06
040,70,1,1,16,4,754,1378.158308336977,1378.7033194121905,"[78, 0, 176]",176,l,0.021723753307014704,colour,0.06
040,70,1,1,16,5,755,1379.22079829406,1380.047147294972,"[73, 0, 181]",181,l,0.3030022084712982,colour,0.06
040,70,1,1,16,6,756,1380.5645422879606,1381.1911125518382,"[17, 0, 237]",237,a,0.10330617893487215,colour,0.06
040,70,1,1,16,7,757,1381.705106684938,1382.3351837527007,"[84, 0, 170]",170,l,0.10682046599686146,colour,0.06
040,70,1,1,16,8,758,1382.845775057096,1383.5350865516812,"[61, 0, 193]",193,a,0.16610845597460866,colour,0.06
040,70,1,1,16,9,759,1384.0488959709182,1384.639104804024,"[58, 0, 196]",196,a,0.06688370229676366,colour,0.06
040,70,1,1,16,10,760,1385.1459423629567,1385.7511173407547,"[60, 0, 194]",194,a,0.08183527458459139,colour,0.06
040,70,1,1,16,11,761,1386.2707990030758,1386.8874734942801,"[94, 0, 160]",160,l,0.0933143082074821,colour,0.06
040,70,1,1,16,12,762,1387.395721021574,1388.1671635690145,"[77, 0, 177]",177,l,0.2508593718521297,colour,0.06
040,70,1,1,16,13,763,1388.674517066218,1389.2951378934085,"[62, 0, 192]",192,a,0.09721417026594281,colour,0.06
040,70,1,1,16,14,764,1389.8151499922387,1390.3591512460262,"[98, 0, 156]",156,l,0.020687544718384743,colour,0.06
040,70,1,1,16,15,765,1390.877679727506,1391.4151002098806,"[52, 0, 202]",202,a,0.014137886930257082,colour,0.06
040,70,1,1,16,16,766,1391.9246639707126,1393.5911044385284,"[69, 0, 185]",185,l,1.143289023078978,colour,0.06
040,70,1,1,16,17,767,1394.1128372503445,1395.2871432150714,"[65, 0, 189]",189,l,0.6518421750515699,colour,0.06
040,70,1,1,16,18,768,1395.7995974104851,1398.7590698776767,"[70, 0, 184]",184,l,2.4360323334112763,colour,0.06
040,70,1,1,16,19,769,1399.2682516076602,1399.94311171351,"[85, 0, 169]",169,l,0.15160311060026288,colour,0.06
040,70,1,1,16,20,770,1400.4557076939382,1401.4710641400889,"[66, 0, 188]",188,l,0.4920076848939061,colour,0.06
040,70,1,1,16,21,771,1401.986859724857,1402.5350822191685,"[99, 0, 155]",155,l,0.02492256974801421,colour,0.06
040,70,1,1,16,22,772,1403.050792339258,1404.0071077374741,"[81, 0, 173]",173,l,0.43305722111836076,colour,0.06
040,70,1,1,16,23,773,1404.5195481483825,1405.2710865107365,"[20, 0, 234]",234,a,0.22843142226338387,colour,0.06
040,70,1,1,16,24,774,1405.785173591692,1406.4791462523863,"[74, 0, 180]",180,l,0.17081018863245845,colour,0.06
040,70,1,1,16,25,775,1406.98824015446,1407.639100077562,"[91, 0, 163]",163,l,0.1268227188847959,colour,0.06
040,70,1,1,16,26,776,1408.160138932988,1408.9590931935236,"[64, 0, 190]",190,l,0.27632190473377705,colour,0.06
040,70,1,1,16,27,777,1409.472604077775,1410.24705718318,"[76, 0, 178]",178,l,0.2511204914189875,colour,0.06
040,70,1,1,16,28,778,1410.7538069146685,1413.063102781307,"[59, 0, 195]",195,l,1.7860790435224771,colour,0.06
040,70,1,1,16,29,779,1413.582005416043,1416.863140905276,"[75, 0, 179]",179,l,2.7578733735717833,colour,0.06
040,70,1,1,16,30,780,1417.378764379304,1418.0150701203384,"[96, 0, 158]",158,l,0.11118506686761975,colour,0.06
040,70,1,1,16,31,781,1418.5209498461336,1419.0791618484072,"[89, 0, 165]",165,l,0.0347364223562181,colour,0.06
040,70,1,1,16,32,782,1419.5991388950497,1420.2790918229148,"[55, 0, 199]",199,l,0.15666560595855117,colour,0.06
040,70,1,1,16,33,783,1420.7866351534612,1422.2631505150348,"[50, 0, 204]",204,a,0.9535060948692262,colour,0.06
040,70,1,1,16,34,784,1422.7715311627835,1423.4950781073421,"[63, 0, 191]",191,a,0.20079761650413275,colour,0.06
040,70,1,1,16,35,785,1424.0052767475136,1424.6550969174132,"[56, 0, 198]",198,a,0.12647416535764933,colour,0.06
040,70,1,1,16,36,786,1425.1616426366381,1429.9990827329457,"[57, 0, 197]",197,a,4.314247691538185,colour,0.06
040,70,1,1,16,37,787,1430.5066055837087,1431.1270995927043,"[79, 0, 175]",175,l,0.09711295180022717,colour,0.06
040,70,1,1,16,38,788,1431.6479364046827,1432.3431284124963,"[72, 0, 182]",182,l,0.1725817071273923,colour,0.06
040,70,1,1,16,39,789,1432.850190857891,1433.391064974945,"[97, 0, 157]",157,l,0.01742492476478219,colour,0.06
040,70,1,1,16,40,790,1433.9128604084253,1434.5591103648767,"[87, 0, 167]",167,l,0.12295830249786377,colour,0.06
040,70,1,1,16,41,791,1435.06922629755,1435.8550619441085,"[82, 0, 172]",172,l,0.26282441103830934,colour,0.06
040,70,1,1,16,42,792,1436.3659923500381,1444.087055702228,"[93, 0, 161]",161,l,7.197833532001823,colour,0.06
040,70,1,1,16,43,793,1444.6024133302271,1445.2550483169034,"[86, 0, 168]",168,l,0.12946936348453164,colour,0.06
040,70,1,1,16,44,794,1445.7743562194519,1446.447048203554,"[24, 0, 230]",230,a,0.1493447977118194,colour,0.06
040,70,1,1,16,45,795,1446.9617268410511,1447.6391095300205,"[80, 0, 174]",174,l,0.1539776073768735,colour,0.06
040,70,1,1,16,46,796,1448.1492620902136,1448.7270568995737,"[90, 0, 164]",164,l,0.054156964644789696,colour,0.06
040,70,1,1,16,47,797,1449.242966699414,1449.911035720259,"[92, 0, 162]",162,l,0.14427521312609315,colour,0.06
040,70,1,1,16,48,798,1450.4305661455728,1452.6470758514479,"[67, 0, 187]",187,l,1.6933259656652808,colour,0.06
040,70,1,1,16,49,799,1453.1662463019602,1454.023062829394,"[68, 0, 186]",186,l,0.3336241226643324,colour,0.06
040,70,1,1,16,50,800,1454.5412864740938,1455.3350813528523,"[54, 0, 200]",200,a,0.27077025221660733,colour,0.06
