id,age,condition,counterbalance,block,trialinblock,trial,tstart,tend,trialstim,trialintensity,response,RT,trialtype,colourfreq
128,22,1,1,Practice,1,NA,5.119945853948593e-06,0.6108676268486306,"[48, 0, 206]",206,a,0.0554424780420959,colour,0.5
128,22,1,1,Practice,2,NA,1.1259105717763305,46.40285160206258,"[70, 0, 184]",184,a,44.75378840393387,colour,0.5
128,22,1,1,Practice,3,NA,46.92257816263009,141.06680296361446,"[56, 0, 198]",198,a,93.62101861159317,colour,0.5
128,22,1,1,Practice,4,NA,141.5786254304694,152.8427881298121,"[66, 0, 188]",188,a,10.740888768457808,colour,0.5
128,22,1,1,Practice,5,NA,153.35978730744682,155.34717754262965,"[4, 0, 250]",250,l,1.4640670735388994,colour,0.5
128,22,1,1,Practice,6,NA,155.86017524567433,156.74674525728915,"[12, 0, 242]",242,l,0.36358595138881356,colour,0.5
128,22,1,1,Practice,7,NA,157.26604607049376,158.1067227923777,"[26, 0, 228]",228,l,0.31801325222477317,colour,0.5
128,22,1,1,Practice,8,NA,158.62535367358942,159.45875763671938,"[63, 0, 191]",191,l,0.309990216861479,colour,0.5
128,22,1,1,Practice,9,NA,159.96913429512642,160.76278108777478,"[29, 0, 225]",225,l,0.27025470801163465,colour,0.5
128,22,1,1,Practice,10,NA,161.28161361825187,162.11479427060112,"[97, 0, 157]",157,l,0.31011742900591344,colour,0.5
128,22,1,1,1,1,1,4.943012070609257,5.895929366117343,"[20, 0, 234]",234,l,0.42906992498319596,colour,0.5
128,22,1,1,1,2,2,6.412533516297117,7.255899811978452,"[58, 0, 196]",196,l,0.32013568782713264,colour,0.5
128,22,1,1,1,3,3,7.7719214640092105,8.663936789380386,"[62, 0, 192]",192,l,0.3684790930710733,colour,0.5
128,22,1,1,1,4,4,9.178217248641886,10.007934419903904,"[29, 0, 225]",225,l,0.30647947429679334,colour,0.5
128,22,1,1,1,5,5,10.521945488639176,11.335928121581674,"[49, 0, 205]",205,l,0.2905570714501664,colour,0.5
128,22,1,1,1,6,6,11.850078217801638,12.775993437040597,"[92, 0, 162]",162,l,0.4026109621627256,colour,0.5
128,22,1,1,1,7,7,13.287507128668949,14.015932642971165,"[40, 0, 214]",214,l,0.20516458037309349,colour,0.5
128,22,1,1,1,8,8,14.537515793228522,15.615990380756557,"[30, 0, 224]",224,l,0.5552939980989322,colour,0.5
128,22,1,1,1,9,9,16.131342494743876,16.943994716159068,"[65, 0, 189]",189,l,0.2893353613326326,colour,0.5
128,22,1,1,1,10,10,17.45939763635397,18.327925960184075,"[51, 0, 203]",203,l,0.3451401776401326,colour,0.5
128,22,1,1,1,11,11,18.83453784545418,20.335946238483302,"[74, 0, 180]",180,l,0.9780978345079347,colour,0.5
128,22,1,1,1,12,12,20.85014005168341,21.847916003782302,"[71, 0, 183]",183,l,0.47474069194868207,colour,0.5
128,22,1,1,1,13,13,22.36582890385762,23.07993418048136,"[6, 0, 248]",248,l,0.1910719855222851,colour,0.5
128,22,1,1,1,14,14,23.600116814719513,24.375927507178858,"[41, 0, 213]",213,l,0.2528006383217871,colour,0.5
128,22,1,1,1,15,15,24.896962030092254,25.68794209207408,"[33, 0, 221]",221,l,0.26781286334153265,colour,0.5
128,22,1,1,1,16,16,26.209530362393707,27.111957004643045,"[8, 0, 246]",246,l,0.37952371418941766,colour,0.5
128,22,1,1,1,17,17,27.631394876283593,28.471948718186468,"[43, 0, 211]",211,l,0.317605227814056,colour,0.5
128,22,1,1,1,18,18,28.99086356232874,29.855946522089653,"[98, 0, 156]",156,l,0.34209614258725196,colour,0.5
128,22,1,1,1,19,19,30.36571429471951,31.32794368325267,"[72, 0, 182]",182,l,0.4358755825087428,colour,0.5
128,22,1,1,1,20,20,31.834472467075102,32.68792200589087,"[26, 0, 228]",228,l,0.3303843463072553,colour,0.5
128,22,1,1,1,21,21,33.20944844244514,34.04794010706246,"[91, 0, 163]",163,l,0.31556353042833507,colour,0.5
128,22,1,1,1,22,22,34.56879700557329,35.4159619450802,"[27, 0, 227]",227,l,0.3237921533873305,colour,0.5
128,22,1,1,1,23,23,35.9283086208161,36.767955041723326,"[0, 0, 254]",254,l,0.31642368994653225,colour,0.5
128,22,1,1,1,24,24,37.2876599408919,38.10396705241874,"[16, 0, 238]",238,l,0.2928228669334203,colour,0.5
128,22,1,1,1,25,25,38.615819057798944,39.4079377282178,"[78, 0, 176]",176,l,0.268878216505982,colour,0.5
128,22,1,1,1,26,26,39.928312165429816,40.75194362970069,"[10, 0, 244]",244,l,0.3002425304148346,colour,0.5
128,22,1,1,1,27,27,41.272157771512866,42.071948560653254,"[42, 0, 212]",212,l,0.2767027535010129,colour,0.5
128,22,1,1,1,28,28,42.58466072543524,43.44799973536283,"[39, 0, 215]",215,l,0.3401852020760998,colour,0.5
128,22,1,1,1,29,29,43.95955438702367,44.95990451599937,"[56, 0, 198]",198,a,0.47739442565944046,colour,0.5
128,22,1,1,1,30,30,45.47509751631878,46.015967695158906,"[80, 0, 174]",174,l,0.01758600806351751,colour,0.5
128,22,1,1,1,31,31,46.537668999284506,47.50391955464147,"[85, 0, 169]",169,l,0.44307941826991737,colour,0.5
128,22,1,1,1,32,32,48.02216328540817,48.75994342798367,"[34, 0, 220]",220,l,0.21439475333318114,colour,0.5
128,22,1,1,1,33,33,49.27206049161032,49.81596210261341,"[69, 0, 185]",185,l,0.0207403200911358,colour,0.5
128,22,1,1,1,34,34,50.334554780856706,51.01590271061286,"[45, 0, 209]",209,l,0.15809290355537087,colour,0.5
128,22,1,1,1,35,35,51.522125869989395,52.07194383442402,"[2, 0, 252]",252,a,0.026487319730222225,colour,0.5
128,22,1,1,1,36,36,52.584575654705986,53.327931867795996,"[76, 0, 178]",178,l,0.22068998648319393,colour,0.5
128,22,1,1,1,37,37,53.83462961157784,54.55195379082579,"[79, 0, 175]",175,l,0.19420109142083675,colour,0.5
128,22,1,1,1,38,38,55.068982506985776,55.75988868344575,"[59, 0, 195]",195,l,0.1676200364017859,colour,0.5
128,22,1,1,1,39,39,56.27203646698035,56.82403594395146,"[7, 0, 247]",247,a,0.028514444711618125,colour,0.5
128,22,1,1,1,40,40,57.33457998698577,58.26391378871631,"[24, 0, 230]",230,a,0.4060204862616956,colour,0.5
128,22,1,1,1,41,41,58.77207821467891,59.52000107127242,"[67, 0, 187]",187,l,0.22455361497122794,colour,0.5
128,22,1,1,1,42,42,60.03768947930075,60.79990421666298,"[96, 0, 158]",158,l,0.23884549573995173,colour,0.5
128,22,1,1,1,43,43,61.318874987075105,61.9439171286067,"[66, 0, 188]",188,l,0.10191432759165764,colour,0.5
128,22,1,1,1,44,44,62.459455531672575,63.127894767560065,"[88, 0, 166]",166,l,0.14499949594028294,colour,0.5
128,22,1,1,1,45,45,63.64715619618073,64.23987894749735,"[93, 0, 161]",161,l,0.06973042024765164,colour,0.5
128,22,1,1,1,46,46,64.75635746086482,65.471916816663,"[84, 0, 170]",170,l,0.19237679720390588,colour,0.5
128,22,1,1,1,47,47,65.9908497777069,66.69590605050325,"[38, 0, 216]",216,l,0.18177092040423304,colour,0.5
128,22,1,1,1,48,48,67.20952642394695,67.98395826178603,"[23, 0, 231]",231,l,0.251150423893705,colour,0.5
128,22,1,1,1,49,49,68.4908430823125,69.26391654566396,"[12, 0, 242]",242,l,0.2504166889702901,colour,0.5
128,22,1,1,1,50,50,69.77205419004895,70.53595380031038,"[64, 0, 190]",190,l,0.24081984534859657,colour,0.5
128,22,1,1,2,1,51,74.97428225527983,75.84787149913609,"[24, 0, 230]",230,l,0.3492531105875969,colour,0.5
128,22,1,1,2,2,52,76.36574659007601,77.07195210526697,"[37, 0, 217]",217,l,0.1830741565208882,colour,0.5
128,22,1,1,2,3,53,77.5844968855381,78.39198027306702,"[58, 0, 196]",196,l,0.2843571489211172,colour,0.5
128,22,1,1,2,4,54,78.91257447632961,79.71200844098348,"[7, 0, 247]",247,l,0.2760091908276081,colour,0.5
128,22,1,1,2,5,55,80.22504867939278,81.03191333496943,"[59, 0, 195]",195,l,0.28298932197503746,colour,0.5
128,22,1,1,2,6,56,81.53806284524035,82.34392595069949,"[55, 0, 199]",199,l,0.28270299604628235,colour,0.5
128,22,1,1,2,7,57,82.85060321446508,83.68792239984032,"[62, 0, 192]",192,l,0.3143812051275745,colour,0.5
128,22,1,1,2,8,58,84.19425977452192,85.0638747191988,"[75, 0, 179]",179,l,0.34624885383527726,colour,0.5
128,22,1,1,2,9,59,85.58496083598584,86.42394008184783,"[95, 0, 159]",159,l,0.3158809702144936,colour,0.5
128,22,1,1,2,10,60,86.9442306299461,87.74392965284642,"[57, 0, 197]",197,l,0.2762758245225996,colour,0.5
128,22,1,1,2,11,61,88.25671822379809,89.27994174230844,"[43, 0, 211]",211,l,0.49985821545124054,colour,0.5
128,22,1,1,2,12,62,89.78802503598854,90.35190133063588,"[70, 0, 184]",184,l,0.04977109679020941,colour,0.5
128,22,1,1,2,13,63,90.87281966896262,91.58393329195678,"[33, 0, 221]",221,l,0.1852985981386155,colour,0.5
128,22,1,1,2,14,64,92.09273968683556,92.88792366010603,"[25, 0, 229]",229,l,0.2691873855656013,colour,0.5
128,22,1,1,2,15,65,93.40786998672411,94.2158685248578,"[17, 0, 237]",237,l,0.284732484142296,colour,0.5
128,22,1,1,2,16,66,94.73590425448492,95.5678958860226,"[85, 0, 169]",169,l,0.30750859365798533,colour,0.5
128,22,1,1,2,17,67,96.08231497905217,96.87186774343718,"[49, 0, 205]",205,l,0.26629379962105304,colour,0.5
128,22,1,1,2,18,68,97.37916176987346,97.9118675228674,"[42, 0, 212]",212,l,0.009700425085611641,colour,0.5
128,22,1,1,2,19,69,98.42597744683735,99.23988367372658,"[63, 0, 191]",191,l,0.2906322960043326,colour,0.5
128,22,1,1,2,20,70,99.75411135761533,100.34387081221212,"[83, 0, 171]",171,l,0.06640517921186984,colour,0.5
128,22,1,1,2,21,71,100.86353711446282,101.59189685655292,"[11, 0, 243]",243,l,0.20501137431710958,colour,0.5
128,22,1,1,2,22,72,102.09782975143753,102.70386961498298,"[52, 0, 202]",202,l,0.08272379112895578,colour,0.5
128,22,1,1,2,23,73,103.22296365909278,104.07185758219566,"[41, 0, 213]",213,l,0.3256601645844057,colour,0.5
128,22,1,1,2,24,74,104.58405617193785,105.13589141517878,"[71, 0, 183]",183,l,0.028585730819031596,colour,0.5
128,22,1,1,2,25,75,105.6464933535317,106.37585622107144,"[67, 0, 187]",187,l,0.20597157068550587,colour,0.5
128,22,1,1,2,26,76,106.89656424580608,107.65582632028963,"[14, 0, 240]",240,l,0.23600744211580604,colour,0.5
128,22,1,1,2,27,77,108.16216054419056,108.76790266018361,"[47, 0, 207]",207,l,0.08240832050796598,colour,0.5
128,22,1,1,2,28,78,109.28720307955518,109.82390951947309,"[51, 0, 203]",203,l,0.01337815832812339,colour,0.5
128,22,1,1,2,29,79,110.33408177189995,111.0079320569057,"[50, 0, 204]",204,l,0.1505881694611162,colour,0.5
128,22,1,1,2,30,80,111.52158708882052,112.19189630518667,"[87, 0, 167]",167,l,0.14710578392259777,colour,0.5
128,22,1,1,2,31,81,112.71078121708706,113.5438649833668,"[20, 0, 234]",234,l,0.309597946354188,colour,0.5
128,22,1,1,2,32,82,114.05459492164664,114.8242218393134,"[88, 0, 166]",166,l,0.24660741130355746,colour,0.5
128,22,1,1,2,33,83,115.33583635545801,116.09582113730721,"[65, 0, 189]",189,l,0.23703498614486307,colour,0.5
128,22,1,1,2,34,84,116.617104570847,117.27985824702773,"[15, 0, 239]",239,l,0.1393927054014057,colour,0.5
128,22,1,1,2,35,85,117.78897499234881,118.63188875908963,"[45, 0, 209]",209,l,0.31960281427018344,colour,0.5
128,22,1,1,2,36,86,119.14844249701127,119.84789552376606,"[39, 0, 215]",215,l,0.17616570519749075,colour,0.5
128,22,1,1,2,37,87,120.36711402318906,121.14387506584171,"[10, 0, 244]",244,l,0.25341543182730675,colour,0.5
128,22,1,1,2,38,88,121.66459766274784,122.47188964125235,"[53, 0, 201]",201,l,0.2842547489563003,colour,0.5
128,22,1,1,2,39,89,122.99269809667021,123.80789377505425,"[90, 0, 164]",164,l,0.29227384575642645,colour,0.5
128,22,1,1,2,40,90,124.32075835822616,125.12787546915933,"[28, 0, 226]",226,l,0.2837608662666753,colour,0.5
128,22,1,1,2,41,91,125.63394660397898,126.42386210034601,"[89, 0, 165]",165,l,0.26655216247309,colour,0.5
128,22,1,1,2,42,92,126.93147474818397,127.67188538773917,"[94, 0, 160]",160,l,0.21706581639591604,colour,0.5
128,22,1,1,2,43,93,128.1728648825083,128.7199353778269,"[61, 0, 193]",193,l,0.023635481484234333,colour,0.5
128,22,1,1,2,44,94,129.23724490602035,129.83186323777772,"[31, 0, 223]",223,a,0.07134952093474567,colour,0.5
128,22,1,1,2,45,95,130.34674116130918,130.9997798401164,"[40, 0, 214]",214,l,0.12979625561274588,colour,0.5
128,22,1,1,2,46,96,131.51853438909166,132.06385857157875,"[36, 0, 218]",218,a,0.021624898072332144,colour,0.5
128,22,1,1,2,47,97,132.58172342251055,133.23179762309883,"[32, 0, 222]",222,l,0.1267711251275614,colour,0.5
128,22,1,1,2,48,98,133.73812751471996,134.391866845428,"[6, 0, 248]",248,l,0.12874823156744242,colour,0.5
128,22,1,1,2,49,99,134.9115528400289,135.67981153691653,"[82, 0, 172]",172,l,0.2449182061245665,colour,0.5
128,22,1,1,2,50,100,136.18710083724,136.76802554016467,"[1, 0, 253]",253,l,0.057674009003676474,colour,0.5
128,22,1,1,3,1,101,141.56508146307897,142.0958479187684,"[62, 0, 192]",192,l,0.018982191802933812,colour,0.5
128,22,1,1,3,2,102,142.6160187376663,143.32783655717503,"[96, 0, 158]",158,l,0.1885592486942187,colour,0.5
128,22,1,1,3,3,103,143.83468750689644,144.51989788364153,"[56, 0, 198]",198,l,0.16213612572755665,colour,0.5
128,22,1,1,3,4,104,145.03843857429456,145.71183042263146,"[41, 0, 213]",213,l,0.15001236682292074,colour,0.5
128,22,1,1,3,5,105,146.22600651264656,146.77592057548463,"[43, 0, 211]",211,a,0.02658775041345507,colour,0.5
128,22,1,1,3,6,106,147.2891415891936,147.8718712880509,"[22, 0, 232]",232,a,0.06004141690209508,colour,0.5
128,22,1,1,3,7,107,148.38219398958609,149.16788273165002,"[27, 0, 227]",227,l,0.25934478221461177,colour,0.5
128,22,1,1,3,8,108,149.68209702474996,150.35182886291295,"[46, 0, 208]",208,l,0.1455055878031999,colour,0.5
128,22,1,1,3,9,109,150.87090085167438,151.69599860429298,"[77, 0, 177]",177,l,0.3021648923167959,colour,0.5
128,22,1,1,3,10,110,152.21465075318702,152.97585763887037,"[55, 0, 199]",199,l,0.2378876624861732,colour,0.5
128,22,1,1,3,11,111,153.49046695954166,154.2878422915237,"[71, 0, 183]",183,l,0.2731699555879459,colour,0.5
128,22,1,1,3,12,112,154.80448818940204,155.65590075717773,"[40, 0, 214]",214,l,0.3281248522689566,colour,0.5
128,22,1,1,3,13,113,156.16383045096882,157.01587553531863,"[58, 0, 196]",196,l,0.32864157820586115,colour,0.5
128,22,1,1,3,14,114,157.52335033705458,158.0558926439844,"[23, 0, 231]",231,a,0.009235293022356927,colour,0.5
128,22,1,1,3,15,115,158.5701207217062,159.26385865034536,"[31, 0, 223]",223,l,0.17036593018565327,colour,0.5
128,22,1,1,3,16,116,159.77325069403742,160.56786831689533,"[16, 0, 238]",238,l,0.2712125413818285,colour,0.5
128,22,1,1,3,17,117,161.08581154316198,161.8079686057754,"[15, 0, 239]",239,l,0.19913243618793786,colour,0.5
128,22,1,1,3,18,118,162.32078080740757,163.05585877317935,"[93, 0, 161]",161,l,0.21241725294385105,colour,0.5
128,22,1,1,3,19,119,163.57073236443102,164.19984726654366,"[9, 0, 245]",245,l,0.10571218363475055,colour,0.5
128,22,1,1,3,20,120,164.71138143818825,165.67985289066564,"[69, 0, 185]",185,l,0.4450915770139545,colour,0.5
128,22,1,1,3,21,121,166.19571306591388,167.12781442294363,"[73, 0, 181]",181,l,0.40870100155007094,colour,0.5
128,22,1,1,3,22,122,167.64890014589764,168.68783023988362,"[66, 0, 188]",188,l,0.5159149199025705,colour,0.5
128,22,1,1,3,23,123,169.1833289747592,169.9998586094007,"[84, 0, 170]",170,l,0.2931993837701157,colour,0.5
128,22,1,1,3,24,124,170.51145579630975,171.31988323258702,"[99, 0, 155]",155,l,0.28504834847990423,colour,0.5
128,22,1,1,3,25,125,171.83980671619065,172.36786941962782,"[52, 0, 202]",202,l,0.004732846398837864,colour,0.5
128,22,1,1,3,26,126,172.88677559921052,173.74381346825976,"[83, 0, 171]",171,l,0.3337962335208431,colour,0.5
128,22,1,1,3,27,127,174.26178465771955,175.02385839819908,"[14, 0, 240]",240,l,0.23883761884644628,colour,0.5
128,22,1,1,3,28,128,175.5429292054614,176.29584248375613,"[76, 0, 178]",178,l,0.2296283197356388,colour,0.5
128,22,1,1,3,29,129,176.8084644577466,177.58380056591704,"[35, 0, 219]",219,l,0.2517896358622238,colour,0.5
128,22,1,1,3,30,130,178.10544515622314,178.90384330612142,"[13, 0, 241]",241,l,0.27576382481493056,colour,0.5
128,22,1,1,3,31,131,179.4179315684596,180.22382342477795,"[92, 0, 162]",162,l,0.2950248596025631,colour,0.5
128,22,1,1,3,32,132,180.72119726007804,181.4477894216543,"[85, 0, 169]",169,l,0.20329302456229925,colour,0.5
128,22,1,1,3,33,133,181.9555123463506,182.75985717575531,"[81, 0, 173]",173,l,0.2810019755270332,colour,0.5
128,22,1,1,3,34,134,183.26807437709067,184.00782886927482,"[25, 0, 229]",229,l,0.2165160074364394,colour,0.5
128,22,1,1,3,35,135,184.5180802847026,185.2798511578003,"[79, 0, 175]",175,l,0.23855208058375865,colour,0.5
128,22,1,1,3,36,136,185.79927682015114,186.4638303722022,"[33, 0, 221]",221,l,0.14157382410485297,colour,0.5
128,22,1,1,3,37,137,186.9711366078118,187.69582255510613,"[1, 0, 253]",253,l,0.20130134571809322,colour,0.5
128,22,1,1,3,38,138,188.20551313401666,188.97581274050754,"[61, 0, 193]",193,l,0.24698826030362397,colour,0.5
128,22,1,1,3,39,139,189.4867852878524,190.1997621958144,"[5, 0, 249]",249,l,0.18969588784966618,colour,0.5
128,22,1,1,3,40,140,190.70583766303025,191.25586672883946,"[44, 0, 210]",210,l,0.026722839567810297,colour,0.5
128,22,1,1,3,41,141,191.76834337378386,192.54385198641103,"[74, 0, 180]",180,l,0.2524694139137864,colour,0.5
128,22,1,1,3,42,142,193.06516338302754,193.823835082585,"[0, 0, 254]",254,l,0.2353666548151523,colour,0.5
128,22,1,1,3,43,143,194.32146964396816,194.99981528625358,"[3, 0, 251]",251,l,0.1550315391505137,colour,0.5
128,22,1,1,3,44,144,195.5089599947678,196.37583495338913,"[42, 0, 212]",212,l,0.3434651509160176,colour,0.5
128,22,1,1,3,45,145,196.88422702229582,197.9438761685742,"[60, 0, 194]",194,l,0.5350148716242984,colour,0.5
128,22,1,1,3,46,146,198.4649193561636,199.27983185928315,"[72, 0, 182]",182,l,0.2915810707490891,colour,0.5
128,22,1,1,3,47,147,199.79300876229536,200.5918555026874,"[18, 0, 236]",236,l,0.27583550475537777,colour,0.5
128,22,1,1,3,48,148,201.10554007301107,201.89584272005595,"[20, 0, 234]",234,l,0.26698657462839037,colour,0.5
128,22,1,1,3,49,149,202.40240025462117,202.95982653449755,"[57, 0, 197]",197,l,0.03429373970720917,colour,0.5
128,22,1,1,3,50,150,203.48052550072316,204.01580936915707,"[29, 0, 225]",225,a,0.011948103667236865,colour,0.5
128,22,1,1,4,1,151,208.43284611974377,209.99979795701802,"[29, 0, 225]",225,l,1.042694867006503,colour,0.5
128,22,1,1,4,2,152,210.51186618383508,211.2238340586191,"[40, 0, 214]",214,l,0.18864865170326084,colour,0.5
128,22,1,1,4,3,153,211.7306991867954,212.47181047825143,"[14, 0, 240]",240,l,0.2180937542580068,colour,0.5
128,22,1,1,4,4,154,212.9806259315228,213.59980922110844,"[86, 0, 168]",168,l,0.0958683987846598,colour,0.5
128,22,1,1,4,5,155,214.12115054996684,214.7598414219683,"[92, 0, 162]",162,l,0.11526846117340028,colour,0.5
128,22,1,1,4,6,156,215.27749202074483,215.96780309593305,"[73, 0, 181]",181,l,0.16701036284212023,colour,0.5
128,22,1,1,4,7,157,216.48063735303003,217.1038386586588,"[4, 0, 250]",250,l,0.09999157162383199,colour,0.5
128,22,1,1,4,8,158,217.62122616847046,218.3199029249372,"[55, 0, 199]",199,l,0.1753268133616075,colour,0.5
128,22,1,1,4,9,159,218.8399729192024,219.5837702397257,"[43, 0, 211]",211,l,0.22057262039743364,colour,0.5
128,22,1,1,4,10,160,220.09110719547607,220.78379749390297,"[25, 0, 229]",229,l,0.1694435429526493,colour,0.5
128,22,1,1,4,11,161,221.29416351858526,221.86374309589155,"[34, 0, 220]",220,l,0.046175283496268094,colour,0.5
128,22,1,1,4,12,162,222.37236398924142,223.03979025350418,"[36, 0, 218]",218,l,0.156574233667925,colour,0.5
128,22,1,1,4,13,163,223.54797909781337,224.43980458949227,"[74, 0, 180]",180,l,0.3685468346811831,colour,0.5
128,22,1,1,4,14,164,224.95421186706517,225.6638280878542,"[65, 0, 189]",189,l,0.1863808868220076,colour,0.5
128,22,1,1,4,15,165,226.1730125747854,226.7438162252074,"[48, 0, 206]",206,l,0.04749309190083295,colour,0.5
128,22,1,1,4,16,166,227.2529506937135,227.83983152848668,"[98, 0, 156]",156,l,0.06371127313468605,colour,0.5
128,22,1,1,4,17,167,228.33430429489817,228.95979187614284,"[87, 0, 167]",167,l,0.1021140074590221,colour,0.5
128,22,1,1,4,18,168,229.4759037188487,230.0238229520619,"[66, 0, 188]",188,l,0.03486599784810096,colour,0.5
128,22,1,1,4,19,169,230.543722804985,231.26385668106377,"[35, 0, 219]",219,a,0.19509984785690904,colour,0.5
128,22,1,1,4,20,170,231.77978026552591,232.47979649191257,"[11, 0, 243]",243,a,0.17667691712267697,colour,0.5
128,22,1,1,4,21,171,232.99850693019107,233.66383242013399,"[81, 0, 173]",173,l,0.14234142971690744,colour,0.5
128,22,1,1,4,22,172,234.17037341324612,234.8558015867602,"[76, 0, 178]",178,l,0.162040421157144,colour,0.5
128,22,1,1,4,23,173,235.37350141629577,235.9198263612343,"[97, 0, 157]",157,l,0.023015567916445434,colour,0.5
128,22,1,1,4,24,174,236.4385336486157,237.07979357754812,"[28, 0, 226]",226,a,0.11794267501682043,colour,0.5
128,22,1,1,4,25,175,237.5824142282363,238.1358228859026,"[75, 0, 179]",179,l,0.030110702151432633,colour,0.5
128,22,1,1,4,26,176,238.64486440678593,239.21589885093272,"[44, 0, 210]",210,l,0.04440100758802146,colour,0.5
128,22,1,1,4,27,177,239.72593837731984,240.38385208090767,"[78, 0, 176]",176,l,0.13455155119299889,colour,0.5
128,22,1,1,4,28,178,240.89783085428644,241.56778206455056,"[52, 0, 202]",202,l,0.14687774702906609,colour,0.5
128,22,1,1,4,29,179,242.08537201117724,242.62379995151423,"[9, 0, 245]",245,l,0.015499806264415383,colour,0.5
128,22,1,1,4,30,180,243.13223101117183,243.7919867321616,"[37, 0, 217]",217,l,0.13681734690908343,colour,0.5
128,22,1,1,4,31,181,244.30407189426478,245.01580346142873,"[82, 0, 172]",172,l,0.18868252239190042,colour,0.5
128,22,1,1,4,32,182,245.52291474340018,246.1117766231764,"[6, 0, 248]",248,a,0.06559503811877221,colour,0.5
128,22,1,1,4,33,183,246.6322373127332,247.31975247571245,"[96, 0, 158]",158,l,0.1641931829508394,colour,0.5
128,22,1,1,4,34,184,247.83535743888933,248.59184053656645,"[46, 0, 208]",208,l,0.23328320984728634,colour,0.5
128,22,1,1,4,35,185,249.100973429624,249.88775470014662,"[33, 0, 221]",221,a,0.26349001040216535,colour,0.5
128,22,1,1,4,36,186,250.39788126654457,251.19183171435725,"[62, 0, 192]",192,l,0.2706765169277787,colour,0.5
128,22,1,1,4,37,187,251.71037476800848,252.38376819179393,"[72, 0, 182]",182,l,0.15069687098730356,colour,0.5
128,22,1,1,4,38,188,252.8977871373063,253.6637835833244,"[41, 0, 213]",213,a,0.2426323244580999,colour,0.5
128,22,1,1,4,39,189,254.17909237428103,255.2237785262987,"[99, 0, 155]",155,l,0.5308085972210392,colour,0.5
128,22,1,1,4,40,190,255.73232380126137,256.5437515557278,"[60, 0, 194]",194,l,0.2880667836870998,colour,0.5
128,22,1,1,4,41,191,257.0605030042352,257.5922879455611,"[94, 0, 160]",160,l,0.008454296621493995,colour,0.5
128,22,1,1,4,42,192,258.1072832350619,259.49578703020234,"[71, 0, 183]",183,l,0.8653106025885791,colour,0.5
128,22,1,1,4,43,193,260.0135912289843,260.74379535135813,"[77, 0, 177]",177,l,0.2068872624076903,colour,0.5
128,22,1,1,4,44,194,261.2635794135276,262.0638002823107,"[47, 0, 207]",207,l,0.2768969194730744,colour,0.5
128,22,1,1,4,45,195,262.57606621971354,263.3358272970654,"[54, 0, 200]",200,l,0.23646272800397128,colour,0.5
128,22,1,1,4,46,196,263.8575219057966,264.65576960647013,"[16, 0, 238]",238,a,0.2749064222443849,colour,0.5
128,22,1,1,4,47,197,265.17028794868384,266.1198465261841,"[12, 0, 242]",242,a,0.4261716129258275,colour,0.5
128,22,1,1,4,48,198,266.6390205209609,267.4397959248163,"[2, 0, 252]",252,a,0.27737741149030626,colour,0.5
128,22,1,1,4,49,199,267.95153095794376,268.7518361096736,"[45, 0, 209]",209,l,0.27710880851373076,colour,0.5
128,22,1,1,4,50,200,269.2640449394239,270.03179557505064,"[17, 0, 237]",237,a,0.24438966484740376,colour,0.5
128,22,1,1,5,1,201,274.56200355722103,275.29576962220017,"[73, 0, 181]",181,l,0.20965324225835502,colour,0.4
128,22,1,1,5,2,202,275.81274162454065,276.5358139850432,"[90, 0, 164]",164,l,0.1996877589263022,colour,0.4
128,22,1,1,5,3,203,277.0471705321688,277.75178569741547,"[72, 0, 182]",182,l,0.1812947605503723,colour,0.4
128,22,1,1,5,4,204,278.2658597814152,279.0077611277811,"[15, 0, 239]",239,a,0.2185285601299256,colour,0.4
128,22,1,1,5,5,205,279.5158660829766,280.2877702177502,"[63, 0, 191]",191,l,0.24854395166039467,colour,0.4
128,22,1,1,5,6,206,280.79711303068325,281.5517659264151,"[55, 0, 199]",199,l,0.2311757403658703,colour,0.4
128,22,1,1,5,7,207,282.06273807992693,282.80782248894684,"[30, 0, 224]",224,a,0.22175573359709233,colour,0.4
128,22,1,1,5,8,208,283.32816463080235,284.11186838930007,"[99, 0, 155]",155,l,0.2611548979766667,colour,0.4
128,22,1,1,5,9,209,284.62520637526177,285.4318051849259,"[98, 0, 156]",156,l,0.2832134204218164,colour,0.4
128,22,1,1,5,10,210,285.95335800910834,286.7437595113879,"[56, 0, 198]",198,l,0.2670649498468265,colour,0.4
128,22,1,1,5,11,211,287.2502276429441,288.0077717616223,"[88, 0, 166]",166,l,0.23419220629148185,colour,0.4
128,22,1,1,5,12,212,288.5158452091273,289.2797688440187,"[54, 0, 200]",200,l,0.24056069483049214,colour,0.4
128,22,1,1,5,13,213,289.7977782364469,290.51980808679946,"[5, 0, 249]",249,a,0.19866612262558192,colour,0.4
128,22,1,1,5,14,214,291.0322508609388,291.74374533293303,"[91, 0, 163]",163,l,0.18825716874562204,colour,0.4
128,22,1,1,5,15,215,292.25092081178445,293.0317896674387,"[14, 0, 240]",240,a,0.2576335216872394,colour,0.4
128,22,1,1,5,16,216,293.54775224253535,294.29578931455035,"[71, 0, 183]",183,l,0.22472296876367182,colour,0.4
128,22,1,1,5,17,217,294.81341982714366,295.5678525629919,"[82, 0, 172]",172,l,0.23109657724853605,colour,0.4
128,22,1,1,5,18,218,296.07900588563643,296.8477659483906,"[24, 0, 230]",230,a,0.2454294180497527,colour,0.4
128,22,1,1,5,19,219,297.3602973379893,298.19175255135633,"[62, 0, 192]",192,l,0.308195854886435,colour,0.4
128,22,1,1,5,20,220,298.7039688641671,299.5597795093199,"[68, 0, 186]",186,l,0.3332275199936703,colour,0.4
128,22,1,1,5,21,221,300.07899722107686,301.0078052384779,"[93, 0, 161]",161,l,0.40548328042495996,colour,0.4
128,22,1,1,5,22,222,301.51651947339997,302.5197943021776,"[37, 0, 217]",217,l,0.47997017798479646,colour,0.4
128,22,1,1,5,23,223,303.03214806714095,303.8797868033871,"[92, 0, 162]",162,l,0.32435259607154876,colour,0.4
128,22,1,1,5,24,224,304.39149505493697,305.47177306283265,"[67, 0, 187]",187,l,0.5570245570270345,colour,0.4
128,22,1,1,5,25,225,305.9853107286617,306.9037708383985,"[28, 0, 226]",226,a,0.3953787694917992,colour,0.4
128,22,1,1,5,26,226,307.4227727225516,308.1997145405039,"[25, 0, 229]",229,a,0.25439335126429796,colour,0.4
128,22,1,1,5,27,227,308.71968213492073,309.5837399136508,"[9, 0, 245]",245,a,0.3414671706268564,colour,0.4
128,22,1,1,5,28,228,310.09473491017707,310.91178796603344,"[50, 0, 204]",204,l,0.2938334756763652,colour,0.4
128,22,1,1,5,29,229,311.4227983225137,312.19180138828233,"[78, 0, 176]",176,l,0.2463868575869128,colour,0.4
128,22,1,1,5,30,230,312.70409253181424,313.52774329436943,"[58, 0, 196]",196,l,0.30041542858816683,colour,0.4
128,22,1,1,5,31,231,314.047819196363,314.83172460400965,"[77, 0, 177]",177,l,0.2605842152843252,colour,0.4
128,22,1,1,5,32,232,315.34469591942616,316.06373057165183,"[43, 0, 211]",211,a,0.19575835822615772,colour,0.4
128,22,1,1,5,33,233,316.5790842609713,317.3357764908578,"[69, 0, 185]",185,l,0.23340530204586685,colour,0.4
128,22,1,1,5,34,234,317.8449743685778,318.67175305553246,"[85, 0, 169]",169,l,0.30379817134235054,colour,0.4
128,22,1,1,5,35,235,319.18845409178175,319.9997522709891,"[17, 0, 237]",237,a,0.28794587298762053,colour,0.4
128,22,1,1,5,36,236,320.51657697488554,321.30375484831166,"[81, 0, 173]",173,l,0.2638031180249527,colour,0.4
128,22,1,1,5,37,237,321.8134068303043,322.5677816707175,"[33, 0, 221]",221,a,0.23108003579545766,colour,0.4
128,22,1,1,5,38,238,323.0790330610471,323.8078409996815,"[65, 0, 189]",189,l,0.20550565083976835,colour,0.4
128,22,1,1,5,39,239,324.31516220152844,325.11180379858706,"[79, 0, 175]",175,l,0.27356695220805705,colour,0.4
128,22,1,1,5,40,240,325.6277907922631,326.36781191814225,"[29, 0, 225]",225,a,0.21675546583719552,colour,0.4
128,22,1,1,5,41,241,326.87773013999686,327.56781632918864,"[60, 0, 194]",194,l,0.1667393968673423,colour,0.4
128,22,1,1,5,42,242,328.0808892569039,328.7917531814892,"[39, 0, 215]",215,a,0.18757660302799195,colour,0.4
128,22,1,1,5,43,243,329.2995800814824,330.0957108604489,"[11, 0, 243]",243,a,0.2727812296943739,colour,0.4
128,22,1,1,5,44,244,330.6120629492216,331.3357670386322,"[22, 0, 232]",232,a,0.20036044786684215,colour,0.4
128,22,1,1,5,45,245,331.8464331738651,332.72779102856293,"[41, 0, 213]",213,a,0.35809967771638185,colour,0.4
128,22,1,1,5,46,246,333.2370219891891,333.8797312710667,"[86, 0, 168]",168,l,0.11932704329956323,colour,0.4
128,22,1,1,5,47,247,334.3870642882539,335.11171124479733,"[12, 0, 242]",242,a,0.20131985645275563,colour,0.4
128,22,1,1,5,48,248,335.62141482066363,336.3197654726682,"[35, 0, 219]",219,a,0.1749829858308658,colour,0.4
128,22,1,1,5,49,249,336.84017890063114,337.57574759831186,"[40, 0, 214]",214,a,0.2105527863604948,colour,0.4
128,22,1,1,5,50,250,338.0917775211856,338.8317632009275,"[70, 0, 184]",184,l,0.2166975704021752,colour,0.4
128,22,1,1,6,1,251,343.79410129087046,344.48772815498523,"[20, 0, 234]",234,a,0.1694848968181759,colour,0.28
128,22,1,1,6,2,252,344.9980268320069,345.73574671614915,"[74, 0, 180]",180,l,0.21431874111294746,colour,0.28
128,22,1,1,6,3,253,346.24798902275506,346.93576569948345,"[18, 0, 236]",236,a,0.1644086167216301,colour,0.28
128,22,1,1,6,4,254,347.4510870935628,348.0877232713392,"[75, 0, 179]",179,l,0.11325827159453183,colour,0.28
128,22,1,1,6,5,255,348.6074328966206,349.2957400837913,"[14, 0, 240]",240,a,0.16490289336070418,colour,0.28
128,22,1,1,6,6,256,349.81056011200417,350.43176225572824,"[95, 0, 159]",159,l,0.0979057636577636,colour,0.28
128,22,1,1,6,7,257,350.9511615304509,351.679730010801,"[52, 0, 202]",202,a,0.20533511566463858,colour,0.28
128,22,1,1,6,8,258,352.20113396120723,352.8397649684921,"[93, 0, 161]",161,l,0.11533226410392672,colour,0.28
128,22,1,1,6,9,259,353.3573797274148,353.9677660744637,"[8, 0, 246]",246,a,0.08703916089143604,colour,0.28
128,22,1,1,6,10,260,354.48243565345183,355.2397513415199,"[72, 0, 182]",182,l,0.23400709871202707,colour,0.28
128,22,1,1,6,11,261,355.7480102904374,356.35175521380734,"[86, 0, 168]",168,l,0.08027643256355077,colour,0.28
128,22,1,1,6,12,262,356.87302210577764,357.5837300674757,"[60, 0, 194]",194,l,0.18737219693139195,colour,0.28
128,22,1,1,6,13,263,358.0917779150186,358.79172482457943,"[62, 0, 192]",192,l,0.17668755096383393,colour,0.28
128,22,1,1,6,14,264,359.3104651950998,360.0158188214991,"[56, 0, 198]",198,l,0.18232584930956364,colour,0.28
128,22,1,1,6,15,265,360.52926038892474,361.2877245316049,"[89, 0, 165]",165,l,0.23544818093068898,colour,0.28
128,22,1,1,6,16,266,361.7947964289924,362.46373427379876,"[30, 0, 224]",224,a,0.14563910174183547,colour,0.28
128,22,1,1,6,17,267,362.9824198996648,363.62373339151964,"[45, 0, 209]",209,a,0.11804783181287348,colour,0.28
128,22,1,1,6,18,268,364.138601468876,364.855741328327,"[19, 0, 235]",235,a,0.19381551630795002,colour,0.28
128,22,1,1,6,19,269,365.373092998052,366.0957435496384,"[57, 0, 197]",197,l,0.1993565345183015,colour,0.28
128,22,1,1,6,20,270,366.60732695204206,367.2317184600979,"[87, 0, 167]",167,l,0.10093483270611614,colour,0.28
128,22,1,1,6,21,271,367.74961678800173,368.43986799858976,"[68, 0, 186]",186,l,0.16690244909841567,colour,0.28
128,22,1,1,6,22,272,368.95280032325536,369.5917054474121,"[84, 0, 170]",170,l,0.11586277466267347,colour,0.28
128,22,1,1,6,23,273,370.1094293015776,370.8077307228232,"[65, 0, 189]",189,l,0.1749747151043266,colour,0.28
128,22,1,1,6,24,274,371.3282441876363,371.9756871035788,"[44, 0, 210]",210,a,0.12420167424716055,colour,0.28
128,22,1,1,6,25,275,372.48441748612095,373.0797242606059,"[58, 0, 196]",196,a,0.07199779129587114,colour,0.28
128,22,1,1,6,26,276,373.5844949162565,374.1597446933156,"[73, 0, 181]",181,l,0.052001839969307184,colour,0.28
128,22,1,1,6,27,277,374.6782853839686,375.3596880582627,"[83, 0, 171]",171,l,0.16754363023210317,colour,0.28
128,22,1,1,6,28,278,375.87212965090293,376.52776692516636,"[25, 0, 229]",229,a,0.13242872175760567,colour,0.28
128,22,1,1,6,29,279,377.0439516294282,377.69577608129475,"[27, 0, 227]",227,a,0.1285690317163244,colour,0.28
128,22,1,1,6,30,280,378.2158697063569,378.91971450904384,"[88, 0, 166]",166,l,0.18054802878759801,colour,0.28
128,22,1,1,6,31,281,379.4345357187558,380.18382640217897,"[59, 0, 195]",195,l,0.22596279566641897,colour,0.28
128,22,1,1,6,32,282,380.70016588794533,381.79974470916204,"[49, 0, 205]",205,l,0.576604213216342,colour,0.28
128,22,1,1,6,33,283,382.30949554638937,383.0237363060005,"[98, 0, 156]",156,l,0.19106922869104892,colour,0.28
128,22,1,1,6,34,284,383.54390909406357,384.1677094394108,"[94, 0, 160]",160,l,0.10056264826562256,colour,0.28
128,22,1,1,6,35,285,384.6844510418596,385.31973357114475,"[91, 0, 163]",163,l,0.1119463708018884,colour,0.28
128,22,1,1,6,36,286,385.8407964509679,386.5836902890587,"[63, 0, 191]",191,l,0.21954743948299438,colour,0.28
128,22,1,1,6,37,287,387.09086025401484,387.7837510200916,"[82, 0, 172]",172,l,0.16958493366837502,colour,0.28
128,22,1,1,6,38,288,388.2939906201791,388.9838034803979,"[69, 0, 185]",185,l,0.16656571091152728,colour,0.28
128,22,1,1,6,39,289,389.49709971866105,390.2157976325834,"[54, 0, 200]",200,l,0.19553032144904137,colour,0.28
128,22,1,1,6,40,290,390.73139117413666,391.35972507984843,"[64, 0, 190]",190,l,0.10503595031332225,colour,0.28
128,22,1,1,6,41,291,391.8720638786908,392.50370727165136,"[90, 0, 164]",164,l,0.10851912351790816,colour,0.28
128,22,1,1,6,42,292,393.01258258952294,393.5917479827767,"[0, 0, 254]",254,a,0.05585680389776826,colour,0.28
128,22,1,1,6,43,293,394.10635651566554,394.7996966599021,"[51, 0, 203]",203,l,0.17000359192024916,colour,0.28
128,22,1,1,6,44,294,395.30947427870706,396.02372133987956,"[71, 0, 183]",183,l,0.19121928396634758,colour,0.28
128,22,1,1,6,45,295,396.5438649833668,397.1516984212212,"[80, 0, 174]",174,l,0.08450200548395514,colour,0.28
128,22,1,1,6,46,296,397.66888506955,398.3357729462441,"[10, 0, 244]",244,a,0.14365648129023612,colour,0.28
128,22,1,1,6,47,297,398.8573308904888,399.5437614019029,"[6, 0, 248]",248,a,0.17559265939053148,colour,0.28
128,22,1,1,6,48,298,400.063677008613,400.78374038625043,"[85, 0, 169]",169,l,0.1967268253210932,colour,0.28
128,22,1,1,6,49,299,401.2980204516789,401.9196952105267,"[55, 0, 199]",199,l,0.09840200957842171,colour,0.28
128,22,1,1,6,50,300,402.43863841169514,403.11175023554824,"[53, 0, 201]",201,l,0.14974297618027776,colour,0.28
128,22,1,1,7,1,301,407.83482298988383,408.4876608073246,"[94, 0, 160]",160,l,0.14112444582860917,colour,0.14
128,22,1,1,7,2,302,408.99556726415176,409.567724563065,"[88, 0, 166]",166,l,0.048818777315318584,colour,0.14
128,22,1,1,7,3,303,410.0892915657023,410.6637367155636,"[92, 0, 162]",162,l,0.05104400671552867,colour,0.14
128,22,1,1,7,4,304,411.1830501318909,411.83971888851374,"[78, 0, 176]",176,l,0.1333664688281715,colour,0.14
128,22,1,1,7,5,305,412.3549682088196,413.03179557505064,"[4, 0, 250]",250,a,0.153482937021181,colour,0.14
128,22,1,1,7,6,306,413.5423065350624,414.22372260014527,"[59, 0, 195]",195,l,0.1580180727178231,colour,0.14
128,22,1,1,7,7,307,414.7298492672853,415.4317098741885,"[72, 0, 182]",182,l,0.1785153899108991,colour,0.14
128,22,1,1,7,8,308,415.9485964119667,416.59966349811293,"[80, 0, 174]",174,l,0.12768878613132983,colour,0.14
128,22,1,1,7,9,309,417.12046131968964,417.77572956017684,"[51, 0, 203]",203,a,0.13186355284415185,colour,0.14
128,22,1,1,7,10,310,418.29238648572937,418.8876700233668,"[95, 0, 159]",159,l,0.07183631451334804,colour,0.14
128,22,1,1,7,11,311,419.402761017438,420.0796899960842,"[63, 0, 191]",191,a,0.1533269741339609,colour,0.14
128,22,1,1,7,12,312,420.5901765375165,421.1276785461232,"[85, 0, 169]",169,l,0.012578650959767401,colour,0.14
128,22,1,1,7,13,313,421.6386778750457,422.25572455045767,"[83, 0, 171]",171,l,0.09378219686914235,colour,0.14
128,22,1,1,7,14,314,422.7637271058047,423.4876745919464,"[66, 0, 188]",188,a,0.20055343233980238,colour,0.14
128,22,1,1,7,15,315,423.9980835458264,425.05571974557824,"[77, 0, 177]",177,l,0.5342882259283215,colour,0.14
128,22,1,1,7,16,316,425.576227302663,426.3596979044378,"[48, 0, 206]",206,a,0.26022778474725783,colour,0.14
128,22,1,1,7,17,317,426.8748196186498,427.50371475471184,"[28, 0, 226]",226,a,0.10556291602551937,colour,0.14
128,22,1,1,7,18,318,428.0154155232012,428.71170242270455,"[89, 0, 165]",165,l,0.17292041482869536,colour,0.14
128,22,1,1,7,19,319,429.218602603185,429.9277371504577,"[69, 0, 185]",185,l,0.18596774246543646,colour,0.14
128,22,1,1,7,20,320,430.43930007284507,431.07172170537524,"[97, 0, 157]",157,l,0.1091311601921916,colour,0.14
128,22,1,1,7,21,321,431.5683751965407,432.2316830139607,"[52, 0, 202]",202,a,0.1401240772102028,colour,0.14
128,22,1,1,7,22,322,432.74021804891527,433.34367467695847,"[75, 0, 179]",179,l,0.08013661717996001,colour,0.14
128,22,1,1,7,23,323,433.84956149198115,434.471665936755,"[65, 0, 189]",189,a,0.09871157247107476,colour,0.14
128,22,1,1,7,24,324,434.9902318335371,435.56768636009656,"[87, 0, 167]",167,l,0.05421486031264067,colour,0.14
128,22,1,1,7,25,325,436.08388957509305,436.7356813377701,"[53, 0, 201]",201,a,0.12851743795908988,colour,0.14
128,22,1,1,7,26,326,437.2568663097918,437.8637269482715,"[15, 0, 239]",239,a,0.08347367378883064,colour,0.14
128,22,1,1,7,27,327,438.3818552821176,439.03167545213364,"[54, 0, 200]",200,a,0.12659389444161206,colour,0.14
128,22,1,1,7,28,328,439.53816642670427,440.08772602817044,"[86, 0, 168]",168,l,0.026286064414307475,colour,0.14
128,22,1,1,7,29,329,440.6027071393328,441.1677145593567,"[12, 0, 242]",242,a,0.05403566034510732,colour,0.14
128,22,1,1,7,30,330,441.68413281429093,442.28770050697494,"[84, 0, 170]",170,l,0.08026855567004532,colour,0.14
128,22,1,1,7,31,331,442.80903041444253,443.46365865529515,"[64, 0, 190]",190,l,0.1311963777989149,colour,0.14
128,22,1,1,7,32,332,443.9809760604985,444.63165914686397,"[68, 0, 186]",186,l,0.12730006012134254,colour,0.14
128,22,1,1,7,33,333,445.15277440822683,445.7676399650518,"[61, 0, 193]",193,l,0.09176373656373471,colour,0.14
128,22,1,1,7,34,334,446.277849632781,447.33566542633343,"[58, 0, 196]",196,a,0.5345532841747627,colour,0.14
128,22,1,1,7,35,335,447.8559138329001,448.4796614028746,"[90, 0, 164]",164,l,0.1002952269045636,colour,0.14
128,22,1,1,7,36,336,448.99655502976384,449.759642529767,"[73, 0, 181]",181,l,0.23981868918053806,colour,0.14
128,22,1,1,7,37,337,450.27788153430447,450.9836731173564,"[79, 0, 175]",175,l,0.18254758440889418,colour,0.14
128,22,1,1,7,38,338,451.4965869312873,452.1436836567009,"[56, 0, 198]",198,a,0.12376883765682578,colour,0.14
128,22,1,1,7,39,339,452.65277322672773,453.2798267393373,"[99, 0, 155]",155,l,0.10320180980488658,colour,0.14
128,22,1,1,7,40,340,453.79341599904,454.53573442820925,"[81, 0, 173]",173,l,0.2194017166038975,colour,0.14
128,22,1,1,7,41,341,455.04340851597954,455.64032021246385,"[62, 0, 192]",192,a,0.07362752570770681,colour,0.14
128,22,1,1,7,42,342,456.15283781744074,456.6797091369517,"[74, 0, 180]",180,l,0.0038285761838778853,colour,0.14
128,22,1,1,7,43,343,457.1998433280969,457.87171729432885,"[96, 0, 158]",158,l,0.14873669983353466,colour,0.14
128,22,1,1,7,44,344,458.38873970881104,459.3996642070124,"[17, 0, 237]",237,a,0.4876793180592358,colour,0.14
128,22,1,1,7,45,345,459.92002446576953,460.655679021962,"[91, 0, 163]",163,l,0.21259093913249671,colour,0.14
128,22,1,1,7,46,346,461.16989016428124,461.9516550193075,"[82, 0, 172]",172,l,0.2585783579852432,colour,0.14
128,22,1,1,7,47,347,462.46680154581554,463.655670357286,"[67, 0, 187]",187,l,0.6656275697750971,colour,0.14
128,22,1,1,7,48,348,464.1699421519879,465.0077989369165,"[60, 0, 194]",194,a,0.3147179433144629,colour,0.14
128,22,1,1,7,49,349,465.5136668473715,466.2556804397609,"[93, 0, 161]",161,l,0.21874281228519976,colour,0.14
128,22,1,1,7,50,350,466.7636790565448,467.52776810666546,"[10, 0, 244]",244,a,0.2407300485065207,colour,0.14
128,22,1,1,8,1,351,472.2941292539472,472.9836636650143,"[96, 0, 158]",158,l,0.1633042726898566,colour,0.06
128,22,1,1,8,2,352,473.5002213414991,474.0876744344132,"[87, 0, 167]",167,l,0.06410826987121254,colour,0.06
128,22,1,1,8,3,353,474.58156470255926,475.17563165014144,"[66, 0, 188]",188,l,0.07070637051947415,colour,0.06
128,22,1,1,8,4,354,475.69111806561705,476.23968438769225,"[67, 0, 187]",187,l,0.025260883616283536,colour,0.06
128,22,1,1,8,5,355,476.75350719795097,477.69564689986873,"[65, 0, 189]",189,l,0.4187098080292344,colour,0.06
128,22,1,1,8,6,356,478.2066225979943,478.8636926836334,"[64, 0, 190]",190,a,0.13371620408724993,colour,0.06
128,22,1,1,8,7,357,479.3784642687533,480.023663838394,"[46, 0, 208]",208,a,0.12184135569259524,colour,0.06
128,22,1,1,8,8,358,480.5354236837011,481.1596304780105,"[88, 0, 166]",166,l,0.10106362029910088,colour,0.06
128,22,1,1,8,9,359,481.6759790221695,482.28774304233957,"[93, 0, 161]",161,l,0.08834279084112495,colour,0.06
128,22,1,1,8,10,360,482.8009861113969,483.45568288164213,"[50, 0, 204]",204,a,0.13137518393341452,colour,0.06
128,22,1,1,8,11,361,483.97291127755307,484.68766167375725,"[52, 0, 202]",202,a,0.1914122684393078,colour,0.06
128,22,1,1,8,12,362,485.2072598406812,485.847628102405,"[60, 0, 194]",194,a,0.11704194941557944,colour,0.06
128,22,1,1,8,13,363,486.3634788253112,487.11174708476756,"[71, 0, 183]",183,l,0.22513335617259145,colour,0.06
128,22,1,1,8,14,364,487.63066192902625,488.36769061360974,"[51, 0, 203]",203,a,0.2128485143184662,colour,0.06
128,22,1,1,8,15,365,488.8785434317542,489.5117062823847,"[77, 0, 177]",177,l,0.1100117996102199,colour,0.06
128,22,1,1,8,16,366,490.01938470243476,490.72764569940045,"[55, 0, 199]",199,a,0.18512294290121645,colour,0.06
128,22,1,1,8,17,367,491.24079148855526,491.99977826478425,"[91, 0, 163]",163,l,0.23544699931517243,colour,0.06
128,22,1,1,8,18,368,492.5062251286581,493.2078384003835,"[97, 0, 157]",157,l,0.17830901476554573,colour,0.06
128,22,1,1,8,19,369,493.72557525138836,494.2877178362105,"[9, 0, 245]",245,a,0.03969415498431772,colour,0.06
128,22,1,1,8,20,370,494.8031877101166,495.5277598359389,"[84, 0, 170]",170,l,0.2000481280265376,colour,0.06
128,22,1,1,8,21,371,496.0384724449832,496.77564960950986,"[53, 0, 201]",201,a,0.21380516595672816,colour,0.06
128,22,1,1,8,22,372,497.28829718357883,497.95971428847406,"[81, 0, 173]",173,l,0.14794782642275095,colour,0.06
128,22,1,1,8,23,373,498.47588284499943,499.14369310904294,"[76, 0, 178]",178,l,0.14435477019287646,colour,0.06
128,22,1,1,8,24,374,499.66339958354365,500.3036118822638,"[54, 0, 200]",200,a,0.11690804176032543,colour,0.06
128,22,1,1,8,25,375,500.8197430234868,501.51167713769246,"[68, 0, 186]",186,a,0.16892563551664352,colour,0.06
128,22,1,1,8,26,376,502.0234350138344,502.74365002219565,"[59, 0, 195]",195,a,0.1969178405124694,colour,0.06
128,22,1,1,8,27,377,503.25777491240297,503.95164989936166,"[94, 0, 160]",160,l,0.17044194240588695,colour,0.06
128,22,1,1,8,28,378,504.46089582622517,505.1916544837877,"[78, 0, 176]",176,l,0.20745558210182935,colour,0.06
128,22,1,1,8,29,379,505.71086983243003,506.34364435088355,"[82, 0, 172]",172,l,0.10948443994857371,colour,0.06
128,22,1,1,8,30,380,506.85146416164935,507.54359441122506,"[98, 0, 156]",156,l,0.16879921103827655,colour,0.06
128,22,1,1,8,31,381,508.05458271235693,508.7516580913216,"[69, 0, 185]",185,l,0.1738089311402291,colour,0.06
128,22,1,1,8,32,382,509.25773237703834,509.9916288049426,"[63, 0, 191]",191,a,0.21042951254639775,colour,0.06
128,22,1,1,8,33,383,510.50777373078745,511.3435994524043,"[56, 0, 198]",198,a,0.31282511982135475,colour,0.06
128,22,1,1,8,34,384,511.85150118311867,512.6076554195024,"[90, 0, 164]",164,l,0.2328673085430637,colour,0.06
128,22,1,1,8,35,385,513.1170813339995,513.903658198542,"[58, 0, 196]",196,a,0.2724952974822372,colour,0.06
128,22,1,1,8,36,386,514.4199724780628,515.1517094488954,"[80, 0, 174]",174,l,0.2085485045099631,colour,0.06
128,22,1,1,8,37,387,515.6699098566314,516.4316720650531,"[72, 0, 182]",182,l,0.23862651747185737,colour,0.06
128,22,1,1,8,38,388,516.9511957949726,517.5915884751594,"[95, 0, 159]",159,l,0.11718727846164256,colour,0.06
128,22,1,1,8,39,389,518.107471099589,518.727638610173,"[70, 0, 184]",184,a,0.09681559819728136,colour,0.06
128,22,1,1,8,40,390,519.2487479638075,520.0076252509607,"[19, 0, 235]",235,a,0.23544542398303747,colour,0.06
128,22,1,1,8,41,391,520.5143761638319,521.2716327749658,"[75, 0, 179]",179,l,0.23388067411724478,colour,0.06
128,22,1,1,8,42,392,521.779967342387,522.5036222009221,"[79, 0, 175]",175,l,0.2003379985690117,colour,0.06
128,22,1,1,8,43,393,523.0142871546559,523.7116433457704,"[92, 0, 162]",162,l,0.17396134953014553,colour,0.06
128,22,1,1,8,44,394,524.233142213081,524.9356479395647,"[61, 0, 193]",193,a,0.17929205403197557,colour,0.06
128,22,1,1,8,45,395,525.4517944408581,526.1596489887452,"[62, 0, 192]",192,a,0.18458022316917777,colour,0.06
128,22,1,1,8,46,396,526.6706621022895,527.2156341865193,"[57, 0, 197]",197,a,0.02231530996505171,colour,0.06
128,22,1,1,8,47,397,527.7330949516036,528.5116917100968,"[99, 0, 155]",155,l,0.25528304919134825,colour,0.06
128,22,1,1,8,48,398,529.0299787638942,529.7916247877292,"[86, 0, 168]",168,l,0.2383240438066423,colour,0.06
128,22,1,1,8,49,399,530.3111918407958,531.0636372300796,"[85, 0, 169]",169,l,0.22937822749372572,colour,0.06
128,22,1,1,8,50,400,531.5768704530783,532.2396418523276,"[74, 0, 180]",180,l,0.1395313391694799,colour,0.06
128,22,1,1,9,1,401,537.232252515154,537.7836454693461,"[57, 0, 197]",197,a,0.025091135874390602,colour,0.06
128,22,1,1,9,2,402,538.2978963901987,538.9196258937009,"[93, 0, 161]",161,l,0.09843233576975763,colour,0.06
128,22,1,1,9,3,403,539.4387423869921,540.063618719345,"[79, 0, 175]",175,l,0.10149330622516572,colour,0.06
128,22,1,1,9,4,404,540.5793422301067,541.367613419774,"[69, 0, 185]",185,l,0.26478576357476413,colour,0.06
128,22,1,1,9,5,405,541.8762583377538,542.4635968215298,"[50, 0, 204]",204,a,0.06400153751019388,colour,0.06
128,22,1,1,9,6,406,542.9703205591068,543.6316150361672,"[96, 0, 158]",158,l,0.1384766197297722,colour,0.06
128,22,1,1,9,7,407,544.1419341930887,544.7356155654415,"[12, 0, 242]",242,a,0.0703168569598347,colour,0.06
128,22,1,1,9,8,408,545.2513150515733,545.9196262875339,"[72, 0, 182]",182,l,0.14503533591050655,colour,0.06
128,22,1,1,9,9,409,546.4388042207574,547.1036377972923,"[89, 0, 165]",165,l,0.14149899338372052,colour,0.06
128,22,1,1,9,10,410,547.6107061500661,548.3516319399932,"[65, 0, 189]",189,l,0.21762940986081958,colour,0.06
128,22,1,1,9,11,411,548.860720328521,549.6556089173537,"[53, 0, 201]",201,a,0.27157999959308654,colour,0.06
128,22,1,1,9,12,412,550.17324770079,550.8555963929975,"[52, 0, 202]",202,a,0.1590720044914633,colour,0.06
128,22,1,1,9,13,413,551.376318202354,552.0636321101338,"[61, 0, 193]",193,a,0.16391946002840996,colour,0.06
128,22,1,1,9,14,414,552.579532457632,553.1916257329285,"[84, 0, 170]",170,l,0.08878035366069525,colour,0.06
128,22,1,1,9,15,415,553.7045525438152,554.4076411622809,"[85, 0, 169]",169,l,0.17986076755914837,colour,0.06
128,22,1,1,9,16,416,554.923272513086,555.5836367260199,"[55, 0, 199]",199,a,0.13704892829991877,colour,0.06
128,22,1,1,9,17,417,556.0952063438017,556.7436011853861,"[54, 0, 200]",200,a,0.1250953107373789,colour,0.06
128,22,1,1,9,18,418,557.2513950022403,557.9196290444816,"[83, 0, 171]",171,l,0.1449073359835893,colour,0.06
128,22,1,1,9,19,419,558.4389046515571,559.231614878634,"[60, 0, 194]",194,l,0.2676159404218197,colour,0.06
128,22,1,1,9,20,420,559.7531984227244,560.3516571461223,"[68, 0, 186]",186,l,0.07544748776126653,colour,0.06
128,22,1,1,9,21,421,560.8626080319518,561.5596318171592,"[86, 0, 168]",168,l,0.17371834663208574,colour,0.06
128,22,1,1,9,22,422,562.0813027950935,562.7436638068175,"[81, 0, 173]",173,l,0.13909732084721327,colour,0.06
128,22,1,1,9,23,423,563.2531468289671,563.9916118696565,"[63, 0, 191]",191,a,0.2153226543450728,colour,0.06
128,22,1,1,9,24,424,564.5031184720574,565.0956123989308,"[78, 0, 176]",176,l,0.06933224212843925,colour,0.06
128,22,1,1,9,25,425,565.6125745550962,566.3676161767216,"[73, 0, 181]",181,l,0.23171491548419,colour,0.06
128,22,1,1,9,26,426,566.8781688843155,567.5675926246913,"[87, 0, 167]",167,l,0.1648599641630426,colour,0.06
128,22,1,1,9,27,427,568.0825300189899,568.7596252005314,"[91, 0, 163]",163,l,0.1537121554138139,colour,0.06
128,22,1,1,9,28,428,569.2700061913347,570.0076150109526,"[98, 0, 156]",156,l,0.21432898112107068,colour,0.06
128,22,1,1,9,29,429,570.5200325789629,571.127602927736,"[82, 0, 172]",172,l,0.0825449851108715,colour,0.06
128,22,1,1,9,30,430,571.6466205656761,572.2716134764487,"[95, 0, 159]",159,l,0.10173945990391076,colour,0.06
128,22,1,1,9,31,431,572.7872475842014,573.4396029403433,"[62, 0, 192]",192,a,0.129004625370726,colour,0.06
128,22,1,1,9,32,432,573.9590569596039,574.9036073923344,"[5, 0, 249]",249,a,0.4336464145453647,colour,0.06
128,22,1,1,9,33,433,575.4153766899835,576.1436245797668,"[51, 0, 203]",203,a,0.20483296201564372,colour,0.06
128,22,1,1,9,34,434,576.6497989023337,577.3036252729362,"[80, 0, 174]",174,l,0.1429006909020245,colour,0.06
128,22,1,1,9,35,435,577.8249209157657,578.4955975903431,"[88, 0, 166]",166,l,0.1474334637168795,colour,0.06
128,22,1,1,9,36,436,579.0123529772973,579.6715793694602,"[77, 0, 177]",177,l,0.1358713289955631,colour,0.06
128,22,1,1,9,37,437,580.1842033127323,580.8396251532249,"[64, 0, 190]",190,l,0.1321455464931205,colour,0.06
128,22,1,1,9,38,438,581.3560646758415,582.023591370671,"[92, 0, 162]",162,l,0.14426969934720546,colour,0.06
128,22,1,1,9,39,439,582.5435436051339,583.2235965694999,"[71, 0, 183]",183,l,0.1567329536192119,colour,0.06
128,22,1,1,9,40,440,583.7310910634696,584.4156027575955,"[90, 0, 164]",164,l,0.16155677835922688,colour,0.06
128,22,1,1,9,41,441,584.9341655035969,585.8235991689144,"[67, 0, 187]",187,l,0.3660849038278684,colour,0.06
128,22,1,1,9,42,442,586.3404861004092,586.9676349237561,"[29, 0, 225]",225,a,0.1039083693176508,colour,0.06
128,22,1,1,9,43,443,587.4811016973108,588.2076131204376,"[70, 0, 184]",184,l,0.20323906757403165,colour,0.06
128,22,1,1,9,44,444,588.715362038929,589.4156157545513,"[66, 0, 188]",188,l,0.17691992013715208,colour,0.06
128,22,1,1,9,45,445,589.9341655035969,590.5515997234033,"[76, 0, 178]",178,l,0.09410948283039033,colour,0.06
128,22,1,1,9,46,446,591.0590666482458,591.7755921080243,"[99, 0, 155]",155,l,0.2054489371366799,colour,0.06
128,22,1,1,9,47,447,592.2967471478041,593.0235606507631,"[94, 0, 160]",160,l,0.20353917824104428,colour,0.06
128,22,1,1,9,48,448,593.5311953539494,594.2956175976433,"[58, 0, 196]",196,a,0.24113413447048515,colour,0.06
128,22,1,1,9,49,449,594.8123721970478,595.5115774946753,"[97, 0, 157]",157,l,0.17586756369564682,colour,0.06
128,22,1,1,9,50,450,596.031203230843,596.743592126877,"[56, 0, 198]",198,a,0.18926186976023018,colour,0.06
128,22,1,1,10,1,451,601.6083852159791,602.1515849935822,"[88, 0, 166]",166,l,0.018913662643171847,colour,0.06
128,22,1,1,10,2,452,602.6717951969476,603.2716059933882,"[91, 0, 163]",163,l,0.07657940092030913,colour,0.06
128,22,1,1,10,3,453,603.7810452986741,604.4796295013512,"[85, 0, 169]",169,l,0.17508617357816547,colour,0.06
128,22,1,1,10,4,454,604.9999645538628,605.6315661992412,"[65, 0, 189]",189,a,0.10838167136535048,colour,0.06
128,22,1,1,10,5,455,606.1405131970532,606.7596066897968,"[82, 0, 172]",172,l,0.09581207879818976,colour,0.06
128,22,1,1,10,6,456,607.2811748739332,607.903584943153,"[80, 0, 174]",174,l,0.09915031678974628,colour,0.06
128,22,1,1,10,7,457,608.4217388770776,609.0875704591163,"[74, 0, 180]",180,l,0.14253795892000198,colour,0.06
128,22,1,1,10,8,458,609.6092111108592,610.2876402485417,"[54, 0, 200]",200,a,0.15508864680305123,colour,0.06
128,22,1,1,10,9,459,610.7967333631823,611.4715832291404,"[94, 0, 160]",160,l,0.15159917203709483,colour,0.06
128,22,1,1,10,10,460,611.9842386801029,612.6476134512341,"[62, 0, 192]",192,a,0.14002876647282392,colour,0.06
128,22,1,1,10,11,461,613.1569405103801,613.8955741170794,"[77, 0, 177]",177,l,0.21612688770983368,colour,0.06
128,22,1,1,10,12,462,614.4060649909079,615.0236047614599,"[89, 0, 165]",165,l,0.09414650441613048,colour,0.06
128,22,1,1,10,13,463,615.5311717231525,616.2476030538091,"[53, 0, 201]",201,a,0.19324050121940672,colour,0.06
128,22,1,1,10,14,464,616.7654596340144,617.4879329547985,"[61, 0, 193]",193,a,0.19915724848397076,colour,0.06
128,22,1,1,10,15,465,617.9997814155649,618.5595684079453,"[98, 0, 156]",156,l,0.03639018163084984,colour,0.06
128,22,1,1,10,16,466,619.0779141447274,619.7276319147786,"[69, 0, 185]",185,l,0.12636388838291168,colour,0.06
128,22,1,1,10,17,467,620.2348656827817,620.8956068062689,"[55, 0, 199]",199,a,0.13748570333700627,colour,0.06
128,22,1,1,10,18,468,621.4067345289513,622.1276241954183,"[79, 0, 175]",175,l,0.19748419104143977,colour,0.06
128,22,1,1,10,19,469,622.6411539843539,623.3515760138398,"[34, 0, 220]",220,a,0.18787277513183653,colour,0.06
128,22,1,1,10,20,470,623.8598605628358,624.5515764864394,"[36, 0, 218]",218,a,0.16844120505265892,colour,0.06
128,22,1,1,10,21,471,625.0629787197104,625.7755428772653,"[75, 0, 179]",179,l,0.18921382050029933,colour,0.06
128,22,1,1,10,22,472,626.2817479197402,627.303613851429,"[73, 0, 181]",181,l,0.49858963780570775,colour,0.06
128,22,1,1,10,23,473,627.8129361843457,628.4635987908114,"[63, 0, 191]",191,l,0.12731266324408352,colour,0.06
128,22,1,1,10,24,474,628.9847995167365,629.7035994366743,"[84, 0, 170]",170,l,0.19546179217286408,colour,0.06
128,22,1,1,10,25,475,630.2193091628142,630.9435563656734,"[60, 0, 194]",194,l,0.20120761031284928,colour,0.06
128,22,1,1,10,26,476,631.4535364212934,632.0475706795696,"[76, 0, 178]",178,l,0.07061224128119648,colour,0.06
128,22,1,1,10,27,477,632.5629712366499,633.2075804312481,"[83, 0, 171]",171,l,0.12131202674936503,colour,0.06
128,22,1,1,10,28,478,633.7191504428629,634.479585390538,"[87, 0, 167]",167,l,0.23609999590553343,colour,0.06
128,22,1,1,10,29,479,635.0004233843647,635.7035832889378,"[68, 0, 186]",186,l,0.17987888446077704,colour,0.06
128,22,1,1,10,30,480,636.219160289038,636.9035782477586,"[86, 0, 168]",168,l,0.1612523355288431,colour,0.06
128,22,1,1,10,31,481,637.4222910490353,638.1356929168105,"[56, 0, 198]",198,a,0.19009800464846194,colour,0.06
128,22,1,1,10,32,482,638.6566963258665,639.4475692617707,"[81, 0, 173]",173,l,0.2675513495923951,colour,0.06
128,22,1,1,10,33,483,639.96925008588,640.695554739912,"[93, 0, 161]",161,l,0.2032402491895482,colour,0.06
128,22,1,1,10,34,484,641.2034816767555,641.8475603609113,"[31, 0, 223]",223,a,0.1205759288277477,colour,0.06
128,22,1,1,10,35,485,642.3598196028033,643.1515972027555,"[72, 0, 182]",182,l,0.2685123336268589,colour,0.06
128,22,1,1,10,36,486,643.6722485136706,644.2795601056423,"[52, 0, 202]",202,a,0.08396283036563545,colour,0.06
128,22,1,1,10,37,487,644.7972556028981,645.4156204806641,"[90, 0, 164]",164,l,0.09509015921503305,colour,0.06
128,22,1,1,10,38,488,645.9223355535651,646.5835173906526,"[99, 0, 155]",155,l,0.13797013380099088,colour,0.06
128,22,1,1,10,39,489,647.0941173598403,647.8319101055386,"[58, 0, 196]",196,l,0.21448179334402084,colour,0.06
128,22,1,1,10,40,490,648.3441535936436,648.9116087660659,"[51, 0, 203]",203,a,0.04411901393905282,colour,0.06
128,22,1,1,10,41,491,649.422310347436,650.0955852235202,"[57, 0, 197]",197,a,0.15001827443484217,colour,0.06
128,22,1,1,10,42,492,650.6098302366445,651.1996219867142,"[67, 0, 187]",187,a,0.06654341914691031,colour,0.06
128,22,1,1,10,43,493,651.7190606460208,652.3595383968204,"[97, 0, 157]",157,l,0.11719003529287875,colour,0.06
128,22,1,1,10,44,494,652.8754635567311,653.5515449788654,"[78, 0, 176]",176,l,0.15273738675750792,colour,0.06
128,22,1,1,10,45,495,654.0629476059694,654.6475591005292,"[96, 0, 158]",158,l,0.061281243804842234,colour,0.06
128,22,1,1,10,46,496,655.156721532112,655.7755806865171,"[66, 0, 188]",188,l,0.09555017133243382,colour,0.06
128,22,1,1,10,47,497,656.2817278335569,656.9356573919067,"[71, 0, 183]",183,l,0.13066429202444851,colour,0.06
128,22,1,1,10,48,498,657.4535368151264,658.0796100453008,"[70, 0, 184]",184,l,0.10283277614507824,colour,0.06
128,22,1,1,10,49,499,658.5941476859152,659.2875413931906,"[92, 0, 162]",162,l,0.17001107486430556,colour,0.06
128,22,1,1,10,50,500,659.7972977444297,660.3755320858909,"[59, 0, 195]",195,a,0.05485761689487845,colour,0.06
128,22,1,1,11,1,501,664.776954027242,665.7835477956105,"[60, 0, 194]",194,a,0.4825368719175458,colour,0.06
128,22,1,1,11,2,502,666.2809850402409,667.0395291335881,"[56, 0, 198]",198,a,0.23529024864546955,colour,0.06
128,22,1,1,11,3,503,667.5465518002165,668.2155376942828,"[75, 0, 179]",179,l,0.14567494171205908,colour,0.06
128,22,1,1,11,4,504,668.7341079232283,669.5515244988492,"[9, 0, 245]",245,a,0.2942178692901507,colour,0.06
128,22,1,1,11,5,505,670.0621693663998,670.7676112141926,"[70, 0, 184]",184,l,0.18213010777253658,colour,0.06
128,22,1,1,11,6,506,671.2808735817671,672.0075354540022,"[91, 0, 163]",163,l,0.20330995984841138,colour,0.06
128,22,1,1,11,7,507,672.5152788587147,673.2715693657519,"[62, 0, 192]",192,l,0.23291614546906203,colour,0.06
128,22,1,1,11,8,508,673.7808790956624,674.463583824574,"[76, 0, 178]",178,l,0.15942410263232887,colour,0.06
128,22,1,1,11,9,509,674.9840689324774,675.7915310524404,"[73, 0, 181]",181,l,0.28416298294905573,colour,0.06
128,22,1,1,11,10,510,676.3121240740875,676.9515345025575,"[65, 0, 189]",189,a,0.11646614666096866,colour,0.06
128,22,1,1,11,11,511,677.4683403017698,678.1036177111091,"[90, 0, 164]",164,l,0.11186602618545294,colour,0.06
128,22,1,1,11,12,512,678.6246356925694,679.4635125384666,"[69, 0, 185]",185,l,0.31557967816479504,colour,0.06
128,22,1,1,11,13,513,679.9839692894602,680.6555687451037,"[53, 0, 201]",201,a,0.14824124169535935,colour,0.06
128,22,1,1,11,14,514,681.1714982371777,681.8235526949866,"[86, 0, 168]",168,l,0.12872263160534203,colour,0.06
128,22,1,1,11,15,515,682.3440149598755,683.0715279331198,"[57, 0, 197]",197,a,0.20423628541175276,colour,0.06
128,22,1,1,11,16,516,683.5690006238874,684.2635719304672,"[52, 0, 202]",202,a,0.17008905648253858,colour,0.06
128,22,1,1,11,17,517,684.7733609708957,685.6235585239483,"[77, 0, 177]",177,l,0.3268929022597149,colour,0.06
128,22,1,1,11,18,518,686.1327760939021,686.7596598588862,"[79, 0, 175]",175,l,0.1036578833591193,colour,0.06
128,22,1,1,11,19,519,687.2733719985699,688.023526386125,"[55, 0, 199]",199,a,0.2268253182992339,colour,0.06
128,22,1,1,11,20,520,688.5389935031999,689.1595627365168,"[41, 0, 213]",213,a,0.09734138252679259,colour,0.06
128,22,1,1,11,21,521,689.6795949216466,690.3115140068112,"[10, 0, 244]",244,a,0.10858607746195048,colour,0.06
128,22,1,1,11,22,522,690.8086964330869,691.4555922970176,"[83, 0, 171]",171,l,0.1235636438941583,colour,0.06
128,22,1,1,11,23,523,691.9649043900426,692.6475807620445,"[92, 0, 162]",162,l,0.1592957089887932,colour,0.06
128,22,1,1,11,24,524,693.1679674085462,693.743542896118,"[95, 0, 159]",159,l,0.05216764914803207,colour,0.06
128,22,1,1,11,25,525,694.2618094700156,694.8555534637999,"[97, 0, 157]",157,l,0.07070715818554163,colour,0.06
128,22,1,1,11,26,526,695.3712182914605,695.9835415728157,"[89, 0, 165]",165,l,0.08900602743960917,colour,0.06
128,22,1,1,11,27,527,696.4961568515282,697.0475305073196,"[87, 0, 167]",167,l,0.02425027487333864,colour,0.06
128,22,1,1,11,28,528,697.5624379692599,698.2795695579844,"[66, 0, 188]",188,l,0.19383993477094918,colour,0.06
128,22,1,1,11,29,529,698.7968310370343,699.3675051121973,"[71, 0, 183]",183,l,0.04741471668239683,colour,0.06
128,22,1,1,11,30,530,699.8750196923502,700.5035379179753,"[67, 0, 187]",187,l,0.10541010391898453,colour,0.06
128,22,1,1,11,31,531,701.0155269816751,701.8955697847996,"[58, 0, 196]",196,a,0.3567499676719308,colour,0.06
128,22,1,1,11,32,532,702.4065446952591,703.0875791236758,"[80, 0, 174]",174,l,0.15761950076557696,colour,0.06
128,22,1,1,11,33,533,703.5951925591798,704.215490432689,"[99, 0, 155]",155,l,0.09542492823675275,colour,0.06
128,22,1,1,11,34,534,704.721778576728,705.4635353815975,"[59, 0, 195]",195,a,0.21843443100806326,colour,0.06
128,22,1,1,11,35,535,705.9717419490917,706.6235175640322,"[51, 0, 203]",203,a,0.1284166134428233,colour,0.06
128,22,1,1,11,36,536,707.14366081357,707.8074873260921,"[72, 0, 182]",182,l,0.14062229229602963,colour,0.06
128,22,1,1,11,37,537,708.3154662506422,708.9995545602869,"[74, 0, 180]",180,l,0.1610790432896465,colour,0.06
128,22,1,1,11,38,538,709.5186332444428,710.127553696977,"[94, 0, 160]",160,l,0.08559571555815637,colour,0.06
128,22,1,1,11,39,539,710.6436387582216,711.303525236086,"[63, 0, 191]",191,a,0.13658458390273154,colour,0.06
128,22,1,1,11,40,540,711.8154918506043,712.4235273313243,"[81, 0, 173]",173,l,0.08470916841179132,colour,0.06
128,22,1,1,11,41,541,712.9405249336269,713.5355465636821,"[98, 0, 156]",156,l,0.0717028008075431,colour,0.06
128,22,1,1,11,42,542,714.052847427316,714.6955795522081,"[68, 0, 186]",186,a,0.11981816927436739,colour,0.06
128,22,1,1,11,43,543,715.2089230519487,715.8235692365561,"[84, 0, 170]",170,l,0.09117336152121425,colour,0.06
128,22,1,1,11,44,544,716.3340242704144,716.9594925531419,"[54, 0, 200]",200,a,0.10220577346626669,colour,0.06
128,22,1,1,11,45,545,717.4746418365976,718.1035424865549,"[96, 0, 158]",158,l,0.1056511375354603,colour,0.06
128,22,1,1,11,46,546,718.6152578273322,719.2475116815185,"[61, 0, 193]",193,a,0.10900316026527435,colour,0.06
128,22,1,1,11,47,547,719.7558899658034,720.3755651689135,"[88, 0, 166]",166,l,0.09650485368911177,colour,0.06
128,22,1,1,11,48,548,720.8964149781968,721.5274967468577,"[82, 0, 172]",172,l,0.10775269940495491,colour,0.06
128,22,1,1,11,49,549,722.037023092038,722.7035316951806,"[50, 0, 204]",204,a,0.14316338615026325,colour,0.06
128,22,1,1,11,50,550,723.2245792150497,723.8635316006839,"[78, 0, 176]",176,l,0.11558471946045756,colour,0.06
128,22,1,1,12,1,551,728.2862129509449,728.8875463557197,"[75, 0, 179]",179,l,0.07623714883811772,colour,0.06
128,22,1,1,12,2,552,729.3972869530553,729.9755173560698,"[57, 0, 197]",197,a,0.05490921065211296,colour,0.06
128,22,1,1,12,3,553,730.4910364607349,731.1915898929583,"[67, 0, 187]",187,l,0.17717119376175106,colour,0.06
128,22,1,1,12,4,554,731.7097016853513,732.271545734955,"[61, 0, 193]",193,a,0.03910574910696596,colour,0.06
128,22,1,1,12,5,555,732.7878619838739,733.4075549100526,"[76, 0, 178]",178,l,0.09630005387589335,colour,0.06
128,22,1,1,12,6,556,733.9292786633596,734.6154811379965,"[85, 0, 169]",169,l,0.1635969002963975,colour,0.06
128,22,1,1,12,7,557,735.1316162176663,735.8155036659446,"[69, 0, 185]",185,l,0.16050993592943996,colour,0.06
128,22,1,1,12,8,558,736.3347765160725,736.919473475311,"[58, 0, 196]",196,a,0.06140609295107424,colour,0.06
128,22,1,1,12,9,559,737.4284960915102,738.0795025253901,"[15, 0, 239]",239,a,0.127651764662005,colour,0.06
128,22,1,1,12,10,560,738.6003554853378,739.2555351105984,"[99, 0, 155]",155,l,0.1306824089260772,colour,0.06
128,22,1,1,12,11,561,739.7734153216006,740.4394946326502,"[86, 0, 168]",168,l,0.14273054944351315,colour,0.06
128,22,1,1,12,12,562,740.9609596292721,741.5994807535317,"[50, 0, 204]",204,a,0.11523340875282884,colour,0.06
128,22,1,1,12,13,563,742.1171750692884,742.7594771144213,"[54, 0, 200]",200,a,0.1189304405124858,colour,0.06
128,22,1,1,12,14,564,743.2734172907658,744.2395422093105,"[83, 0, 171]",171,l,0.44275016302708536,colour,0.06
128,22,1,1,12,15,565,744.7464486913523,745.3434797233203,"[96, 0, 158]",158,l,0.07353339658584446,colour,0.06
128,22,1,1,12,16,566,745.8559169835644,746.4795322213322,"[78, 0, 176]",176,l,0.10022748541086912,colour,0.06
128,22,1,1,12,17,567,746.996565663605,747.6474866329227,"[35, 0, 219]",219,a,0.1261145839234814,colour,0.06
128,22,1,1,12,18,568,748.1543887826847,748.83953063027,"[77, 0, 177]",177,l,0.16182774445042014,colour,0.06
128,22,1,1,12,19,569,749.357494730386,750.0075059155934,"[90, 0, 164]",164,l,0.1266474574804306,colour,0.06
128,22,1,1,12,20,570,750.5136168289464,751.247568395338,"[89, 0, 165]",165,l,0.2105417586863041,colour,0.06
128,22,1,1,12,21,571,751.7637326195836,752.43149956048,"[79, 0, 175]",175,l,0.14450088690500706,colour,0.06
128,22,1,1,12,22,572,752.9511977642542,753.5355087544303,"[87, 0, 167]",167,l,0.06097601319197565,colour,0.06
128,22,1,1,12,23,573,754.0450209211558,754.6315102730878,"[32, 0, 222]",222,a,0.06326504563912749,colour,0.06
128,22,1,1,12,24,574,755.1385329397162,755.7994623215636,"[60, 0, 194]",194,l,0.1373675495851785,colour,0.06
128,22,1,1,12,25,575,756.31056523195,756.9514962994726,"[70, 0, 184]",184,l,0.11776189971715212,colour,0.06
128,22,1,1,12,26,576,757.4668035149807,758.1275119492784,"[74, 0, 180]",180,l,0.13736046035774052,colour,0.06
128,22,1,1,12,27,577,758.6393749823328,759.3354944972089,"[53, 0, 201]",201,a,0.1728054117411375,colour,0.06
128,22,1,1,12,28,578,759.8424084623111,760.5035127118463,"[97, 0, 157]",157,l,0.13765348179731518,colour,0.06
128,22,1,1,12,29,579,761.014345443924,761.6234947209014,"[63, 0, 191]",191,a,0.08585683535784483,colour,0.06
128,22,1,1,12,30,580,762.1393572592642,762.7275106102461,"[65, 0, 189]",189,a,0.06474472477566451,colour,0.06
128,22,1,1,12,31,581,763.2487294530729,763.8954669910017,"[68, 0, 186]",186,l,0.12339310860261321,colour,0.06
128,22,1,1,12,32,582,764.4050212992588,764.9995128125884,"[72, 0, 182]",182,l,0.07128965633455664,colour,0.06
128,22,1,1,12,33,583,765.5143537146505,766.1355082030641,"[88, 0, 166]",166,l,0.09778288379311562,colour,0.06
128,22,1,1,12,34,584,766.6549511946505,767.375478129019,"[66, 0, 188]",188,a,0.19713996967766434,colour,0.06
128,22,1,1,12,35,585,767.8892903054366,768.4634959970135,"[98, 0, 156]",156,l,0.0507982469862327,colour,0.06
128,22,1,1,12,36,586,768.9831374869682,769.6794830693398,"[59, 0, 195]",195,a,0.1713395172264427,colour,0.06
128,22,1,1,12,37,587,770.1879082213854,770.8794933881145,"[52, 0, 202]",202,a,0.16826515598222613,colour,0.06
128,22,1,1,12,38,588,771.3910385874333,772.0635419194587,"[81, 0, 173]",173,l,0.1490911612054333,colour,0.06
128,22,1,1,12,39,589,772.5786293689162,773.1994742945535,"[80, 0, 174]",174,l,0.11036547331605107,colour,0.06
128,22,1,1,12,40,590,773.7068250348093,774.3035531991627,"[91, 0, 163]",163,l,0.0733943689847365,colour,0.06
128,22,1,1,12,41,591,774.8160830133129,775.4314912897535,"[94, 0, 160]",160,l,0.0920012256829068,colour,0.06
128,22,1,1,12,42,592,775.9411893517245,776.5994657874107,"[56, 0, 198]",198,a,0.13485599413979799,colour,0.06
128,22,1,1,12,43,593,777.1130715885665,777.8475497270701,"[64, 0, 190]",190,l,0.21121208451222628,colour,0.06
128,22,1,1,12,44,594,778.3630314163165,778.9595134269912,"[92, 0, 162]",162,l,0.07382484246045351,colour,0.06
128,22,1,1,12,45,595,779.4723201148445,780.3675141705899,"[84, 0, 170]",170,l,0.37182323879096657,colour,0.06
128,22,1,1,12,46,596,780.8785895117326,781.6074903981062,"[95, 0, 159]",159,l,0.20557575556449592,colour,0.06
128,22,1,1,12,47,597,782.1292460529367,782.8635225421749,"[62, 0, 192]",192,a,0.21092418301850557,colour,0.06
128,22,1,1,12,48,598,783.379233843647,784.1275438508019,"[51, 0, 203]",203,a,0.2248954732203856,colour,0.06
128,22,1,1,12,49,599,784.6449278159998,785.33544093417,"[55, 0, 199]",199,a,0.16723446117248386,colour,0.06
128,22,1,1,12,50,600,785.84799910523,786.5995051719947,"[82, 0, 172]",172,l,0.22817936050705612,colour,0.06
128,22,1,1,13,1,601,791.1284000718733,791.7194481904153,"[98, 0, 156]",156,l,0.06685810210183263,colour,0.06
128,22,1,1,13,2,602,792.2386308498681,792.8314957795665,"[89, 0, 165]",165,l,0.06956303585320711,colour,0.06
128,22,1,1,13,3,603,793.3483831050107,793.9274606705876,"[48, 0, 206]",206,a,0.05572604713961482,colour,0.06
128,22,1,1,13,4,604,794.4422035049647,795.0474470120389,"[77, 0, 177]",177,l,0.081903803977184,colour,0.06
128,22,1,1,13,5,605,795.5671188280685,796.2314715186367,"[65, 0, 189]",189,l,0.14100117201451212,colour,0.06
128,22,1,1,13,6,606,796.7389821603429,797.3674873891287,"[91, 0, 163]",163,l,0.10581025143619627,colour,0.06
128,22,1,1,13,7,607,797.8796521080658,798.9434669626644,"[87, 0, 167]",167,l,0.5405436806613579,colour,0.06
128,22,1,1,13,8,608,799.4578403695486,799.9834742251551,"[86, 0, 168]",168,l,0.0022197156213223934,colour,0.06
128,22,1,1,13,9,609,800.5046209942084,801.1834589439677,"[66, 0, 188]",188,a,0.15549194510094821,colour,0.06
128,22,1,1,13,10,610,801.6921152834548,802.367485026014,"[95, 0, 159]",159,l,0.1520430363016203,colour,0.06
128,22,1,1,13,11,611,802.8796320218826,803.5035296471324,"[90, 0, 164]",164,l,0.10055595287121832,colour,0.06
128,22,1,1,13,12,612,804.0209049476543,804.6394439053256,"[58, 0, 196]",196,a,0.09518743911758065,colour,0.06
128,22,1,1,13,13,613,805.1366279070498,805.7115184966242,"[70, 0, 184]",184,a,0.05174268945120275,colour,0.06
128,22,1,1,13,14,614,806.2307629898423,807.1754914409248,"[93, 0, 161]",161,l,0.42131706792861223,colour,0.06
128,22,1,1,13,15,615,807.6839083221275,808.4154656991595,"[73, 0, 181]",181,l,0.2081487508257851,colour,0.06
128,22,1,1,13,16,616,808.9339528267737,809.7434660962317,"[96, 0, 158]",158,l,0.28620034782215953,colour,0.06
128,22,1,1,13,17,617,810.2619918206474,811.0315049168421,"[99, 0, 155]",155,l,0.24611864844337106,colour,0.06
128,22,1,1,13,18,618,811.5433604667196,812.2394713170361,"[55, 0, 199]",199,a,0.17293577478267252,colour,0.06
128,22,1,1,13,19,619,812.7464597190265,813.4874855459202,"[50, 0, 204]",204,a,0.21850926172919571,colour,0.06
128,22,1,1,13,20,620,813.9964053683216,814.727500764071,"[67, 0, 187]",187,l,0.20775214803870767,colour,0.06
128,22,1,1,13,21,621,815.2464006422088,815.8955055879196,"[72, 0, 182]",182,l,0.12567938421852887,colour,0.06
128,22,1,1,13,22,622,816.4027078482322,817.0954233529046,"[56, 0, 198]",198,a,0.16965582594275475,colour,0.06
128,22,1,1,13,23,623,817.605806312873,818.391519867233,"[92, 0, 162]",162,l,0.26246246648952365,colour,0.06
128,22,1,1,13,24,624,818.9025451899506,819.5915152197704,"[62, 0, 192]",192,a,0.16568900970742106,colour,0.06
128,22,1,1,13,25,625,820.1057452667737,820.783475721837,"[82, 0, 172]",172,l,0.15439114579930902,colour,0.06
128,22,1,1,13,26,626,821.293278546771,822.1034582034918,"[69, 0, 185]",185,a,0.2853397944709286,colour,0.06
128,22,1,1,13,27,627,822.622979964246,823.3114679268328,"[94, 0, 160]",160,l,0.16519670246634632,colour,0.06
128,22,1,1,13,28,628,823.8260189582361,824.5114581594244,"[63, 0, 191]",191,a,0.16187933820765465,colour,0.06
128,22,1,1,13,29,629,825.0291776813101,825.7115031366702,"[75, 0, 179]",179,l,0.1588912293082103,colour,0.06
128,22,1,1,13,30,630,826.2323588535655,826.9354821305024,"[81, 0, 173]",173,l,0.17976900155190378,colour,0.06
128,22,1,1,13,31,631,827.4510461335303,828.1514400582528,"[57, 0, 197]",197,a,0.177056978456676,colour,0.06
128,22,1,1,13,32,632,828.6698901642812,829.4794329721481,"[59, 0, 195]",195,a,0.28653787379153073,colour,0.06
128,22,1,1,13,33,633,829.9979134043679,830.8474934070837,"[52, 0, 202]",202,a,0.3262414811179042,colour,0.06
128,22,1,1,13,34,634,831.3572828412289,832.1194700094638,"[71, 0, 183]",183,l,0.2387974465964362,colour,0.06
128,22,1,1,13,35,635,832.6385187612614,833.4554438170744,"[85, 0, 169]",169,l,0.2935227311681956,colour,0.06
128,22,1,1,13,36,636,833.9667341981549,834.90356052469,"[78, 0, 176]",176,l,0.4135134048992768,colour,0.06
128,22,1,1,13,37,637,835.4198102136143,836.1674695872935,"[68, 0, 186]",186,a,0.2245402242988348,colour,0.06
128,22,1,1,13,38,638,836.6866061667679,837.3754076305777,"[61, 0, 193]",193,a,0.16570948984008282,colour,0.06
128,22,1,1,13,39,639,837.8897424405441,838.6314838854596,"[47, 0, 207]",207,a,0.21697444410528988,colour,0.06
128,22,1,1,13,40,640,839.141229208908,839.7754349635215,"[88, 0, 166]",166,l,0.11087235296145082,colour,0.06
128,22,1,1,13,41,641,840.2818184181815,840.8954240618041,"[53, 0, 201]",201,a,0.09032383584417403,colour,0.06
128,22,1,1,13,42,642,841.4068936427357,842.0394353982992,"[51, 0, 203]",203,a,0.10920087085105479,colour,0.06
128,22,1,1,13,43,643,842.535018810071,843.15951862582,"[64, 0, 190]",190,a,0.10118098638486117,colour,0.06
128,22,1,1,13,44,644,843.6756080193445,844.3434265541146,"[74, 0, 180]",180,l,0.14445205009542406,colour,0.06
128,22,1,1,13,45,645,844.8631208193256,845.4634459785884,"[54, 0, 200]",200,a,0.07702168996911496,colour,0.06
128,22,1,1,13,46,646,845.9725745393662,846.5674740771065,"[79, 0, 175]",175,l,0.07167444378137589,colour,0.06
128,22,1,1,13,47,647,847.0818423640449,847.7434282869799,"[84, 0, 170]",170,l,0.13818517373874784,colour,0.06
128,22,1,1,13,48,648,848.2537517762976,848.8474520532181,"[34, 0, 220]",220,a,0.07034875848330557,colour,0.06
128,22,1,1,13,49,649,849.363152327016,849.9595201223856,"[97, 0, 157]",157,l,0.072933963034302,colour,0.06
128,22,1,1,13,50,650,850.472490256303,851.1994191560661,"[76, 0, 178]",178,l,0.2036872642347589,colour,0.06
128,22,1,1,14,1,651,859.7530144967604,860.2954297332326,"[70, 0, 184]",184,l,0.019003065768629313,colour,0.06
128,22,1,1,14,2,652,860.8162610316649,861.4234387159813,"[87, 0, 167]",167,l,0.08391163032501936,colour,0.06
128,22,1,1,14,3,653,861.9412133763544,862.5274888699641,"[85, 0, 169]",169,l,0.06290231365710497,colour,0.06
128,22,1,1,14,4,654,863.0350081762299,863.6634484203532,"[95, 0, 159]",159,l,0.10522263322491199,colour,0.06
128,22,1,1,14,5,655,864.1755257055629,865.0554101826856,"[97, 0, 157]",157,l,0.35663023858796805,colour,0.06
128,22,1,1,14,6,656,865.5662303116405,866.2554086861201,"[79, 0, 175]",175,l,0.16585639433469623,colour,0.06
128,22,1,1,14,7,657,866.7569041190436,867.3034378023585,"[74, 0, 180]",180,l,0.02400018274784088,colour,0.06
128,22,1,1,14,8,658,867.8193925005617,868.4474589849124,"[19, 0, 235]",235,a,0.10493985179346055,colour,0.06
128,22,1,1,14,9,659,868.9600545712747,869.6954732137965,"[64, 0, 190]",190,l,0.2122093023499474,colour,0.06
128,22,1,1,14,10,660,870.2099797405535,871.0554129396332,"[65, 0, 189]",189,l,0.3221104312688112,colour,0.06
128,22,1,1,14,11,661,871.5723837603582,872.6234494285891,"[81, 0, 173]",173,l,0.5276972143910825,colour,0.06
128,22,1,1,14,12,662,873.134909557295,873.8234124858864,"[96, 0, 158]",158,l,0.16523490543477237,colour,0.06
128,22,1,1,14,13,663,874.3380903357174,875.0714440440061,"[59, 0, 195]",195,a,0.21006599289830774,colour,0.06
128,22,1,1,14,14,664,875.5880899418844,876.4314570251154,"[56, 0, 198]",198,a,0.33039813092909753,colour,0.06
128,22,1,1,14,15,665,876.952683351119,877.5593962972052,"[94, 0, 160]",160,l,0.08352802449371666,colour,0.06
128,22,1,1,14,16,666,878.077673898777,878.9194561460754,"[82, 0, 172]",172,l,0.3183696826454252,colour,0.06
128,22,1,1,14,17,667,879.437076024944,880.0394578474807,"[62, 0, 192]",192,a,0.07923549774568528,colour,0.06
128,22,1,1,14,18,668,880.5371172211599,881.2554413753096,"[75, 0, 179]",179,l,0.19523454317823052,colour,0.06
128,22,1,1,14,19,669,881.7714492427185,882.3514712508768,"[54, 0, 200]",200,a,0.057358538499101996,colour,0.06
128,22,1,1,14,20,670,882.865172756603,883.7594530897914,"[76, 0, 178]",178,l,0.3709181807935238,colour,0.06
128,22,1,1,14,21,671,884.2714579073945,884.9194423614535,"[68, 0, 186]",186,a,0.12465459713712335,colour,0.06
128,22,1,1,14,22,672,885.4307512532687,886.0394448505249,"[60, 0, 194]",194,a,0.08543266332708299,colour,0.06
128,22,1,1,14,23,673,886.5558059978066,887.1754658409627,"[89, 0, 165]",165,l,0.09642450918909162,colour,0.06
128,22,1,1,14,24,674,887.6910956163192,888.407439906965,"[93, 0, 161]",161,l,0.1929384213872254,colour,0.06
128,22,1,1,14,25,675,888.9254599333508,889.5994303412735,"[86, 0, 168]",168,l,0.1506110125919804,colour,0.06
128,22,1,1,14,26,676,890.1129463455873,890.7194115626626,"[22, 0, 232]",232,a,0.08309400628786534,colour,0.06
128,22,1,1,14,27,677,891.2379652502714,891.8794323420152,"[61, 0, 193]",193,a,0.11803286569193006,colour,0.06
128,22,1,1,14,28,678,892.3911461074604,892.9675096807769,"[32, 0, 222]",222,a,0.05295415944419801,colour,0.06
128,22,1,1,14,29,679,893.4850393688539,894.0874081945512,"[88, 0, 166]",166,l,0.0791015902068466,colour,0.06
128,22,1,1,14,30,680,894.596261063125,895.4953715227311,"[53, 0, 201]",201,a,0.3758191994857043,colour,0.06
128,22,1,1,14,31,681,896.0027080845321,896.9594271747628,"[67, 0, 187]",187,a,0.4335936391726136,colour,0.06
128,22,1,1,14,32,682,897.4714331738651,898.143443016801,"[58, 0, 196]",196,a,0.14868077368009835,colour,0.06
128,22,1,1,14,33,683,898.6590022938326,899.2474474846385,"[73, 0, 181]",181,l,0.06514959840569645,colour,0.06
128,22,1,1,14,34,684,899.768304383033,900.3674665152794,"[91, 0, 163]",163,l,0.0757830444490537,colour,0.06
128,22,1,1,14,35,685,900.8777222629869,901.5194394469727,"[51, 0, 203]",203,a,0.11839717312250286,colour,0.06
128,22,1,1,14,36,686,902.033975906088,902.6633747712476,"[90, 0, 164]",164,l,0.10612493427470326,colour,0.06
128,22,1,1,14,37,687,903.1746104076738,903.7674623405328,"[55, 0, 199]",199,a,0.06955122051294893,colour,0.06
128,22,1,1,14,38,688,904.2839105277089,904.8954051572364,"[99, 0, 155]",155,l,0.08658426883630455,colour,0.06
128,22,1,1,14,39,689,905.4107190681389,906.119431412546,"[71, 0, 183]",183,l,0.18548921961337328,colour,0.06
128,22,1,1,14,40,690,906.6295016589575,907.2793793303426,"[98, 0, 156]",156,l,0.12655726668890566,colour,0.06
128,22,1,1,14,41,691,907.775555874221,908.4394095620373,"[50, 0, 204]",204,a,0.1406805815640837,colour,0.06
128,22,1,1,14,42,692,908.9473656434566,909.6074076903751,"[83, 0, 171]",171,l,0.1367657530354336,colour,0.06
128,22,1,1,14,43,693,910.1192159788916,911.0714428623905,"[78, 0, 176]",176,l,0.4289494081167504,colour,0.06
128,22,1,1,14,44,694,911.587970212684,912.7914613416651,"[66, 0, 188]",188,l,0.680208139703609,colour,0.06
128,22,1,1,14,45,695,913.3067209018627,913.9514651856152,"[57, 0, 197]",197,a,0.12175155885051936,colour,0.06
128,22,1,1,14,46,696,914.4629071973031,915.0554243611405,"[84, 0, 170]",170,l,0.06916643294971436,colour,0.06
128,22,1,1,14,47,697,915.5723014465766,916.2554177445127,"[52, 0, 202]",202,a,0.1596820717677474,colour,0.06
128,22,1,1,14,48,698,916.7755306679755,917.4394241343252,"[72, 0, 182]",182,l,0.14064001536462456,colour,0.06
128,22,1,1,14,49,699,917.9472514281515,918.6794314755825,"[80, 0, 174]",174,l,0.20884546427987516,colour,0.06
128,22,1,1,14,50,700,919.1972415819764,919.8874337157467,"[92, 0, 162]",162,l,0.16687212290707976,colour,0.06
128,22,1,1,15,1,701,925.4464794901432,926.3033708485309,"[62, 0, 192]",192,a,0.33273639425169677,colour,0.06
128,22,1,1,15,2,702,926.8221789604286,927.5753832908813,"[77, 0, 177]",177,l,0.22981342731509358,colour,0.06
128,22,1,1,15,3,703,928.0891336335335,928.8233620736282,"[63, 0, 191]",191,l,0.21090015850495547,colour,0.06
128,22,1,1,15,4,704,929.3391399350949,930.1754036133643,"[59, 0, 195]",195,a,0.31305158126633614,colour,0.06
128,22,1,1,15,5,705,930.6828480889089,931.4714536537649,"[64, 0, 190]",190,a,0.2656045692274347,colour,0.06
128,22,1,1,15,6,706,931.9766866845312,932.7914392863167,"[68, 0, 186]",186,l,0.29114468954503536,colour,0.06
128,22,1,1,15,7,707,933.3047914507333,934.0153725940036,"[50, 0, 204]",204,a,0.18743009236641228,colour,0.06
128,22,1,1,15,8,708,934.5235275676241,935.3114253914682,"[98, 0, 156]",156,l,0.26453448995016515,colour,0.06
128,22,1,1,15,9,709,935.8206701367162,936.4635097816354,"[61, 0, 193]",193,a,0.11987527692690492,colour,0.06
128,22,1,1,15,10,710,936.976748912246,937.791549169342,"[92, 0, 162]",162,l,0.291690953890793,colour,0.06
128,22,1,1,15,11,711,938.3047359184129,939.1353648431832,"[82, 0, 172]",172,l,0.3075066244928166,colour,0.06
128,22,1,1,15,12,712,939.6371328175301,940.5274030115688,"[84, 0, 170]",170,l,0.36629285442177206,colour,0.06
128,22,1,1,15,13,713,941.0440177955898,942.0234200477134,"[78, 0, 176]",176,l,0.456059004412964,colour,0.06
128,22,1,1,15,14,714,942.5440642694011,943.1914362930693,"[97, 0, 157]",157,l,0.12418710195925087,colour,0.06
128,22,1,1,15,15,715,943.7002942817053,944.2953600224573,"[79, 0, 175]",175,l,0.0717827514745295,colour,0.06
128,22,1,1,15,16,716,944.809240334318,945.4233745191013,"[75, 0, 179]",179,l,0.09069129405543208,colour,0.06
128,22,1,1,15,17,717,945.9343332819408,946.5273943468928,"[99, 0, 155]",155,l,0.06976429105270654,colour,0.06
128,22,1,1,15,18,718,947.0436574266059,947.7274428687524,"[72, 0, 182]",182,l,0.1605461697326973,colour,0.06
128,22,1,1,15,19,719,948.246857109596,948.8393656087574,"[27, 0, 227]",227,a,0.06926607596687973,colour,0.06
128,22,1,1,15,20,720,949.3562423003605,950.0633784733946,"[76, 0, 178]",178,l,0.1839134421898052,colour,0.06
128,22,1,1,15,21,721,950.5749788110843,951.191528453026,"[73, 0, 181]",181,l,0.09320284950081259,colour,0.06
128,22,1,1,15,22,722,951.6998976789182,952.30337203003,"[51, 0, 203]",203,a,0.08012834645342082,colour,0.06
128,22,1,1,15,23,723,952.8249709341908,953.4873650290538,"[90, 0, 164]",164,l,0.13910125941038132,colour,0.06
128,22,1,1,15,24,724,953.996792912716,954.7993843400618,"[70, 0, 184]",184,l,0.2792627519229427,colour,0.06
128,22,1,1,15,25,725,955.3092041003983,955.9193817091873,"[5, 0, 249]",249,a,0.08734005910810083,colour,0.06
128,22,1,1,15,26,726,956.4343269803794,957.1513671968132,"[83, 0, 171]",171,l,0.1937426548684016,colour,0.06
128,22,1,1,15,27,727,957.6692663123831,958.3113671022002,"[86, 0, 168]",168,l,0.11923173256218433,colour,0.06
128,22,1,1,15,28,728,958.8255703677423,959.4794180060271,"[52, 0, 202]",202,a,0.1305311721516773,colour,0.06
128,22,1,1,15,29,729,959.9983509671874,960.7193745411932,"[56, 0, 198]",198,a,0.19753302785102278,colour,0.06
128,22,1,1,15,30,730,961.2328476163093,961.9274098644964,"[71, 0, 183]",183,l,0.17132455110549927,colour,0.06
128,22,1,1,15,31,731,962.4358877917985,963.031365495408,"[91, 0, 163]",163,l,0.07217738509643823,colour,0.06
128,22,1,1,15,32,732,963.5464371910784,964.431370379054,"[88, 0, 166]",166,l,0.36160569405183196,colour,0.06
128,22,1,1,15,33,733,964.9526463295333,965.7994268754264,"[57, 0, 197]",197,a,0.323507402674295,colour,0.06
128,22,1,1,15,34,734,966.3120496371994,966.9673864069628,"[96, 0, 158]",158,l,0.13240075868088752,colour,0.06
128,22,1,1,15,35,735,967.4838735848898,968.05537670583,"[65, 0, 189]",189,a,0.04826463619247079,colour,0.06
128,22,1,1,15,36,736,968.5620165541768,969.1993770145345,"[46, 0, 208]",208,a,0.1139817665098235,colour,0.06
128,22,1,1,15,37,737,969.71827177261,970.4714130876819,"[60, 0, 194]",194,a,0.22982248570770025,colour,0.06
128,22,1,1,15,38,738,970.9839106064755,971.6393631668761,"[55, 0, 199]",199,a,0.13213924493175,colour,0.06
128,22,1,1,15,39,739,972.1583650511457,972.8714018237079,"[95, 0, 159]",159,l,0.18988611549139023,colour,0.06
128,22,1,1,15,40,740,973.392667534179,974.1914122684393,"[89, 0, 165]",165,l,0.27408170874696225,colour,0.06
128,22,1,1,15,41,741,974.7065698226215,975.4234040576266,"[69, 0, 185]",185,l,0.19350910419598222,colour,0.06
128,22,1,1,15,42,742,975.940914841136,976.5993476336589,"[80, 0, 174]",174,l,0.13510057248640805,colour,0.06
128,22,1,1,15,43,743,977.1127793549094,978.1113559957594,"[58, 0, 196]",196,a,0.47526371921412647,colour,0.06
128,22,1,1,15,44,744,978.6284603303066,979.43935442355,"[94, 0, 160]",160,l,0.28762055619154125,colour,0.06
128,22,1,1,15,45,745,979.9565710041206,980.7994308138732,"[81, 0, 173]",173,l,0.31956342968624085,colour,0.06
128,22,1,1,15,46,746,981.3173252033303,981.9594153594226,"[85, 0, 169]",169,l,0.1186972837895155,colour,0.06
128,22,1,1,15,47,747,982.473581997212,983.1433524322929,"[93, 0, 161]",161,l,0.14520980964880437,colour,0.06
128,22,1,1,15,48,748,983.662345257937,984.4473664311226,"[66, 0, 188]",188,l,0.2617586638079956,colour,0.06
128,22,1,1,15,49,749,984.9591392733855,986.1833971102023,"[67, 0, 187]",187,a,0.7008578752866015,colour,0.06
128,22,1,1,15,50,750,986.6936359225074,987.3273607912706,"[87, 0, 167]",167,l,0.11056003312114626,colour,0.06
128,22,1,1,16,1,751,992.2127016097074,992.8313701427542,"[51, 0, 203]",203,a,0.09448166727088392,colour,0.06
128,22,1,1,16,2,752,993.3391678981716,993.9753566669533,"[90, 0, 164]",164,l,0.11277856724336743,colour,0.06
128,22,1,1,16,3,753,994.495473922696,995.0553589827614,"[75, 0, 179]",179,l,0.0365989200072363,colour,0.06
128,22,1,1,16,4,754,995.5735562396003,996.2154774358496,"[99, 0, 155]",155,l,0.11852438538335264,colour,0.06
128,22,1,1,16,5,755,996.7297409597086,997.3913867472438,"[93, 0, 161]",161,l,0.13830726593732834,colour,0.06
128,22,1,1,16,6,756,997.9016212273855,998.5673665571958,"[77, 0, 177]",177,l,0.14291683863848448,colour,0.06
128,22,1,1,16,7,757,999.0735507258214,999.7353887101635,"[80, 0, 174]",174,l,0.1384711058344692,colour,0.06
128,22,1,1,16,8,758,1000.2454164212104,1000.9673714408418,"[86, 0, 168]",168,l,0.19863461493514478,colour,0.06
128,22,1,1,16,9,759,1001.4797275689198,1002.1833612701157,"[81, 0, 173]",173,l,0.18029202881734818,colour,0.06
128,22,1,1,16,10,760,1002.6985089781228,1003.3833688320592,"[58, 0, 196]",196,a,0.16151857539080083,colour,0.06
128,22,1,1,16,11,761,1003.9015948397573,1004.5514343080577,"[66, 0, 188]",188,a,0.12650055286940187,colour,0.06
128,22,1,1,16,12,762,1005.0579197688494,1005.7833650511457,"[19, 0, 235]",235,a,0.2020516222110018,colour,0.06
128,22,1,1,16,13,763,1006.2922273720615,1007.1033640743699,"[97, 0, 157]",157,l,0.2878072392195463,colour,0.06
128,22,1,1,16,14,764,1007.6203923965804,1008.6233966533327,"[71, 0, 183]",183,l,0.4799638765398413,colour,0.06
128,22,1,1,16,15,765,1009.1360395011725,1009.7113239367027,"[78, 0, 176]",176,l,0.052029409212991595,colour,0.06
128,22,1,1,16,16,766,1010.2297535627149,1011.0233519123867,"[53, 0, 201]",201,a,0.27026022190693766,colour,0.06
128,22,1,1,16,17,767,1011.542291174992,1012.1753520194907,"[67, 0, 187]",187,a,0.10975973820313811,colour,0.06
128,22,1,1,16,18,768,1012.6829343411373,1013.3513909062603,"[91, 0, 163]",163,l,0.14521689875982702,colour,0.06
128,22,1,1,16,19,769,1013.870360495057,1014.4633813878754,"[55, 0, 199]",199,a,0.07037081383168697,colour,0.06
128,22,1,1,16,20,770,1014.9797110273503,1015.6233218226116,"[87, 0, 167]",167,l,0.12020059360656887,colour,0.06
128,22,1,1,16,21,771,1016.1360048428178,1016.7513851561816,"[59, 0, 195]",195,a,0.09215049329213798,colour,0.06
128,22,1,1,16,22,772,1017.2609611258376,1017.8473185395123,"[63, 0, 191]",191,a,0.06294957513455302,colour,0.06
128,22,1,1,16,23,773,1018.3547177227447,1018.9673395393183,"[60, 0, 194]",194,a,0.08927463029976934,colour,0.06
128,22,1,1,16,24,774,1019.4797224489739,1020.10325182823,"[62, 0, 192]",192,a,0.10029168229084462,colour,0.06
128,22,1,1,16,25,775,1020.6207279533846,1021.2393645847915,"[92, 0, 162]",162,l,0.09518822690006346,colour,0.06
128,22,1,1,16,26,776,1021.7459264516365,1022.3273190435721,"[56, 0, 198]",198,a,0.058148593292571604,colour,0.06
128,22,1,1,16,27,777,1022.8396137317177,1023.5753517831909,"[95, 0, 159]",159,l,0.2092972055543214,colour,0.06
128,22,1,1,16,28,778,1024.0927495328942,1024.7033261075849,"[57, 0, 197]",197,a,0.08724632381927222,colour,0.06
128,22,1,1,16,29,779,1025.2177404745016,1025.8713124206988,"[85, 0, 169]",169,l,0.1303358245640993,colour,0.06
128,22,1,1,16,30,780,1026.389638071414,1027.0473773012636,"[65, 0, 189]",189,a,0.1344845974817872,colour,0.06
128,22,1,1,16,31,781,1027.561509280582,1028.255351184518,"[79, 0, 175]",175,l,0.1705876652849838,colour,0.06
128,22,1,1,16,32,782,1028.7646546128672,1029.3753851813963,"[64, 0, 190]",190,a,0.08750901906751096,colour,0.06
128,22,1,1,16,33,783,1029.8896148344502,1030.6793389217928,"[38, 0, 216]",216,a,0.2663816272979602,colour,0.06
128,22,1,1,16,34,784,1031.1892725036014,1031.8793492405675,"[54, 0, 200]",200,a,0.15801216510590166,colour,0.06
128,22,1,1,16,35,785,1032.3854696061462,1033.0393853798741,"[73, 0, 181]",181,l,0.1306457812897861,colour,0.06
128,22,1,1,16,36,786,1033.5580438303296,1034.2313360356493,"[74, 0, 180]",180,l,0.14989027450792491,colour,0.06
128,22,1,1,16,37,787,1034.7482918902533,1035.6233072502073,"[82, 0, 172]",172,l,0.3523940317099914,colour,0.06
128,22,1,1,16,38,788,1036.1389220595593,1036.783387500327,"[88, 0, 166]",166,l,0.1186882252804935,colour,0.06
128,22,1,1,16,39,789,1037.2976309380028,1037.8953535633627,"[94, 0, 160]",160,l,0.07436322991270572,colour,0.06
128,22,1,1,16,40,790,1038.40698068263,1038.9673249670304,"[68, 0, 186]",186,a,0.037299965624697506,colour,0.06
128,22,1,1,16,41,791,1039.4858298175968,1040.0792870916193,"[50, 0, 204]",204,a,0.07088045042473823,colour,0.06
128,22,1,1,16,42,792,1040.597659609979,1041.1993506269064,"[45, 0, 209]",209,a,0.07829696300905198,colour,0.06
128,22,1,1,16,43,793,1041.7071082099574,1042.2953304840485,"[52, 0, 202]",202,a,0.06488532782532275,colour,0.06
128,22,1,1,16,44,794,1042.8164126623888,1043.447314443416,"[89, 0, 165]",165,l,0.10752308717928827,colour,0.06
128,22,1,1,16,45,795,1043.9570081731072,1044.5834271999775,"[61, 0, 193]",193,a,0.10304387763608247,colour,0.06
128,22,1,1,16,46,796,1045.0977285330882,1045.727331804228,"[96, 0, 158]",158,l,0.10627065727021545,colour,0.06
128,22,1,1,16,47,797,1046.2382515762001,1046.9512938626576,"[72, 0, 182]",182,l,0.18966162332799286,colour,0.06
128,22,1,1,16,48,798,1047.472707265406,1048.0633426334243,"[83, 0, 171]",171,l,0.06735395407304168,colour,0.06
128,22,1,1,16,49,799,1048.583049107925,1049.2713098212844,"[70, 0, 184]",184,l,0.16504034551326185,colour,0.06
128,22,1,1,16,50,800,1049.7860936155776,1050.3673207922839,"[98, 0, 156]",156,l,0.058393171639181674,colour,0.06
